ID;RS_ID;imLx_drone;imLy_drone;disparity_drone;imLx_pred_drone;imLy_pred_drone;n_frames_lost_drone;n_frames_tracking_drone;foundL_drone;posX_drone;posY_drone;posZ_drone;sposX_drone;sposY_drone;sposZ_drone;svelX_drone;svelY_drone;svelZ_drone;saccX_drone;saccY_drone;saccZ_drone;imLx_insect;imLy_insect;disparity_insect;imLx_pred_insect;imLy_pred_insect;n_frames_lost_insect;n_frames_tracking_insect;foundL_insect;posX_insect;posY_insect;posZ_insect;sposX_insect;sposY_insect;sposZ_insect;svelX_insect;svelY_insect;svelZ_insect;saccX_insect;saccY_insect;saccZ_insect;valid;posErrX;posErrY;posErrZ;velX;velY;velZ;accX;accY;accZ;hoverthrottle;autoThrottle;autoRoll;autoPitch;autoYaw;joyThrottle;joyRoll;joyPitch;joyYaw;joyArmSwitch;joyModeSwitch;joyTakeoffSwitch;throttleP;throttleI;throttleD;dt;dx;dy;dz;velx_sp;vely_sp;velz_sp;Unnamed: 75;time
28276.0;28279.0;-1.0;-1.0;-1.0;-1.0;-1.0;100.0;0.0;0.0;0.0;0.0;0.0;0.0;0.0;0.0;0.0;0.0;0.0;0.0;0.0;0.0;170.0;25.0;14.7168;170.0;25.0;0.0;1.0;1.0;0.874923;-0.296248;-1.59289;0.874923;-0.296248;-1.59289;0.0;0.0;0.0;0.0;0.0;0.0;0.0;0.0;0.0;0.0;0.0;0.0;0.0;0.0;0.0;0.0;200.0;228.0;1024.0;1024.0;1024.0;228.0;1024.0;1024.0;1024.0;1.0;4.0;0.0;1900.0;50.0;35.0;0.0;0.0;0.0;0.0;0.0;0.0;0.0;;1970-01-01 00:00:00.000
28277.0;28280.0;-1.0;-1.0;-1.0;-1.0;-1.0;100.0;0.0;0.0;0.0;0.0;0.0;0.0;0.0;0.0;0.0;0.0;0.0;0.0;0.0;0.0;170.0;25.0;14.7168;170.0;25.0;1.0;0.0;1.0;0.874923;-0.296248;-1.59289;0.874923;-0.296248;-1.59289;0.0;0.0;0.0;0.0;0.0;0.0;0.0;0.0;0.0;0.0;0.0;0.0;0.0;0.0;0.0;0.0;200.0;228.0;1024.0;1024.0;1024.0;228.0;1024.0;1024.0;1024.0;1.0;4.0;0.0;1900.0;50.0;35.0;0.0;0.0;0.0;0.0;0.0;0.0;0.0;;1970-01-01 00:00:00.011
28278.0;28281.0;-1.0;-1.0;-1.0;-1.0;-1.0;100.0;0.0;0.0;0.0;0.0;0.0;0.0;0.0;0.0;0.0;0.0;0.0;0.0;0.0;0.0;192.5;38.25;15.1941;170.0;25.0;0.0;1.0;1.0;0.773517;-0.321839;-1.51683;0.8445020000000001;-0.30392600000000003;-1.57007;0.0;0.0;0.0;0.0;0.0;0.0;0.0;0.0;0.0;0.0;0.0;0.0;0.0;0.0;0.0;0.0;200.0;228.0;1024.0;1024.0;1024.0;228.0;1024.0;1024.0;1024.0;1.0;4.0;0.0;1900.0;50.0;35.0;0.0;0.0;0.0;0.0;0.0;0.0;0.0;;1970-01-01 00:00:00.022
28278.0;28281.0;-1.0;-1.0;-1.0;-1.0;-1.0;100.0;0.0;0.0;0.0;0.0;0.0;0.0;0.0;0.0;0.0;0.0;0.0;0.0;0.0;0.0;192.5;38.25;15.1941;170.0;25.0;0.0;1.0;1.0;0.773517;-0.321839;-1.51683;0.8445020000000001;-0.30392600000000003;-1.57007;0.0;0.0;0.0;0.0;0.0;0.0;0.0;0.0;0.0;0.0;0.0;0.0;0.0;0.0;0.0;0.0;200.0;228.0;1024.0;1024.0;1024.0;228.0;1024.0;1024.0;1024.0;1.0;4.0;0.0;1900.0;50.0;35.0;0.0;0.0;0.0;0.0;0.0;0.0;0.0;;1970-01-01 00:00:00.033
28279.0;28282.0;-1.0;-1.0;-1.0;-1.0;-1.0;100.0;0.0;0.0;0.0;0.0;0.0;0.0;0.0;0.0;0.0;0.0;0.0;0.0;0.0;0.0;192.5;38.25;15.1941;173.61700000000002;27.1298;1.0;0.0;1.0;0.773517;-0.321839;-1.51683;0.8445020000000001;-0.30392600000000003;-1.57007;0.0;0.0;0.0;0.0;0.0;0.0;0.0;0.0;0.0;0.0;0.0;0.0;0.0;0.0;0.0;0.0;200.0;228.0;1024.0;1024.0;1024.0;228.0;1024.0;1024.0;1024.0;1.0;4.0;0.0;1900.0;50.0;35.0;0.0;0.0;0.0;0.0;0.0;0.0;0.0;;1970-01-01 00:00:00.044
28280.0;28283.0;-1.0;-1.0;-1.0;-1.0;-1.0;100.0;0.0;0.0;0.0;0.0;0.0;0.0;0.0;0.0;0.0;0.0;0.0;0.0;0.0;0.0;221.0;54.0;15.5692;173.622;27.1329;0.0;1.0;1.0;0.663503;-0.354568;-1.4501;0.7902020000000001;-0.31911799999999996;-1.5340799999999999;0.0;0.0;0.0;0.0;0.0;0.0;0.0;0.0;0.0;0.0;0.0;0.0;0.0;0.0;0.0;0.0;200.0;228.0;1024.0;1024.0;1024.0;228.0;1024.0;1024.0;1024.0;1.0;4.0;0.0;1900.0;50.0;35.0;0.0;0.0;0.0;0.0;0.0;0.0;0.0;;1970-01-01 00:00:00.055
28280.0;28283.0;-1.0;-1.0;-1.0;-1.0;-1.0;100.0;0.0;0.0;0.0;0.0;0.0;0.0;0.0;0.0;0.0;0.0;0.0;0.0;0.0;0.0;221.0;54.0;15.5692;173.622;27.1329;0.0;1.0;1.0;0.663503;-0.354568;-1.4501;0.7902020000000001;-0.31911799999999996;-1.5340799999999999;0.0;0.0;0.0;0.0;0.0;0.0;0.0;0.0;0.0;0.0;0.0;0.0;0.0;0.0;0.0;0.0;200.0;228.0;1024.0;1024.0;1024.0;228.0;1024.0;1024.0;1024.0;1.0;4.0;0.0;1900.0;50.0;35.0;0.0;0.0;0.0;0.0;0.0;0.0;0.0;;1970-01-01 00:00:00.066
28281.0;28284.0;-1.0;-1.0;-1.0;-1.0;-1.0;100.0;0.0;0.0;0.0;0.0;0.0;0.0;0.0;0.0;0.0;0.0;0.0;0.0;0.0;0.0;237.0;64.0;15.8427;184.875;33.5145;0.0;2.0;1.0;0.601633;-0.373705;-1.4062299999999999;0.733631;-0.335494;-1.49573;0.0;0.0;0.0;0.0;0.0;0.0;0.0;0.0;0.0;0.0;0.0;0.0;0.0;0.0;0.0;0.0;200.0;228.0;1024.0;1024.0;1024.0;228.0;1024.0;1024.0;1024.0;1.0;4.0;0.0;1900.0;50.0;35.0;0.0;0.0;0.0;0.0;0.0;0.0;0.0;;1970-01-01 00:00:00.077
28282.0;28285.0;-1.0;-1.0;-1.0;-1.0;-1.0;100.0;0.0;0.0;0.0;0.0;0.0;0.0;0.0;0.0;0.0;0.0;0.0;0.0;0.0;0.0;244.8;67.4;16.1081;198.234;41.3269;0.0;3.0;1.0;0.5675479999999999;-0.375994;-1.37676;0.683806;-0.347644;-1.46004;0.0;0.0;0.0;0.0;0.0;0.0;0.0;0.0;0.0;0.0;0.0;0.0;0.0;0.0;0.0;0.0;200.0;228.0;1024.0;1024.0;1024.0;228.0;1024.0;1024.0;1024.0;1.0;4.0;0.0;1900.0;50.0;35.0;0.0;0.0;0.0;0.0;0.0;0.0;0.0;;1970-01-01 00:00:00.088
28282.0;28285.0;-1.0;-1.0;-1.0;-1.0;-1.0;100.0;0.0;0.0;0.0;0.0;0.0;0.0;0.0;0.0;0.0;0.0;0.0;0.0;0.0;0.0;244.8;67.4;16.1081;198.234;41.3269;0.0;3.0;1.0;0.5675479999999999;-0.375994;-1.37676;0.683806;-0.347644;-1.46004;0.0;0.0;0.0;0.0;0.0;0.0;0.0;0.0;0.0;0.0;0.0;0.0;0.0;0.0;0.0;0.0;200.0;228.0;1024.0;1024.0;1024.0;228.0;1024.0;1024.0;1024.0;1.0;4.0;0.0;1900.0;50.0;35.0;0.0;0.0;0.0;0.0;0.0;0.0;0.0;;1970-01-01 00:00:00.099
28283.0;28286.0;-1.0;-1.0;-1.0;-1.0;-1.0;100.0;0.0;0.0;0.0;0.0;0.0;0.0;0.0;0.0;0.0;0.0;0.0;0.0;0.0;0.0;263.0;76.0;16.4327;210.765;48.3459;0.0;4.0;1.0;0.501049;-0.38950999999999997;-1.33395;0.628979;-0.36020399999999997;-1.42221;0.0;0.0;0.0;0.0;0.0;0.0;0.0;0.0;0.0;0.0;0.0;0.0;0.0;0.0;0.0;0.0;200.0;228.0;1024.0;1024.0;1024.0;228.0;1024.0;1024.0;1024.0;1.0;4.0;0.0;1900.0;50.0;35.0;0.0;0.0;0.0;0.0;0.0;0.0;0.0;;1970-01-01 00:00:00.110
28284.0;28287.0;-1.0;-1.0;-1.0;-1.0;-1.0;100.0;0.0;0.0;0.0;0.0;0.0;0.0;0.0;0.0;0.0;0.0;0.0;0.0;0.0;0.0;274.57099999999997;82.0;16.4618;225.266;56.0333;0.0;5.0;1.0;0.46507299999999996;-0.403406;-1.32071;0.579807;-0.373165;-1.39176;0.0;0.0;0.0;0.0;0.0;0.0;0.0;0.0;0.0;0.0;0.0;0.0;0.0;0.0;0.0;0.0;200.0;228.0;1024.0;1024.0;1024.0;228.0;1024.0;1024.0;1024.0;1.0;4.0;0.0;1900.0;50.0;35.0;0.0;0.0;0.0;0.0;0.0;0.0;0.0;;1970-01-01 00:00:00.121
28284.0;28287.0;-1.0;-1.0;-1.0;-1.0;-1.0;100.0;0.0;0.0;0.0;0.0;0.0;0.0;0.0;0.0;0.0;0.0;0.0;0.0;0.0;0.0;274.57099999999997;82.0;16.4618;225.266;56.0333;0.0;5.0;1.0;0.46507299999999996;-0.403406;-1.32071;0.579807;-0.373165;-1.39176;0.0;0.0;0.0;0.0;0.0;0.0;0.0;0.0;0.0;0.0;0.0;0.0;0.0;0.0;0.0;0.0;200.0;228.0;1024.0;1024.0;1024.0;228.0;1024.0;1024.0;1024.0;1.0;4.0;0.0;1900.0;50.0;35.0;0.0;0.0;0.0;0.0;0.0;0.0;0.0;;1970-01-01 00:00:00.132
28285.0;28288.0;-1.0;-1.0;-1.0;-1.0;-1.0;100.0;0.0;0.0;0.0;0.0;0.0;0.0;0.0;0.0;0.0;0.0;0.0;0.0;0.0;0.0;289.0;87.0;16.5167;239.352;63.463;0.0;6.0;1.0;0.41991999999999996;-0.414181;-1.30729;0.531841;-0.385469;-1.36642;-2.39886;-0.6254029999999999;1.6026;-8.218069999999999;-2.14252;5.49022;0.0;0.0;0.0;0.0;0.0;0.0;0.0;0.0;0.0;0.0;200.0;228.0;1024.0;1024.0;1024.0;228.0;1024.0;1024.0;1024.0;1.0;4.0;0.0;1900.0;50.0;35.0;0.0;0.0;0.0;0.0;0.0;0.0;0.0;;1970-01-01 00:00:00.143
28286.0;28289.0;-1.0;-1.0;-1.0;-1.0;-1.0;100.0;0.0;0.0;0.0;0.0;0.0;0.0;0.0;0.0;0.0;0.0;0.0;0.0;0.0;0.0;312.0;96.0;16.6069;253.877;70.3902;0.0;7.0;1.0;0.348502;-0.433618;-1.28401;0.476839;-0.399914;-1.3417;-2.6926900000000002;-0.698405;1.73105;-15.700999999999999;-4.0789599999999995;10.2179;0.0;0.0;0.0;0.0;0.0;0.0;0.0;0.0;0.0;0.0;200.0;228.0;1024.0;1024.0;1024.0;228.0;1024.0;1024.0;1024.0;1.0;4.0;0.0;1900.0;50.0;35.0;0.0;0.0;0.0;0.0;0.0;0.0;0.0;;1970-01-01 00:00:00.154
28286.0;28289.0;-1.0;-1.0;-1.0;-1.0;-1.0;100.0;0.0;0.0;0.0;0.0;0.0;0.0;0.0;0.0;0.0;0.0;0.0;0.0;0.0;0.0;312.0;96.0;16.6069;253.877;70.3902;0.0;7.0;1.0;0.348502;-0.433618;-1.28401;0.476839;-0.399914;-1.3417;-2.6926900000000002;-0.698405;1.73105;-15.700999999999999;-4.0789599999999995;10.2179;0.0;0.0;0.0;0.0;0.0;0.0;0.0;0.0;0.0;0.0;200.0;228.0;1024.0;1024.0;1024.0;228.0;1024.0;1024.0;1024.0;1.0;4.0;0.0;1900.0;50.0;35.0;0.0;0.0;0.0;0.0;0.0;0.0;0.0;;1970-01-01 00:00:00.165
28287.0;28290.0;-1.0;-1.0;-1.0;-1.0;-1.0;100.0;0.0;0.0;0.0;0.0;0.0;0.0;0.0;0.0;0.0;0.0;0.0;0.0;0.0;0.0;323.556;98.6667;16.9953;271.163;78.0742;0.0;8.0;1.0;0.306595;-0.42998500000000006;-1.2499799999999999;0.425766;-0.408935;-1.31418;-2.8455;-0.712431;1.76387;-20.788;-5.29345;13.1772;0.0;0.0;0.0;0.0;0.0;0.0;0.0;0.0;0.0;0.0;200.0;228.0;1024.0;1024.0;1024.0;228.0;1024.0;1024.0;1024.0;1.0;4.0;0.0;1900.0;50.0;35.0;0.0;0.0;0.0;0.0;0.0;0.0;0.0;;1970-01-01 00:00:00.176
28288.0;28291.0;-1.0;-1.0;-1.0;-1.0;-1.0;100.0;0.0;0.0;0.0;0.0;0.0;0.0;0.0;0.0;0.0;0.0;0.0;0.0;0.0;0.0;344.0;105.0;17.2187;287.221;84.5018;0.0;9.0;1.0;0.243346;-0.43912799999999996;-1.22279;0.37104000000000004;-0.417993;-1.28677;-2.95715;-0.70858;1.75072;-24.2898;-6.007630000000001;14.9024;0.0;0.0;0.0;0.0;0.0;0.0;0.0;0.0;0.0;0.0;200.0;228.0;1024.0;1024.0;1024.0;228.0;1024.0;1024.0;1024.0;1.0;4.0;0.0;1900.0;50.0;35.0;0.0;0.0;0.0;0.0;0.0;0.0;0.0;;1970-01-01 00:00:00.187
28289.0;28292.0;-1.0;-1.0;-1.0;-1.0;-1.0;100.0;0.0;0.0;0.0;0.0;0.0;0.0;0.0;0.0;0.0;0.0;0.0;0.0;0.0;0.0;355.0;108.0;17.0816;304.959;91.0655;0.0;10.0;1.0;0.213152;-0.449679;-1.22736;0.32367399999999996;-0.42749899999999996;-1.26895;-2.99395;-0.693983;1.6627;-26.5344;-6.3769599999999995;15.5837;0.0;0.0;0.0;0.0;0.0;0.0;0.0;0.0;0.0;0.0;200.0;228.0;1024.0;1024.0;1024.0;228.0;1024.0;1024.0;1024.0;1.0;4.0;0.0;1900.0;50.0;35.0;0.0;0.0;0.0;0.0;0.0;0.0;0.0;;1970-01-01 00:00:00.198
28289.0;28292.0;-1.0;-1.0;-1.0;-1.0;-1.0;100.0;0.0;0.0;0.0;0.0;0.0;0.0;0.0;0.0;0.0;0.0;0.0;0.0;0.0;0.0;355.0;108.0;17.0816;304.959;91.0655;0.0;10.0;1.0;0.213152;-0.449679;-1.22736;0.32367399999999996;-0.42749899999999996;-1.26895;-2.99395;-0.693983;1.6627;-26.5344;-6.3769599999999995;15.5837;0.0;0.0;0.0;0.0;0.0;0.0;0.0;0.0;0.0;0.0;200.0;228.0;1024.0;1024.0;1024.0;228.0;1024.0;1024.0;1024.0;1.0;4.0;0.0;1900.0;50.0;35.0;0.0;0.0;0.0;0.0;0.0;0.0;0.0;;1970-01-01 00:00:00.209
28290.0;28293.0;-1.0;-1.0;-1.0;-1.0;-1.0;100.0;0.0;0.0;0.0;0.0;0.0;0.0;0.0;0.0;0.0;0.0;0.0;0.0;0.0;0.0;376.667;111.833;17.5191;321.186;96.7528;0.0;11.0;1.0;0.146092;-0.44720600000000005;-1.19018;0.270399;-0.433411;-1.24532;-3.03242;-0.657067;1.58263;-28.0348;-6.45108;15.6727;0.0;0.0;0.0;0.0;0.0;0.0;0.0;0.0;0.0;0.0;200.0;228.0;1024.0;1024.0;1024.0;228.0;1024.0;1024.0;1024.0;1.0;4.0;0.0;1900.0;50.0;35.0;0.0;0.0;0.0;0.0;0.0;0.0;0.0;;1970-01-01 00:00:00.220
28291.0;28294.0;-1.0;-1.0;-1.0;-1.0;-1.0;100.0;0.0;0.0;0.0;0.0;0.0;0.0;0.0;0.0;0.0;0.0;0.0;0.0;0.0;0.0;403.0;116.0;18.4165;339.45099999999996;102.04799999999999;0.0;12.0;1.0;0.0675938;-0.434468;-1.12544;0.20955700000000002;-0.43372799999999995;-1.20935;-3.1069299999999997;-0.587028;1.57703;-19.6495;-3.71734;9.30147;0.0;0.0;0.0;0.0;0.0;0.0;0.0;0.0;0.0;0.0;200.0;228.0;1024.0;1024.0;1024.0;228.0;1024.0;1024.0;1024.0;1.0;4.0;0.0;1900.0;50.0;35.0;0.0;0.0;0.0;0.0;0.0;0.0;0.0;;1970-01-01 00:00:00.231
28291.0;28294.0;-1.0;-1.0;-1.0;-1.0;-1.0;100.0;0.0;0.0;0.0;0.0;0.0;0.0;0.0;0.0;0.0;0.0;0.0;0.0;0.0;0.0;403.0;116.0;18.4165;339.45099999999996;102.04799999999999;0.0;12.0;1.0;0.0675938;-0.434468;-1.12544;0.20955700000000002;-0.43372799999999995;-1.20935;-3.1069299999999997;-0.587028;1.57703;-19.6495;-3.71734;9.30147;0.0;0.0;0.0;0.0;0.0;0.0;0.0;0.0;0.0;0.0;200.0;228.0;1024.0;1024.0;1024.0;228.0;1024.0;1024.0;1024.0;1.0;4.0;0.0;1900.0;50.0;35.0;0.0;0.0;0.0;0.0;0.0;0.0;0.0;;1970-01-01 00:00:00.242
28292.0;28295.0;-1.0;-1.0;-1.0;-1.0;-1.0;100.0;0.0;0.0;0.0;0.0;0.0;0.0;0.0;0.0;0.0;0.0;0.0;0.0;0.0;0.0;409.6;117.2;17.7725;360.583;107.139;0.0;13.0;1.0;0.0515049;-0.452913;-1.1642;0.162142;-0.439483;-1.19581;-3.12134;-0.510292;1.52903;-13.5021;-1.47892;4.77382;0.0;0.0;0.0;0.0;0.0;0.0;0.0;0.0;0.0;0.0;200.0;228.0;1024.0;1024.0;1024.0;228.0;1024.0;1024.0;1024.0;1.0;4.0;0.0;1900.0;50.0;35.0;0.0;0.0;0.0;0.0;0.0;0.0;0.0;;1970-01-01 00:00:00.253
28293.0;28296.0;-1.0;-1.0;-1.0;-1.0;-1.0;100.0;0.0;0.0;0.0;0.0;0.0;0.0;0.0;0.0;0.0;0.0;0.0;0.0;0.0;0.0;433.81800000000004;119.63600000000001;17.9095;378.017;111.213;0.0;14.0;1.0;-0.016393;-0.45489300000000005;-1.15124;0.108581;-0.44410600000000006;-1.18244;-3.13992;-0.446679;1.4437200000000001;-9.27742;0.174295;1.58533;0.0;0.0;0.0;0.0;0.0;0.0;0.0;0.0;0.0;0.0;200.0;228.0;1024.0;1024.0;1024.0;228.0;1024.0;1024.0;1024.0;1.0;4.0;0.0;1900.0;50.0;35.0;0.0;0.0;0.0;0.0;0.0;0.0;0.0;;1970-01-01 00:00:00.264
28293.0;28296.0;-1.0;-1.0;-1.0;-1.0;-1.0;100.0;0.0;0.0;0.0;0.0;0.0;0.0;0.0;0.0;0.0;0.0;0.0;0.0;0.0;0.0;433.81800000000004;119.63600000000001;17.9095;378.017;111.213;0.0;14.0;1.0;-0.016393;-0.45489300000000005;-1.15124;0.108581;-0.44410600000000006;-1.18244;-3.13992;-0.446679;1.4437200000000001;-9.27742;0.174295;1.58533;0.0;0.0;0.0;0.0;0.0;0.0;0.0;0.0;0.0;0.0;200.0;228.0;1024.0;1024.0;1024.0;228.0;1024.0;1024.0;1024.0;1.0;4.0;0.0;1900.0;50.0;35.0;0.0;0.0;0.0;0.0;0.0;0.0;0.0;;1970-01-01 00:00:00.275
28294.0;28297.0;-1.0;-1.0;-1.0;-1.0;-1.0;100.0;0.0;0.0;0.0;0.0;0.0;0.0;0.0;0.0;0.0;0.0;0.0;0.0;0.0;0.0;460.4;121.2;18.3604;397.93199999999996;114.88600000000001;0.0;15.0;1.0;-0.0882633;-0.44713;-1.12043;0.0495279;-0.445013;-1.16383;-3.16835;-0.37595100000000004;1.35733;-6.41019;1.43339;-0.6203609999999999;0.0;0.0;0.0;0.0;0.0;0.0;0.0;0.0;0.0;0.0;200.0;228.0;1024.0;1024.0;1024.0;228.0;1024.0;1024.0;1024.0;1.0;4.0;0.0;1900.0;50.0;35.0;0.0;0.0;0.0;0.0;0.0;0.0;0.0;;1970-01-01 00:00:00.286
28295.0;28298.0;-1.0;-1.0;-1.0;-1.0;-1.0;100.0;0.0;0.0;0.0;0.0;0.0;0.0;0.0;0.0;0.0;0.0;0.0;0.0;0.0;0.0;468.0;123.0;18.4366;420.45300000000003;118.022;0.0;16.0;1.0;-0.108476;-0.44918800000000003;-1.1128799999999999;0.00212667;-0.446266;-1.14855;-3.18555;-0.30054200000000003;1.29538;-4.61156;2.4317900000000003;-1.8396299999999999;0.0;0.0;0.0;0.0;0.0;0.0;0.0;0.0;0.0;0.0;200.0;228.0;1024.0;1024.0;1024.0;228.0;1024.0;1024.0;1024.0;1.0;4.0;0.0;1900.0;50.0;35.0;0.0;0.0;0.0;0.0;0.0;0.0;0.0;;1970-01-01 00:00:00.297
28295.0;28298.0;-1.0;-1.0;-1.0;-1.0;-1.0;100.0;0.0;0.0;0.0;0.0;0.0;0.0;0.0;0.0;0.0;0.0;0.0;0.0;0.0;0.0;468.0;123.0;18.4366;420.45300000000003;118.022;0.0;16.0;1.0;-0.108476;-0.44918800000000003;-1.1128799999999999;0.00212667;-0.446266;-1.14855;-3.18555;-0.30054200000000003;1.29538;-4.61156;2.4317900000000003;-1.8396299999999999;0.0;0.0;0.0;0.0;0.0;0.0;0.0;0.0;0.0;0.0;200.0;228.0;1024.0;1024.0;1024.0;228.0;1024.0;1024.0;1024.0;1.0;4.0;0.0;1900.0;50.0;35.0;0.0;0.0;0.0;0.0;0.0;0.0;0.0;;1970-01-01 00:00:00.308
28296.0;28299.0;-1.0;-1.0;-1.0;-1.0;-1.0;100.0;0.0;0.0;0.0;0.0;0.0;0.0;0.0;0.0;0.0;0.0;0.0;0.0;0.0;0.0;490.0;124.0;18.4207;439.095;120.81200000000001;0.0;17.0;1.0;-0.168189;-0.451748;-1.11222;-0.0489681;-0.44791000000000003;-1.13765;-3.18717;-0.23824800000000002;1.20735;-3.3851400000000003;3.1322;-2.60301;0.0;0.0;0.0;0.0;0.0;0.0;0.0;0.0;0.0;0.0;200.0;228.0;1024.0;1024.0;1024.0;228.0;1024.0;1024.0;1024.0;1.0;4.0;0.0;1900.0;50.0;35.0;0.0;0.0;0.0;0.0;0.0;0.0;0.0;;1970-01-01 00:00:00.319
28297.0;28300.0;-1.0;-1.0;-1.0;-1.0;-1.0;100.0;0.0;0.0;0.0;0.0;0.0;0.0;0.0;0.0;0.0;0.0;0.0;0.0;0.0;0.0;515.0;125.0;19.0;459.30699999999996;123.12200000000001;0.0;18.0;1.0;-0.22874499999999998;-0.44008;-1.07674;-0.10290099999999999;-0.445561;-1.1193799999999998;-3.16053;-0.190222;1.08386;-2.24522;3.46452;-3.5319800000000003;0.0;0.0;0.0;0.0;0.0;0.0;0.0;0.0;0.0;0.0;200.0;228.0;1024.0;1024.0;1024.0;228.0;1024.0;1024.0;1024.0;1.0;4.0;0.0;1900.0;50.0;35.0;0.0;0.0;0.0;0.0;0.0;0.0;0.0;;1970-01-01 00:00:00.330
28297.0;28300.0;-1.0;-1.0;-1.0;-1.0;-1.0;100.0;0.0;0.0;0.0;0.0;0.0;0.0;0.0;0.0;0.0;0.0;0.0;0.0;0.0;0.0;515.0;125.0;19.0;459.30699999999996;123.12200000000001;0.0;18.0;1.0;-0.22874499999999998;-0.44008;-1.07674;-0.10290099999999999;-0.445561;-1.1193799999999998;-3.16053;-0.190222;1.08386;-2.24522;3.46452;-3.5319800000000003;0.0;0.0;0.0;0.0;0.0;0.0;0.0;0.0;0.0;0.0;200.0;228.0;1024.0;1024.0;1024.0;228.0;1024.0;1024.0;1024.0;1.0;4.0;0.0;1900.0;50.0;35.0;0.0;0.0;0.0;0.0;0.0;0.0;0.0;;1970-01-01 00:00:00.341
28298.0;28301.0;-1.0;-1.0;-1.0;-1.0;-1.0;100.0;0.0;0.0;0.0;0.0;0.0;0.0;0.0;0.0;0.0;0.0;0.0;0.0;0.0;0.0;541.3330000000001;125.333;19.0;481.51;125.05799999999999;0.0;19.0;1.0;-0.29793200000000003;-0.440783;-1.07621;-0.16141;-0.44412799999999997;-1.10643;-3.18887;-0.132686;1.00738;-1.6169200000000001;3.5872;-4.20311;0.0;0.0;0.0;0.0;0.0;0.0;0.0;0.0;0.0;0.0;200.0;228.0;1024.0;1024.0;1024.0;228.0;1024.0;1024.0;1024.0;1.0;4.0;0.0;1900.0;50.0;35.0;0.0;0.0;0.0;0.0;0.0;0.0;0.0;;1970-01-01 00:00:00.352
28299.0;28302.0;-1.0;-1.0;-1.0;-1.0;-1.0;100.0;0.0;0.0;0.0;0.0;0.0;0.0;0.0;0.0;0.0;0.0;0.0;0.0;0.0;0.0;541.3330000000001;125.333;19.0;505.596;126.522;1.0;0.0;1.0;-0.29793200000000003;-0.440783;-1.07621;-0.16141;-0.44412799999999997;-1.10643;-3.18887;-0.132686;1.00738;-1.6169200000000001;3.5872;-4.20311;0.0;0.0;0.0;0.0;0.0;0.0;0.0;0.0;0.0;0.0;200.0;228.0;1024.0;1024.0;1024.0;228.0;1024.0;1024.0;1024.0;1.0;4.0;0.0;1900.0;50.0;35.0;0.0;0.0;0.0;0.0;0.0;0.0;0.0;;1970-01-01 00:00:00.363
28300.0;28303.0;-1.0;-1.0;-1.0;-1.0;-1.0;100.0;0.0;0.0;0.0;0.0;0.0;0.0;0.0;0.0;0.0;0.0;0.0;0.0;0.0;0.0;588.533;126.93299999999999;18.2689;512.052;127.91799999999999;0.0;1.0;1.0;-0.438827;-0.461926;-1.11667;-0.244635;-0.449467;-1.1095;-3.1237;-0.0979816;0.854366;-0.9145780000000001;3.34721;-4.54142;0.0;0.0;0.0;0.0;0.0;0.0;0.0;0.0;0.0;0.0;200.0;228.0;1024.0;1024.0;1024.0;228.0;1024.0;1024.0;1024.0;1.0;4.0;0.0;1900.0;50.0;35.0;0.0;0.0;0.0;0.0;0.0;0.0;0.0;;1970-01-01 00:00:00.374
28300.0;28303.0;-1.0;-1.0;-1.0;-1.0;-1.0;100.0;0.0;0.0;0.0;0.0;0.0;0.0;0.0;0.0;0.0;0.0;0.0;0.0;0.0;0.0;588.533;126.93299999999999;18.2689;512.052;127.91799999999999;0.0;1.0;1.0;-0.438827;-0.461926;-1.11667;-0.244635;-0.449467;-1.1095;-3.1237;-0.0979816;0.854366;-0.9145780000000001;3.34721;-4.54142;0.0;0.0;0.0;0.0;0.0;0.0;0.0;0.0;0.0;0.0;200.0;228.0;1024.0;1024.0;1024.0;228.0;1024.0;1024.0;1024.0;1.0;4.0;0.0;1900.0;50.0;35.0;0.0;0.0;0.0;0.0;0.0;0.0;0.0;;1970-01-01 00:00:00.385
28301.0;28304.0;-1.0;-1.0;-1.0;-1.0;-1.0;100.0;0.0;0.0;0.0;0.0;0.0;0.0;0.0;0.0;0.0;0.0;0.0;0.0;0.0;0.0;600.0;123.5;18.0796;542.045;129.0;0.0;2.0;1.0;-0.475084;-0.459164;-1.1340299999999999;-0.31377;-0.452376;-1.11686;-3.11881;-0.0840127;0.673551;-0.379039;3.00845;-5.0673699999999995;0.0;0.0;0.0;0.0;0.0;0.0;0.0;0.0;0.0;0.0;200.0;228.0;1024.0;1024.0;1024.0;228.0;1024.0;1024.0;1024.0;1.0;4.0;0.0;1900.0;50.0;35.0;0.0;0.0;0.0;0.0;0.0;0.0;0.0;;1970-01-01 00:00:00.396
28302.0;28305.0;-1.0;-1.0;-1.0;-1.0;-1.0;100.0;0.0;0.0;0.0;0.0;0.0;0.0;0.0;0.0;0.0;0.0;0.0;0.0;0.0;0.0;633.0;120.4;18.3262;567.2819999999999;128.683;0.0;3.0;1.0;-0.558581;-0.44621700000000003;-1.12382;-0.38721300000000003;-0.450528;-1.11895;-3.2051;-0.06501069999999999;0.5055390000000001;-0.294385;2.61196;-5.7462599999999995;0.0;0.0;0.0;0.0;0.0;0.0;0.0;0.0;0.0;0.0;200.0;228.0;1024.0;1024.0;1024.0;228.0;1024.0;1024.0;1024.0;1.0;4.0;0.0;1900.0;50.0;35.0;0.0;0.0;0.0;0.0;0.0;0.0;0.0;;1970-01-01 00:00:00.407
28302.0;28305.0;-1.0;-1.0;-1.0;-1.0;-1.0;100.0;0.0;0.0;0.0;0.0;0.0;0.0;0.0;0.0;0.0;0.0;0.0;0.0;0.0;0.0;633.0;120.4;18.3262;567.2819999999999;128.683;0.0;3.0;1.0;-0.558581;-0.44621700000000003;-1.12382;-0.38721300000000003;-0.450528;-1.11895;-3.2051;-0.06501069999999999;0.5055390000000001;-0.294385;2.61196;-5.7462599999999995;0.0;0.0;0.0;0.0;0.0;0.0;0.0;0.0;0.0;0.0;200.0;228.0;1024.0;1024.0;1024.0;228.0;1024.0;1024.0;1024.0;1.0;4.0;0.0;1900.0;50.0;35.0;0.0;0.0;0.0;0.0;0.0;0.0;0.0;;1970-01-01 00:00:00.418
28303.0;28306.0;-1.0;-1.0;-1.0;-1.0;-1.0;100.0;0.0;0.0;0.0;0.0;0.0;0.0;0.0;0.0;0.0;0.0;0.0;0.0;0.0;0.0;668.0;117.0;18.442;595.582;127.425;0.0;4.0;1.0;-0.649813;-0.436037;-1.12226;-0.46599300000000005;-0.44618100000000005;-1.11994;-3.3517099999999997;-0.03308130000000001;0.363989;-0.740345;2.2700400000000003;-6.33695;0.0;0.0;0.0;0.0;0.0;0.0;0.0;0.0;0.0;0.0;200.0;228.0;1024.0;1024.0;1024.0;228.0;1024.0;1024.0;1024.0;1.0;4.0;0.0;1900.0;50.0;35.0;0.0;0.0;0.0;0.0;0.0;0.0;0.0;;1970-01-01 00:00:00.429
28304.0;28307.0;-1.0;-1.0;-1.0;-1.0;-1.0;100.0;0.0;0.0;0.0;0.0;0.0;0.0;0.0;0.0;0.0;0.0;0.0;0.0;0.0;0.0;690.9;114.6;18.4545;626.826;125.406;0.0;5.0;1.0;-0.711318;-0.430537;-1.1253799999999998;-0.53959;-0.441488;-1.1215700000000002;-3.5074400000000003;-0.00588943;0.21086300000000002;-1.63296;1.99368;-6.79368;0.0;0.0;0.0;0.0;0.0;0.0;0.0;0.0;0.0;0.0;200.0;228.0;1024.0;1024.0;1024.0;228.0;1024.0;1024.0;1024.0;1.0;4.0;0.0;1900.0;50.0;35.0;0.0;0.0;0.0;0.0;0.0;0.0;0.0;;1970-01-01 00:00:00.440
28304.0;28307.0;-1.0;-1.0;-1.0;-1.0;-1.0;100.0;0.0;0.0;0.0;0.0;0.0;0.0;0.0;0.0;0.0;0.0;0.0;0.0;0.0;0.0;690.9;114.6;18.4545;626.826;125.406;0.0;5.0;1.0;-0.711318;-0.430537;-1.1253799999999998;-0.53959;-0.441488;-1.1215700000000002;-3.5074400000000003;-0.00588943;0.21086300000000002;-1.63296;1.99368;-6.79368;0.0;0.0;0.0;0.0;0.0;0.0;0.0;0.0;0.0;0.0;200.0;228.0;1024.0;1024.0;1024.0;228.0;1024.0;1024.0;1024.0;1.0;4.0;0.0;1900.0;50.0;35.0;0.0;0.0;0.0;0.0;0.0;0.0;0.0;;1970-01-01 00:00:00.451
28305.0;28308.0;-1.0;-1.0;-1.0;-1.0;-1.0;100.0;0.0;0.0;0.0;0.0;0.0;0.0;0.0;0.0;0.0;0.0;0.0;0.0;0.0;0.0;708.0;112.0;18.4699;656.326;123.13;0.0;6.0;1.0;-0.756941;-0.424545;-1.12865;-0.604796;-0.43640500000000004;-1.1236899999999999;-3.62382;0.0229303;0.0673472;-2.47022;1.7294599999999998;-7.29743;0.0;0.0;0.0;0.0;0.0;0.0;0.0;0.0;0.0;0.0;200.0;228.0;1024.0;1024.0;1024.0;228.0;1024.0;1024.0;1024.0;1.0;4.0;0.0;1900.0;50.0;35.0;0.0;0.0;0.0;0.0;0.0;0.0;0.0;;1970-01-01 00:00:00.462
28306.0;28309.0;-1.0;-1.0;-1.0;-1.0;-1.0;100.0;0.0;0.0;0.0;0.0;0.0;0.0;0.0;0.0;0.0;0.0;0.0;0.0;0.0;0.0;745.6;107.4;18.480999999999998;682.8380000000001;120.624;0.0;7.0;1.0;-0.858051;-0.41433100000000006;-1.1354;-0.680772;-0.42978299999999997;-1.12721;-3.91661;0.0923952;-0.030327999999999997;-4.64971;1.7982099999999999;-7.912710000000001;0.0;0.0;0.0;0.0;0.0;0.0;0.0;0.0;0.0;0.0;200.0;228.0;1024.0;1024.0;1024.0;228.0;1024.0;1024.0;1024.0;1.0;4.0;0.0;1900.0;50.0;35.0;0.0;0.0;0.0;0.0;0.0;0.0;0.0;;1970-01-01 00:00:00.473
28306.0;28309.0;-1.0;-1.0;-1.0;-1.0;-1.0;100.0;0.0;0.0;0.0;0.0;0.0;0.0;0.0;0.0;0.0;0.0;0.0;0.0;0.0;0.0;745.6;107.4;18.480999999999998;682.8380000000001;120.624;0.0;7.0;1.0;-0.858051;-0.41433100000000006;-1.1354;-0.680772;-0.42978299999999997;-1.12721;-3.91661;0.0923952;-0.030327999999999997;-4.64971;1.7982099999999999;-7.912710000000001;0.0;0.0;0.0;0.0;0.0;0.0;0.0;0.0;0.0;0.0;200.0;228.0;1024.0;1024.0;1024.0;228.0;1024.0;1024.0;1024.0;1.0;4.0;0.0;1900.0;50.0;35.0;0.0;0.0;0.0;0.0;0.0;0.0;0.0;;1970-01-01 00:00:00.484
28307.0;28310.0;-1.0;-1.0;-1.0;-1.0;-1.0;100.0;0.0;0.0;0.0;0.0;0.0;0.0;0.0;0.0;0.0;0.0;0.0;0.0;0.0;0.0;777.7389999999999;105.13;18.4894;713.4060000000001;117.31200000000001;0.0;8.0;1.0;-0.9444319999999999;-0.409229;-1.1385399999999999;-0.7598699999999999;-0.423617;-1.1306100000000001;-4.13208;0.170329;-0.073121;-6.83771;2.09499;-7.73049;0.0;0.0;0.0;0.0;0.0;0.0;0.0;0.0;0.0;0.0;200.0;228.0;1024.0;1024.0;1024.0;228.0;1024.0;1024.0;1024.0;1.0;4.0;0.0;1900.0;50.0;35.0;0.0;0.0;0.0;0.0;0.0;0.0;0.0;;1970-01-01 00:00:00.495
28308.0;28311.0;-1.0;-1.0;-1.0;-1.0;-1.0;100.0;0.0;0.0;0.0;0.0;0.0;0.0;0.0;0.0;0.0;0.0;0.0;0.0;0.0;0.0;795.818;100.727;18.4888;745.362;114.162;0.0;9.0;1.0;-0.9932770000000001;-0.399713;-1.1456899999999999;-0.829892;-0.41644499999999995;-1.13513;-4.2477;0.23835399999999998;-0.10853;-8.26768;2.4689;-7.09143;0.0;0.0;0.0;0.0;0.0;0.0;0.0;0.0;0.0;0.0;200.0;228.0;1024.0;1024.0;1024.0;228.0;1024.0;1024.0;1024.0;1.0;4.0;0.0;1900.0;50.0;35.0;0.0;0.0;0.0;0.0;0.0;0.0;0.0;;1970-01-01 00:00:00.506
28308.0;28311.0;-1.0;-1.0;-1.0;-1.0;-1.0;100.0;0.0;0.0;0.0;0.0;0.0;0.0;0.0;0.0;0.0;0.0;0.0;0.0;0.0;0.0;795.818;100.727;18.4888;745.362;114.162;0.0;9.0;1.0;-0.9932770000000001;-0.399713;-1.1456899999999999;-0.829892;-0.41644499999999995;-1.13513;-4.2477;0.23835399999999998;-0.10853;-8.26768;2.4689;-7.09143;0.0;0.0;0.0;0.0;0.0;0.0;0.0;0.0;0.0;0.0;200.0;228.0;1024.0;1024.0;1024.0;228.0;1024.0;1024.0;1024.0;1.0;4.0;0.0;1900.0;50.0;35.0;0.0;0.0;0.0;0.0;0.0;0.0;0.0;;1970-01-01 00:00:00.517
28309.0;28312.0;-1.0;-1.0;-1.0;-1.0;-1.0;100.0;0.0;0.0;0.0;0.0;0.0;0.0;0.0;0.0;0.0;0.0;0.0;0.0;0.0;0.0;838.7860000000001;94.4286;18.4897;773.706;110.455;0.0;10.0;1.0;-1.10923;-0.386061;-1.1558;-0.913694;-0.40733;-1.14133;-4.33713;0.298217;-0.150569;-8.89723;2.80483;-6.31046;0.0;0.0;0.0;0.0;0.0;0.0;0.0;0.0;0.0;0.0;200.0;228.0;1024.0;1024.0;1024.0;228.0;1024.0;1024.0;1024.0;1.0;4.0;0.0;1900.0;50.0;35.0;0.0;0.0;0.0;0.0;0.0;0.0;0.0;;1970-01-01 00:00:00.528
