ID;RS_ID;time;imLx_drone; imLy_drone; disparity_drone; imLx_pred_drone; imLy_pred_drone; n_frames_lost_drone; n_frames_tracking_drone; foundL_drone; posX_drone; posY_drone; posZ_drone; sposX_drone; sposY_drone; sposZ_drone; svelX_drone; svelY_drone; svelZ_drone; saccX_drone; saccY_drone; saccZ_drone; imLx_insect; imLy_insect; disparity_insect; imLx_pred_insect; imLy_pred_insect; n_frames_lost_insect; n_frames_tracking_insect; foundL_insect; posX_insect; posY_insect; posZ_insect; sposX_insect; sposY_insect; sposZ_insect; svelX_insect; svelY_insect; svelZ_insect; saccX_insect; saccY_insect; saccZ_insect; valid; posErrX; posErrY; posErrZ; velX; velY; velZ; accX; accY; accZ; hoverthrottle; autoThrottle; autoRoll; autoPitch; autoYaw; joyThrottle; joyRoll; joyPitch; joyYaw; joyArmSwitch; joyModeSwitch; joyTakeoffSwitch; throttleP; throttleI; throttleD; dt; dx; dy; dz; velx_sp; vely_sp; velz_sp;
39040;39044;2019/05/25 18:11:31;-1; -1; -1; -1; -1; 100; 0; 0; 0; 0; 0;0; 0; 0;0; 0; 0;0; 0; 0;-1; -1; -1; -1; -1; 3610; 0; 0; 0; 0; 0;0; 0; 0;0; 0; 0;0; 0; 0;0; 0; 0; 0; 0; 0; 0; 0; 0; 0; 200; 228; 1024; 1024; 1024; 228; 1024; 1024; 1024; 1; 4; 0; 1900; 50; 35; 0; 0; 0; 0; 0; 0; 0; 
39041;39045;2019/05/25 18:11:31;-1; -1; -1; -1; -1; 100; 0; 0; 0; 0; 0;0; 0; 0;0; 0; 0;0; 0; 0;-1; -1; -1; -1; -1; 3611; 0; 0; 0; 0; 0;0; 0; 0;0; 0; 0;0; 0; 0;0; 0; 0; 0; 0; 0; 0; 0; 0; 0; 200; 228; 1024; 1024; 1024; 228; 1024; 1024; 1024; 1; 4; 0; 1900; 50; 35; 0; 0; 0; 0; 0; 0; 0; 
39042;39046;2019/05/25 18:11:31;-1; -1; -1; -1; -1; 100; 0; 0; 0; 0; 0;0; 0; 0;0; 0; 0;0; 0; 0;97; 239; 14.6431; -1; -1; 0; 1; 1; 1.1282; -0.882564; -1.16478;1.1282; -0.882564; -1.16478;0; 0; 0;0; 0; 0;0; 0; 0; 0; 0; 0; 0; 0; 0; 0; 200; 228; 1024; 1024; 1024; 228; 1024; 1024; 1024; 1; 4; 0; 1900; 50; 35; 0; 0; 0; 0; 0; 0; 0; 
39043;39047;2019/05/25 18:11:31;-1; -1; -1; -1; -1; 100; 0; 0; 0; 0; 0;0; 0; 0;0; 0; 0;0; 0; 0;97; 239; 14.6431; 97; 239; 1; 0; 1; 1.1282; -0.882564; -1.16478;1.1282; -0.882564; -1.16478;0; 0; 0;0; 0; 0;0; 0; 0; 0; 0; 0; 0; 0; 0; 0; 200; 228; 1024; 1024; 1024; 228; 1024; 1024; 1024; 1; 4; 0; 1900; 50; 35; 0; 0; 0; 0; 0; 0; 0; 
39044;39048;2019/05/25 18:11:31;-1; -1; -1; -1; -1; 100; 0; 0; 0; 0; 0;0; 0; 0;0; 0; 0;0; 0; 0;118; 254; 15.3026; 97; 239; 0; 1; 1; 1.01106; -0.88375; -1.08532;1.09306; -0.88292; -1.14094;0; 0; 0;0; 0; 0;0; 0; 0; 0; 0; 0; 0; 0; 0; 0; 200; 228; 1024; 1024; 1024; 228; 1024; 1024; 1024; 1; 4; 0; 1900; 50; 35; 0; 0; 0; 0; 0; 0; 0; 
39045;39049;2019/05/25 18:11:31;-1; -1; -1; -1; -1; 100; 0; 0; 0; 0; 0;0; 0; 0;0; 0; 0;0; 0; 0;118; 254; 15.3026; 100.375; 241.411; 1; 0; 1; 1.01106; -0.88375; -1.08532;1.09306; -0.88292; -1.14094;0; 0; 0;0; 0; 0;0; 0; 0; 0; 0; 0; 0; 0; 0; 0; 200; 228; 1024; 1024; 1024; 228; 1024; 1024; 1024; 1; 4; 0; 1900; 50; 35; 0; 0; 0; 0; 0; 0; 0; 
39046;39050;2019/05/25 18:11:31;-1; -1; -1; -1; -1; 100; 0; 0; 0; 0; 0;0; 0; 0;0; 0; 0;0; 0; 0;118; 254; 15.3026; 100.38; 241.415; 2; 0; 1; 1.01106; -0.88375; -1.08532;1.09306; -0.88292; -1.14094;0; 0; 0;0; 0; 0;0; 0; 0; 0; 0; 0; 0; 0; 0; 0; 200; 228; 1024; 1024; 1024; 228; 1024; 1024; 1024; 1; 4; 0; 1900; 50; 35; 0; 0; 0; 0; 0; 0; 0; 
39047;39051;2019/05/25 18:11:31;-1; -1; -1; -1; -1; 100; 0; 0; 0; 0; 0;0; 0; 0;0; 0; 0;0; 0; 0;118; 254; 15.3026; 100.385; 241.418; 3; 0; 1; 1.01106; -0.88375; -1.08532;1.09306; -0.88292; -1.14094;0; 0; 0;0; 0; 0;0; 0; 0; 0; 0; 0; 0; 0; 0; 0; 200; 228; 1024; 1024; 1024; 228; 1024; 1024; 1024; 1; 4; 0; 1900; 50; 35; 0; 0; 0; 0; 0; 0; 0; 
39048;39052;2019/05/25 18:11:31;-1; -1; -1; -1; -1; 100; 0; 0; 0; 0; 0;0; 0; 0;0; 0; 0;0; 0; 0;118; 254; 15.3026; 100.39; 241.422; 4; 0; 1; 1.01106; -0.88375; -1.08532;1.09306; -0.88292; -1.14094;0; 0; 0;0; 0; 0;0; 0; 0; 0; 0; 0; 0; 0; 0; 0; 200; 228; 1024; 1024; 1024; 228; 1024; 1024; 1024; 1; 4; 0; 1900; 50; 35; 0; 0; 0; 0; 0; 0; 0; 
39049;39053;2019/05/25 18:11:31;-1; -1; -1; -1; -1; 100; 0; 0; 0; 0; 0;0; 0; 0;0; 0; 0;0; 0; 0;118; 254; 15.3026; 100.395; 241.425; 5; 0; 1; 1.01106; -0.88375; -1.08532;1.09306; -0.88292; -1.14094;0; 0; 0;0; 0; 0;0; 0; 0; 0; 0; 0; 0; 0; 0; 0; 200; 228; 1024; 1024; 1024; 228; 1024; 1024; 1024; 1; 4; 0; 1900; 50; 35; 0; 0; 0; 0; 0; 0; 0; 
39050;39054;2019/05/25 18:11:31;-1; -1; -1; -1; -1; 100; 0; 0; 0; 0; 0;0; 0; 0;0; 0; 0;0; 0; 0;195.333; 291.333; 15.4728; 100.4; 241.429; 0; 1; 1; 0.750447; -0.970588; -1.00138;0.990274; -0.909221; -1.09907;0; 0; 0;0; 0; 0;0; 0; 0; 0; 0; 0; 0; 0; 0; 0; 200; 228; 1024; 1024; 1024; 228; 1024; 1024; 1024; 1; 4; 0; 1900; 50; 35; 0; 0; 0; 0; 0; 0; 0; 
39051;39055;2019/05/25 18:11:31;-1; -1; -1; -1; -1; 100; 0; 0; 0; 0; 0;0; 0; 0;0; 0; 0;0; 0; 0;195.333; 291.333; 15.4728; 126.757; 255.285; 1; 0; 1; 0.750447; -0.970588; -1.00138;0.990274; -0.909221; -1.09907;0; 0; 0;0; 0; 0;0; 0; 0; 0; 0; 0; 0; 0; 0; 0; 200; 228; 1024; 1024; 1024; 228; 1024; 1024; 1024; 1; 4; 0; 1900; 50; 35; 0; 0; 0; 0; 0; 0; 0; 
39052;39056;2019/05/25 18:11:31;-1; -1; -1; -1; -1; 100; 0; 0; 0; 0; 0;0; 0; 0;0; 0; 0;0; 0; 0;222; 301; 15.8921; 127.092; 255.462; 0; 1; 1; 0.646879; -0.969315; -0.9568;0.887255; -0.927249; -1.05639;0; 0; 0;0; 0; 0;0; 0; 0; 0; 0; 0; 0; 0; 0; 0; 200; 228; 1024; 1024; 1024; 228; 1024; 1024; 1024; 1; 4; 0; 1900; 50; 35; 0; 0; 0; 0; 0; 0; 0; 
39053;39057;2019/05/25 18:11:31;-1; -1; -1; -1; -1; 100; 0; 0; 0; 0; 0;0; 0; 0;0; 0; 0;0; 0; 0;237.6; 309.2; 16.443; 154.387; 268.575; 0; 2; 1; 0.577848; -0.956799; -0.909865;0.794433; -0.936114; -1.01243;0; 0; 0;0; 0; 0;0; 0; 0; 0; 0; 0; 0; 0; 0; 0; 200; 228; 1024; 1024; 1024; 228; 1024; 1024; 1024; 1; 4; 0; 1900; 50; 35; 0; 0; 0; 0; 0; 0; 0; 
39054;39058;2019/05/25 18:11:31;-1; -1; -1; -1; -1; 100; 0; 0; 0; 0; 0;0; 0; 0;0; 0; 0;0; 0; 0;254; 316; 16.4795; 179.023; 280.612; 0; 3; 1; 0.52689; -0.971194; -0.895537;0.71417; -0.946638; -0.977364;0; 0; 0;0; 0; 0;0; 0; 0; 0; 0; 0; 0; 0; 0; 0; 200; 228; 1024; 1024; 1024; 228; 1024; 1024; 1024; 1; 4; 0; 1900; 50; 35; 0; 0; 0; 0; 0; 0; 0; 
39055;39059;2019/05/25 18:11:31;-1; -1; -1; -1; -1; 100; 0; 0; 0; 0; 0;0; 0; 0;0; 0; 0;0; 0; 0;265; 322; 16.4856; 201.908; 291.443; 0; 4; 1; 0.493384; -0.985395; -0.88434;0.647934; -0.958265; -0.949457;0; 0; 0;0; 0; 0;0; 0; 0; 0; 0; 0; 0; 0; 0; 0; 200; 228; 1024; 1024; 1024; 228; 1024; 1024; 1024; 1; 4; 0; 1900; 50; 35; 0; 0; 0; 0; 0; 0; 0; 
39056;39060;2019/05/25 18:11:32;-1; -1; -1; -1; -1; 100; 0; 0; 0; 0; 0;0; 0; 0;0; 0; 0;0; 0; 0;265; 322; 16.4856; 221.958; 301.162; 1; 0; 1; 0.493384; -0.985395; -0.88434;0.647934; -0.958265; -0.949457;0; 0; 0;0; 0; 0;0; 0; 0; 0; 0; 0; 0; 0; 0; 0; 200; 228; 1024; 1024; 1024; 228; 1024; 1024; 1024; 1; 4; 0; 1900; 50; 35; 0; 0; 0; 0; 0; 0; 0; 
39057;39061;2019/05/25 18:11:32;-1; -1; -1; -1; -1; 100; 0; 0; 0; 0; 0;0; 0; 0;0; 0; 0;0; 0; 0;286; 328; 16.8951; 224.022; 302.171; 0; 1; 1; 0.419377; -0.975722; -0.852307;0.579367; -0.963502; -0.920312;-2.27629; -0.358083; 1.0027;-4.19868; -0.660493; 1.8495;0; 0; 0; 0; 0; 0; 0; 0; 0; 0; 200; 228; 1024; 1024; 1024; 228; 1024; 1024; 1024; 1; 4; 0; 1900; 50; 35; 0; 0; 0; 0; 0; 0; 0; 
39058;39062;2019/05/25 18:11:32;-1; -1; -1; -1; -1; 100; 0; 0; 0; 0; 0;0; 0; 0;0; 0; 0;0; 0; 0;305.429; 333.143; 17.059; 244.411; 310.818; 0; 2; 1; 0.358496; -0.978415; -0.835125;0.513106; -0.967976; -0.894756;-2.79501; -0.390837; 1.21359;-10.891; -1.56695; 4.74471;0; 0; 0; 0; 0; 0; 0; 0; 0; 0; 200; 228; 1024; 1024; 1024; 228; 1024; 1024; 1024; 1; 4; 0; 1900; 50; 35; 0; 0; 0; 0; 0; 0; 0; 
39059;39063;2019/05/25 18:11:32;-1; -1; -1; -1; -1; 100; 0; 0; 0; 0; 0;0; 0; 0;0; 0; 0;0; 0; 0;321; 338; 17.4539; 265.075; 318.656; 0; 3; 1; 0.305849; -0.967414; -0.807924;0.450929; -0.967807; -0.868706;-3.17178; -0.373448; 1.37113;-17.4005; -2.21954; 7.54406;0; 0; 0; 0; 0; 0; 0; 0; 0; 0; 200; 228; 1024; 1024; 1024; 228; 1024; 1024; 1024; 1; 4; 0; 1900; 50; 35; 0; 0; 0; 0; 0; 0; 0; 
39060;39064;2019/05/25 18:11:32;-1; -1; -1; -1; -1; 100; 0; 0; 0; 0; 0;0; 0; 0;0; 0; 0;0; 0; 0;329.667; 338.333; 16.8298; 284.81; 325.82; 0; 4; 1; 0.291484; -1.00408; -0.837293;0.403095; -0.978689; -0.859282;-3.24443; -0.37; 1.34762;-21.561; -2.59994; 9.14555;0; 0; 0; 0; 0; 0; 0; 0; 0; 0; 200; 228; 1024; 1024; 1024; 228; 1024; 1024; 1024; 1; 4; 0; 1900; 50; 35; 0; 0; 0; 0; 0; 0; 0; 
39061;39065;2019/05/25 18:11:32;-1; -1; -1; -1; -1; 100; 0; 0; 0; 0; 0;0; 0; 0;0; 0; 0;0; 0; 0;329.667; 338.333; 16.8298; 301.827; 331.145; 1; 0; 1; 0.291484; -1.00408; -0.837293;0.403095; -0.978689; -0.859282;-3.24443; -0.37; 1.34762;-21.561; -2.59994; 9.14555;0; 0; 0; 0; 0; 0; 0; 0; 0; 0; 200; 228; 1024; 1024; 1024; 228; 1024; 1024; 1024; 1; 4; 0; 1900; 50; 35; 0; 0; 0; 0; 0; 0; 0; 
39062;39066;2019/05/25 18:11:32;-1; -1; -1; -1; -1; 100; 0; 0; 0; 0; 0;0; 0; 0;0; 0; 0;0; 0; 0;371; 347; 17.8279; 305.724; 332.803; 0; 1; 1; 0.159428; -0.96732; -0.775909;0.329995; -0.975278; -0.83427;-3.09893; -0.307903; 1.23776;-22.2314; -2.48347; 9.19981;0; 0; 0; 0; 0; 0; 0; 0; 0; 0; 200; 228; 1024; 1024; 1024; 228; 1024; 1024; 1024; 1; 4; 0; 1900; 50; 35; 0; 0; 0; 0; 0; 0; 0; 
39063;39067;2019/05/25 18:11:32;-1; -1; -1; -1; -1; 100; 0; 0; 0; 0; 0;0; 0; 0;0; 0; 0;0; 0; 0;376.667; 345.333; 18.2154; 329.481; 338.79; 0; 2; 1; 0.140507; -0.943082; -0.762135;0.273149; -0.96562; -0.81263;-2.98194; -0.206771; 1.15249;-22.2705; -2.10941; 8.97186;0; 0; 0; 0; 0; 0; 0; 0; 0; 0; 200; 228; 1024; 1024; 1024; 228; 1024; 1024; 1024; 1; 4; 0; 1900; 50; 35; 0; 0; 0; 0; 0; 0; 0; 
39064;39068;2019/05/25 18:11:32;-1; -1; -1; -1; -1; 100; 0; 0; 0; 0; 0;0; 0; 0;0; 0; 0;0; 0; 0;393; 350; 17.5044; 348.403; 342.583; 0; 3; 1; 0.0996341; -0.992053; -0.785132;0.221094; -0.97355; -0.80438;-3.01654; -0.158483; 1.08865;-15.8982; -0.581857; 5.67759;0; 0; 0; 0; 0; 0; 0; 0; 0; 0; 200; 228; 1024; 1024; 1024; 228; 1024; 1024; 1024; 1; 4; 0; 1900; 50; 35; 0; 0; 0; 0; 0; 0; 0; 
39065;39069;2019/05/25 18:11:32;-1; -1; -1; -1; -1; 100; 0; 0; 0; 0; 0;0; 0; 0;0; 0; 0;0; 0; 0;417.833; 353.5; 18.4913; 367.125; 346.738; 0; 4; 1; 0.0272759; -0.94668; -0.73758;0.162949; -0.965489; -0.78434;-3.0095; -0.0865688; 1.03145;-10.2737; 0.693254; 2.78258;0; 0; 0; 0; 0; 0; 0; 0; 0; 0; 200; 228; 1024; 1024; 1024; 228; 1024; 1024; 1024; 1; 4; 0; 1900; 50; 35; 0; 0; 0; 0; 0; 0; 0; 
39066;39070;2019/05/25 18:11:32;-1; -1; -1; -1; -1; 100; 0; 0; 0; 0; 0;0; 0; 0;0; 0; 0;0; 0; 0;436.4; 356.8; 18.4824; 388.186; 350.757; 0; 5; 1; -0.0228582; -0.954285; -0.732609;0.107207; -0.962127; -0.768821;-2.98323; -0.032483; 0.961062;-5.5183; 1.58404; 0.26474;0; 0; 0; 0; 0; 0; 0; 0; 0; 0; 200; 228; 1024; 1024; 1024; 228; 1024; 1024; 1024; 1; 4; 0; 1900; 50; 35; 0; 0; 0; 0; 0; 0; 0; 
39067;39071;2019/05/25 18:11:32;-1; -1; -1; -1; -1; 100; 0; 0; 0; 0; 0;0; 0; 0;0; 0; 0;0; 0; 0;455.625; 357.375; 18.423; 409.121; 354.649; 0; 6; 1; -0.0750248; -0.958611; -0.734041;0.0525373; -0.961073; -0.758387;-2.98963; 0.0407987; 0.921926;-2.43902; 2.35628; -1.29797;0; 0; 0; 0; 0; 0; 0; 0; 0; 0; 200; 228; 1024; 1024; 1024; 228; 1024; 1024; 1024; 1; 4; 0; 1900; 50; 35; 0; 0; 0; 0; 0; 0; 0; 
39068;39072;2019/05/25 18:11:32;-1; -1; -1; -1; -1; 100; 0; 0; 0; 0; 0;0; 0; 0;0; 0; 0;0; 0; 0;469; 358; 18.4968; 430.085; 357.58; 0; 7; 1; -0.110822; -0.956138; -0.730103;0.00352942; -0.959592; -0.749902;-3.09758; 0.0871251; 0.890095;-1.45799; 2.99137; -2.16724;0; 0; 0; 0; 0; 0; 0; 0; 0; 0; 200; 228; 1024; 1024; 1024; 228; 1024; 1024; 1024; 1; 4; 0; 1900; 50; 35; 0; 0; 0; 0; 0; 0; 0; 
39069;39073;2019/05/25 18:11:32;-1; -1; -1; -1; -1; 100; 0; 0; 0; 0; 0;0; 0; 0;0; 0; 0;0; 0; 0;488.444; 361.111; 16.4747; 449.29; 359.837; 0; 8; 1; -0.183342; -1.08105; -0.814077;-0.0525321; -0.996029; -0.769154;-3.16; -0.0692417; 0.707789;-1.58635; 2.3444; -3.07739;0; 0; 0; 0; 0; 0; 0; 0; 0; 0; 200; 228; 1024; 1024; 1024; 228; 1024; 1024; 1024; 1; 4; 0; 1900; 50; 35; 0; 0; 0; 0; 0; 0; 0; 
39070;39074;2019/05/25 18:11:32;-1; -1; -1; -1; -1; 100; 0; 0; 0; 0; 0;0; 0; 0;0; 0; 0;0; 0; 0;512.5; 362.25; 17.6597; 469.025; 362.357; 0; 9; 1; -0.239039; -1.01109; -0.757528;-0.108484; -1.00055; -0.765666;-3.21222; -0.149362; 0.579285;-1.7333; 1.44307; -3.88067;0; 0; 0; 0; 0; 0; 0; 0; 0; 0; 200; 228; 1024; 1024; 1024; 228; 1024; 1024; 1024; 1; 4; 0; 1900; 50; 35; 0; 0; 0; 0; 0; 0; 0; 
39071;39075;2019/05/25 18:11:32;-1; -1; -1; -1; -1; 100; 0; 0; 0; 0; 0;0; 0; 0;0; 0; 0;0; 0; 0;533.25; 363.75; 18.0913; 490.628; 364.47; 0; 10; 1; -0.290592; -0.990286; -0.736982;-0.163117; -0.997469; -0.757061;-3.23032; -0.217412; 0.456582;-1.92242; 0.342978; -4.62565;0; 0; 0; 0; 0; 0; 0; 0; 0; 0; 200; 228; 1024; 1024; 1024; 228; 1024; 1024; 1024; 1; 4; 0; 1900; 50; 35; 0; 0; 0; 0; 0; 0; 0; 
39072;39076;2019/05/25 18:11:32;-1; -1; -1; -1; -1; 100; 0; 0; 0; 0; 0;0; 0; 0;0; 0; 0;0; 0; 0;556.75; 364.75; 19; 512.453; 366.374; 0; 11; 1; -0.338437; -0.94503; -0.700163;-0.215713; -0.981737; -0.739992;-3.22861; -0.208809; 0.389154;-2.13402; -0.498831; -5.06079;0; 0; 0; 0; 0; 0; 0; 0; 0; 0; 200; 228; 1024; 1024; 1024; 228; 1024; 1024; 1024; 1; 4; 0; 1900; 50; 35; 0; 0; 0; 0; 0; 0; 0; 
39073;39077;2019/05/25 18:11:32;-1; -1; -1; -1; -1; 100; 0; 0; 0; 0; 0;0; 0; 0;0; 0; 0;0; 0; 0;576.632; 367.895; 19; 535.446; 368.01; 0; 12; 1; -0.390673; -0.951653; -0.695224;-0.268201; -0.972712; -0.726561;-3.21809; -0.171769; 0.360593;-2.19277; -1.14822; -5.27825;0; 0; 0; 0; 0; 0; 0; 0; 0; 0; 200; 228; 1024; 1024; 1024; 228; 1024; 1024; 1024; 1; 4; 0; 1900; 50; 35; 0; 0; 0; 0; 0; 0; 0; 
39074;39078;2019/05/25 18:11:32;-1; -1; -1; -1; -1; 100; 0; 0; 0; 0; 0;0; 0; 0;0; 0; 0;0; 0; 0;603.913; 369.739; 19; 557.933; 370.074; 0; 13; 1; -0.462351; -0.955538; -0.692327;-0.326446; -0.96756; -0.716291;-3.24947; -0.134901; 0.350668;-1.92263; -1.57617; -5.32255;0; 0; 0; 0; 0; 0; 0; 0; 0; 0; 200; 228; 1024; 1024; 1024; 228; 1024; 1024; 1024; 1; 4; 0; 1900; 50; 35; 0; 0; 0; 0; 0; 0; 0; 
39075;39079;2019/05/25 18:11:32;-1; -1; -1; -1; -1; 100; 0; 0; 0; 0; 0;0; 0; 0;0; 0; 0;0; 0; 0;628.074; 369.111; 19; 582.572; 372.091; 0; 14; 1; -0.52583; -0.954215; -0.693313;-0.386261; -0.963556; -0.709398;-3.28248; 0.0487426; 0.449049;-1.64273; -0.474512; -4.22685;0; 0; 0; 0; 0; 0; 0; 0; 0; 0; 200; 228; 1024; 1024; 1024; 228; 1024; 1024; 1024; 1; 4; 0; 1900; 50; 35; 0; 0; 0; 0; 0; 0; 0; 
39076;39080;2019/05/25 18:11:32;-1; -1; -1; -1; -1; 100; 0; 0; 0; 0; 0;0; 0; 0;0; 0; 0;0; 0; 0;640.444; 369.556; 18.1261; 607.548; 373.249; 0; 15; 1; -0.585251; -1.0012; -0.726009;-0.445958; -0.974851; -0.714381;-3.31807; 0.13193; 0.474369;-1.40859; 0.839363; -2.95536;0; 0; 0; 0; 0; 0; 0; 0; 0; 0; 200; 228; 1024; 1024; 1024; 228; 1024; 1024; 1024; 1; 4; 0; 1900; 50; 35; 0; 0; 0; 0; 0; 0; 0; 
39077;39081;2019/05/25 18:11:32;-1; -1; -1; -1; -1; 100; 0; 0; 0; 0; 0;0; 0; 0;0; 0; 0;0; 0; 0;669.647; 374.588; 18.1727; 629.145; 374.143; 0; 16; 1; -0.663967; -1.00971; -0.715881;-0.511361; -0.98531; -0.714831;-3.38416; 0.127804; 0.453582;-1.46064; 1.88482; -1.78522;0; 0; 0; 0; 0; 0; 0; 0; 0; 0; 200; 228; 1024; 1024; 1024; 228; 1024; 1024; 1024; 1; 4; 0; 1900; 50; 35; 0; 0; 0; 0; 0; 0; 0; 
39078;39082;2019/05/25 18:11:32;-1; -1; -1; -1; -1; 100; 0; 0; 0; 0; 0;0; 0; 0;0; 0; 0;0; 0; 0;702.065; 377.742; 18.1041; 653.705; 376.315; 0; 17; 1; -0.755871; -1.02051; -0.713396;-0.584714; -0.995871; -0.714401;-3.50416; 0.0202356; 0.374351;-1.97682; 2.04562; -1.13025;0; 0; 0; 0; 0; 0; 0; 0; 0; 0; 200; 228; 1024; 1024; 1024; 228; 1024; 1024; 1024; 1; 4; 0; 1900; 50; 35; 0; 0; 0; 0; 0; 0; 0; 
39079;39083;2019/05/25 18:11:32;-1; -1; -1; -1; -1; 100; 0; 0; 0; 0; 0;0; 0; 0;0; 0; 0;0; 0; 0;716.167; 376.333; 18.3847; 681.155; 378.781; 0; 18; 1; -0.782625; -1.00187; -0.704794;-0.644087; -0.997671; -0.711519;-3.60641; -0.087721; 0.284796;-2.73976; 1.56365; -0.981415;0; 0; 0; 0; 0; 0; 0; 0; 0; 0; 200; 228; 1024; 1024; 1024; 228; 1024; 1024; 1024; 1; 4; 0; 1900; 50; 35; 0; 0; 0; 0; 0; 0; 0; 
39080;39084;2019/05/25 18:11:32;-1; -1; -1; -1; -1; 100; 0; 0; 0; 0; 0;0; 0; 0;0; 0; 0;0; 0; 0;752.077; 385.077; 18.3699; 705.172; 380.064; 0; 19; 1; -0.880841; -1.02173; -0.691157;-0.715113; -1.00489; -0.70541;-3.71605; -0.201709; 0.214331;-3.50725; 0.67138; -1.13333;0; 0; 0; 0; 0; 0; 0; 0; 0; 0; 200; 228; 1024; 1024; 1024; 228; 1024; 1024; 1024; 1; 4; 0; 1900; 50; 35; 0; 0; 0; 0; 0; 0; 0; 
39081;39085;2019/05/25 18:11:32;-1; -1; -1; -1; -1; 100; 0; 0; 0; 0; 0;0; 0; 0;0; 0; 0;0; 0; 0;788.842; 392.947; 18.4179; 733.279; 383.653; 0; 20; 1; -0.978193; -1.03616; -0.676603;-0.794037; -1.01427; -0.696768;-3.86114; -0.323931; 0.179129;-4.41954; -1.08823; -1.75994;0; 0; 0; 0; 0; 0; 0; 0; 0; 0; 200; 228; 1024; 1024; 1024; 228; 1024; 1024; 1024; 1; 4; 0; 1900; 50; 35; 0; 0; 0; 0; 0; 0; 0; 
39082;39086;2019/05/25 18:11:32;-1; -1; -1; -1; -1; 100; 0; 0; 0; 0; 0;0; 0; 0;0; 0; 0;0; 0; 0;802.824; 391.647; 18.4393; 764.857; 388.679; 0; 21; 1; -1.01491; -1.03214; -0.677921;-0.860298; -1.01963; -0.691114;-3.97242; -0.373303; 0.200456;-5.2666; -2.6719; -2.15055;0; 0; 0; 0; 0; 0; 0; 0; 0; 0; 200; 228; 1024; 1024; 1024; 228; 1024; 1024; 1024; 1; 4; 0; 1900; 50; 35; 0; 0; 0; 0; 0; 0; 0; 
39083;39087;2019/05/25 18:11:32;-1; -1; -1; -1; -1; 100; 0; 0; 0; 0; 0;0; 0; 0;0; 0; 0;0; 0; 0;836.96; 403.12; 18.4376; 791.56; 391.819; 0; 22; 1; -1.10743; -1.05714; -0.659416;-0.934437; -1.03088; -0.681604;-4.07308; -0.405982; 0.252969;-5.91128; -3.7349; -2.09151;0; 0; 0; 0; 0; 0; 0; 0; 0; 0; 200; 228; 1024; 1024; 1024; 228; 1024; 1024; 1024; 1; 4; 0; 1900; 50; 35; 0; 0; 0; 0; 0; 0; 0; 
39084;39088;2019/05/25 18:11:32;-1; -1; -1; -1; -1; 100; 0; 0; 0; 0; 0;0; 0; 0;0; 0; 0;0; 0; 0;836.96; 403.12; 18.4376; 821.19; 397.65; 1; 0; 1; -1.10743; -1.05714; -0.659416;-0.934437; -1.03088; -0.681604;-4.07308; -0.405982; 0.252969;-5.91128; -3.7349; -2.09151;0; 0; 0; 0; 0; 0; 0; 0; 0; 0; 200; 228; 1024; 1024; 1024; 228; 1024; 1024; 1024; 1; 4; 0; 1900; 50; 35; 0; 0; 0; 0; 0; 0; 0; 
39085;39089;2019/05/25 18:11:32;-1; -1; -1; -1; -1; 100; 0; 0; 0; 0; 0;0; 0; 0;0; 0; 0;0; 0; 0;836.96; 403.12; 18.4376; 836.975; 400.04; 2; 0; 1; -1.10743; -1.05714; -0.659416;-0.934437; -1.03088; -0.681604;-4.07308; -0.405982; 0.252969;-5.91128; -3.7349; -2.09151;0; 0; 0; 0; 0; 0; 0; 0; 0; 0; 200; 228; 1024; 1024; 1024; 228; 1024; 1024; 1024; 1; 4; 0; 1900; 50; 35; 0; 0; 0; 0; 0; 0; 0; 
39086;39090;2019/05/25 18:11:32;-1; -1; -1; -1; -1; 100; 0; 0; 0; 0; 0;0; 0; 0;0; 0; 0;0; 0; 0;836.96; 403.12; 18.4376; 852.819; 402.439; 3; 0; 1; -1.10743; -1.05714; -0.659416;-0.934437; -1.03088; -0.681604;-4.07308; -0.405982; 0.252969;-5.91128; -3.7349; -2.09151;0; 0; 0; 0; 0; 0; 0; 0; 0; 0; 200; 228; 1024; 1024; 1024; 228; 1024; 1024; 1024; 1; 4; 0; 1900; 50; 35; 0; 0; 0; 0; 0; 0; 0; 
39087;39091;2019/05/25 18:11:32;-1; -1; -1; -1; -1; 100; 0; 0; 0; 0; 0;0; 0; 0;0; 0; 0;0; 0; 0;836.96; 403.12; 18.4376; 868.546; 404.82; 4; 0; 1; -1.10743; -1.05714; -0.659416;-0.934437; -1.03088; -0.681604;-4.07308; -0.405982; 0.252969;-5.91128; -3.7349; -2.09151;0; 0; 0; 0; 0; 0; 0; 0; 0; 0; 200; 228; 1024; 1024; 1024; 228; 1024; 1024; 1024; 1; 4; 0; 1900; 50; 35; 0; 0; 0; 0; 0; 0; 0; 
39088;39092;2019/05/25 18:11:32;-1; -1; -1; -1; -1; 100; 0; 0; 0; 0; 0;0; 0; 0;0; 0; 0;0; 0; 0;836.96; 403.12; 18.4376; 884.447; 407.228; 5; 0; 1; -1.10743; -1.05714; -0.659416;-0.934437; -1.03088; -0.681604;-4.07308; -0.405982; 0.252969;-5.91128; -3.7349; -2.09151;0; 0; 0; 0; 0; 0; 0; 0; 0; 0; 200; 228; 1024; 1024; 1024; 228; 1024; 1024; 1024; 1; 4; 0; 1900; 50; 35; 0; 0; 0; 0; 0; 0; 0; 
39089;39093;2019/05/25 18:11:32;-1; -1; -1; -1; -1; 100; 0; 0; 0; 0; 0;0; 0; 0;0; 0; 0;0; 0; 0;836.96; 403.12; 18.4376; 900.174; 409.609; 6; 0; 1; -1.10743; -1.05714; -0.659416;-0.934437; -1.03088; -0.681604;-4.07308; -0.405982; 0.252969;-5.91128; -3.7349; -2.09151;0; 0; 0; 0; 0; 0; 0; 0; 0; 0; 200; 228; 1024; 1024; 1024; 228; 1024; 1024; 1024; 1; 4; 0; 1900; 50; 35; 0; 0; 0; 0; 0; 0; 0; 
39090;39094;2019/05/25 18:11:32;-1; -1; -1; -1; -1; 100; 0; 0; 0; 0; 0;0; 0; 0;0; 0; 0;0; 0; 0;836.96; 403.12; 18.4376; 916.075; 412.016; 7; 0; 1; -1.10743; -1.05714; -0.659416;-0.934437; -1.03088; -0.681604;-4.07308; -0.405982; 0.252969;-5.91128; -3.7349; -2.09151;0; 0; 0; 0; 0; 0; 0; 0; 0; 0; 200; 228; 1024; 1024; 1024; 228; 1024; 1024; 1024; 1; 4; 0; 1900; 50; 35; 0; 0; 0; 0; 0; 0; 0; 
39091;39095;2019/05/25 18:11:32;-1; -1; -1; -1; -1; 100; 0; 0; 0; 0; 0;0; 0; 0;0; 0; 0;0; 0; 0;836.96; 403.12; 18.4376; 931.803; 414.398; 8; 0; 1; -1.10743; -1.05714; -0.659416;-0.934437; -1.03088; -0.681604;-4.07308; -0.405982; 0.252969;-5.91128; -3.7349; -2.09151;0; 0; 0; 0; 0; 0; 0; 0; 0; 0; 200; 228; 1024; 1024; 1024; 228; 1024; 1024; 1024; 1; 4; 0; 1900; 50; 35; 0; 0; 0; 0; 0; 0; 0; 
39092;39096;2019/05/25 18:11:32;-1; -1; -1; -1; -1; 100; 0; 0; 0; 0; 0;0; 0; 0;0; 0; 0;0; 0; 0;836.96; 403.12; 18.4376; 947.53; 416.779; 9; 0; 1; -1.10743; -1.05714; -0.659416;-0.934437; -1.03088; -0.681604;-4.07308; -0.405982; 0.252969;-5.91128; -3.7349; -2.09151;0; 0; 0; 0; 0; 0; 0; 0; 0; 0; 200; 228; 1024; 1024; 1024; 228; 1024; 1024; 1024; 1; 4; 0; 1900; 50; 35; 0; 0; 0; 0; 0; 0; 0; 
39093;39097;2019/05/25 18:11:32;-1; -1; -1; -1; -1; 100; 0; 0; 0; 0; 0;0; 0; 0;0; 0; 0;0; 0; 0;836.96; 403.12; 18.4376; 963.431; 419.187; 10; 0; 0; 0; 0; 0;0; 0; 0;0; 0; 0;0; 0; 0;0; 0; 0; 0; 0; 0; 0; 0; 0; 0; 200; 228; 1024; 1024; 1024; 228; 1024; 1024; 1024; 1; 4; 0; 1900; 50; 35; 0; 0; 0; 0; 0; 0; 0; 
39094;39098;2019/05/25 18:11:32;-1; -1; -1; -1; -1; 100; 0; 0; 0; 0; 0;0; 0; 0;0; 0; 0;0; 0; 0;836.96; 403.12; 18.4376; -1; -1; 11; 0; 0; 0; 0; 0;0; 0; 0;0; 0; 0;0; 0; 0;0; 0; 0; 0; 0; 0; 0; 0; 0; 0; 200; 228; 1024; 1024; 1024; 228; 1024; 1024; 1024; 1; 4; 0; 1900; 50; 35; 0; 0; 0; 0; 0; 0; 0; 
39095;39099;2019/05/25 18:11:32;-1; -1; -1; -1; -1; 100; 0; 0; 0; 0; 0;0; 0; 0;0; 0; 0;0; 0; 0;836.96; 403.12; 18.4376; -1; -1; 12; 0; 0; 0; 0; 0;0; 0; 0;0; 0; 0;0; 0; 0;0; 0; 0; 0; 0; 0; 0; 0; 0; 0; 200; 228; 1024; 1024; 1024; 228; 1024; 1024; 1024; 1; 4; 0; 1900; 50; 35; 0; 0; 0; 0; 0; 0; 0; 
39096;39100;2019/05/25 18:11:32;-1; -1; -1; -1; -1; 100; 0; 0; 0; 0; 0;0; 0; 0;0; 0; 0;0; 0; 0;836.96; 403.12; 18.4376; -1; -1; 13; 0; 0; 0; 0; 0;0; 0; 0;0; 0; 0;0; 0; 0;0; 0; 0; 0; 0; 0; 0; 0; 0; 0; 200; 228; 1024; 1024; 1024; 228; 1024; 1024; 1024; 1; 4; 0; 1900; 50; 35; 0; 0; 0; 0; 0; 0; 0; 
39097;39101;2019/05/25 18:11:32;-1; -1; -1; -1; -1; 100; 0; 0; 0; 0; 0;0; 0; 0;0; 0; 0;0; 0; 0;836.96; 403.12; 18.4376; -1; -1; 14; 0; 0; 0; 0; 0;0; 0; 0;0; 0; 0;0; 0; 0;0; 0; 0; 0; 0; 0; 0; 0; 0; 0; 200; 228; 1024; 1024; 1024; 228; 1024; 1024; 1024; 1; 4; 0; 1900; 50; 35; 0; 0; 0; 0; 0; 0; 0; 
39098;39102;2019/05/25 18:11:32;-1; -1; -1; -1; -1; 100; 0; 0; 0; 0; 0;0; 0; 0;0; 0; 0;0; 0; 0;836.96; 403.12; 18.4376; -1; -1; 15; 0; 0; 0; 0; 0;0; 0; 0;0; 0; 0;0; 0; 0;0; 0; 0; 0; 0; 0; 0; 0; 0; 0; 200; 228; 1024; 1024; 1024; 228; 1024; 1024; 1024; 1; 4; 0; 1900; 50; 35; 0; 0; 0; 0; 0; 0; 0; 
39099;39103;2019/05/25 18:11:32;-1; -1; -1; -1; -1; 100; 0; 0; 0; 0; 0;0; 0; 0;0; 0; 0;0; 0; 0;836.96; 403.12; 18.4376; -1; -1; 16; 0; 0; 0; 0; 0;0; 0; 0;0; 0; 0;0; 0; 0;0; 0; 0; 0; 0; 0; 0; 0; 0; 0; 200; 228; 1024; 1024; 1024; 228; 1024; 1024; 1024; 1; 4; 0; 1900; 50; 35; 0; 0; 0; 0; 0; 0; 0; 
39100;39104;2019/05/25 18:11:32;-1; -1; -1; -1; -1; 100; 0; 0; 0; 0; 0;0; 0; 0;0; 0; 0;0; 0; 0;836.96; 403.12; 18.4376; -1; -1; 17; 0; 0; 0; 0; 0;0; 0; 0;0; 0; 0;0; 0; 0;0; 0; 0; 0; 0; 0; 0; 0; 0; 0; 200; 228; 1024; 1024; 1024; 228; 1024; 1024; 1024; 1; 4; 0; 1900; 50; 35; 0; 0; 0; 0; 0; 0; 0; 
39101;39105;2019/05/25 18:11:32;-1; -1; -1; -1; -1; 100; 0; 0; 0; 0; 0;0; 0; 0;0; 0; 0;0; 0; 0;836.96; 403.12; 18.4376; -1; -1; 18; 0; 0; 0; 0; 0;0; 0; 0;0; 0; 0;0; 0; 0;0; 0; 0; 0; 0; 0; 0; 0; 0; 0; 200; 228; 1024; 1024; 1024; 228; 1024; 1024; 1024; 1; 4; 0; 1900; 50; 35; 0; 0; 0; 0; 0; 0; 0; 
39102;39106;2019/05/25 18:11:32;-1; -1; -1; -1; -1; 100; 0; 0; 0; 0; 0;0; 0; 0;0; 0; 0;0; 0; 0;836.96; 403.12; 18.4376; -1; -1; 19; 0; 0; 0; 0; 0;0; 0; 0;0; 0; 0;0; 0; 0;0; 0; 0; 0; 0; 0; 0; 0; 0; 0; 200; 228; 1024; 1024; 1024; 228; 1024; 1024; 1024; 1; 4; 0; 1900; 50; 35; 0; 0; 0; 0; 0; 0; 0; 
39103;39107;2019/05/25 18:11:32;-1; -1; -1; -1; -1; 100; 0; 0; 0; 0; 0;0; 0; 0;0; 0; 0;0; 0; 0;836.96; 403.12; 18.4376; -1; -1; 20; 0; 0; 0; 0; 0;0; 0; 0;0; 0; 0;0; 0; 0;0; 0; 0; 0; 0; 0; 0; 0; 0; 0; 200; 228; 1024; 1024; 1024; 228; 1024; 1024; 1024; 1; 4; 0; 1900; 50; 35; 0; 0; 0; 0; 0; 0; 0; 
39104;39108;2019/05/25 18:11:32;-1; -1; -1; -1; -1; 100; 0; 0; 0; 0; 0;0; 0; 0;0; 0; 0;0; 0; 0;836.96; 403.12; 18.4376; -1; -1; 21; 0; 0; 0; 0; 0;0; 0; 0;0; 0; 0;0; 0; 0;0; 0; 0; 0; 0; 0; 0; 0; 0; 0; 200; 228; 1024; 1024; 1024; 228; 1024; 1024; 1024; 1; 4; 0; 1900; 50; 35; 0; 0; 0; 0; 0; 0; 0; 
39105;39109;2019/05/25 18:11:32;-1; -1; -1; -1; -1; 100; 0; 0; 0; 0; 0;0; 0; 0;0; 0; 0;0; 0; 0;836.96; 403.12; 18.4376; -1; -1; 22; 0; 0; 0; 0; 0;0; 0; 0;0; 0; 0;0; 0; 0;0; 0; 0; 0; 0; 0; 0; 0; 0; 0; 200; 228; 1024; 1024; 1024; 228; 1024; 1024; 1024; 1; 4; 0; 1900; 50; 35; 0; 0; 0; 0; 0; 0; 0; 
39106;39110;2019/05/25 18:11:32;-1; -1; -1; -1; -1; 100; 0; 0; 0; 0; 0;0; 0; 0;0; 0; 0;0; 0; 0;836.96; 403.12; 18.4376; -1; -1; 23; 0; 0; 0; 0; 0;0; 0; 0;0; 0; 0;0; 0; 0;0; 0; 0; 0; 0; 0; 0; 0; 0; 0; 200; 228; 1024; 1024; 1024; 228; 1024; 1024; 1024; 1; 4; 0; 1900; 50; 35; 0; 0; 0; 0; 0; 0; 0; 
39107;39111;2019/05/25 18:11:32;-1; -1; -1; -1; -1; 100; 0; 0; 0; 0; 0;0; 0; 0;0; 0; 0;0; 0; 0;836.96; 403.12; 18.4376; -1; -1; 24; 0; 0; 0; 0; 0;0; 0; 0;0; 0; 0;0; 0; 0;0; 0; 0; 0; 0; 0; 0; 0; 0; 0; 200; 228; 1024; 1024; 1024; 228; 1024; 1024; 1024; 1; 4; 0; 1900; 50; 35; 0; 0; 0; 0; 0; 0; 0; 
39108;39112;2019/05/25 18:11:32;-1; -1; -1; -1; -1; 100; 0; 0; 0; 0; 0;0; 0; 0;0; 0; 0;0; 0; 0;836.96; 403.12; 18.4376; -1; -1; 25; 0; 0; 0; 0; 0;0; 0; 0;0; 0; 0;0; 0; 0;0; 0; 0; 0; 0; 0; 0; 0; 0; 0; 200; 228; 1024; 1024; 1024; 228; 1024; 1024; 1024; 1; 4; 0; 1900; 50; 35; 0; 0; 0; 0; 0; 0; 0; 
39109;39113;2019/05/25 18:11:32;-1; -1; -1; -1; -1; 100; 0; 0; 0; 0; 0;0; 0; 0;0; 0; 0;0; 0; 0;836.96; 403.12; 18.4376; -1; -1; 26; 0; 0; 0; 0; 0;0; 0; 0;0; 0; 0;0; 0; 0;0; 0; 0; 0; 0; 0; 0; 0; 0; 0; 200; 228; 1024; 1024; 1024; 228; 1024; 1024; 1024; 1; 4; 0; 1900; 50; 35; 0; 0; 0; 0; 0; 0; 0; 
39110;39114;2019/05/25 18:11:32;-1; -1; -1; -1; -1; 100; 0; 0; 0; 0; 0;0; 0; 0;0; 0; 0;0; 0; 0;836.96; 403.12; 18.4376; -1; -1; 27; 0; 0; 0; 0; 0;0; 0; 0;0; 0; 0;0; 0; 0;0; 0; 0; 0; 0; 0; 0; 0; 0; 0; 200; 228; 1024; 1024; 1024; 228; 1024; 1024; 1024; 1; 4; 0; 1900; 50; 35; 0; 0; 0; 0; 0; 0; 0; 
39111;39115;2019/05/25 18:11:32;-1; -1; -1; -1; -1; 100; 0; 0; 0; 0; 0;0; 0; 0;0; 0; 0;0; 0; 0;836.96; 403.12; 18.4376; -1; -1; 28; 0; 0; 0; 0; 0;0; 0; 0;0; 0; 0;0; 0; 0;0; 0; 0; 0; 0; 0; 0; 0; 0; 0; 200; 228; 1024; 1024; 1024; 228; 1024; 1024; 1024; 1; 4; 0; 1900; 50; 35; 0; 0; 0; 0; 0; 0; 0; 
39112;39116;2019/05/25 18:11:32;-1; -1; -1; -1; -1; 100; 0; 0; 0; 0; 0;0; 0; 0;0; 0; 0;0; 0; 0;836.96; 403.12; 18.4376; -1; -1; 29; 0; 0; 0; 0; 0;0; 0; 0;0; 0; 0;0; 0; 0;0; 0; 0; 0; 0; 0; 0; 0; 0; 0; 200; 228; 1024; 1024; 1024; 228; 1024; 1024; 1024; 1; 4; 0; 1900; 50; 35; 0; 0; 0; 0; 0; 0; 0; 
39113;39117;2019/05/25 18:11:32;-1; -1; -1; -1; -1; 100; 0; 0; 0; 0; 0;0; 0; 0;0; 0; 0;0; 0; 0;836.96; 403.12; 18.4376; -1; -1; 30; 0; 0; 0; 0; 0;0; 0; 0;0; 0; 0;0; 0; 0;0; 0; 0; 0; 0; 0; 0; 0; 0; 0; 200; 228; 1024; 1024; 1024; 228; 1024; 1024; 1024; 1; 4; 0; 1900; 50; 35; 0; 0; 0; 0; 0; 0; 0; 
39114;39118;2019/05/25 18:11:32;-1; -1; -1; -1; -1; 100; 0; 0; 0; 0; 0;0; 0; 0;0; 0; 0;0; 0; 0;-1; -1; -1; -1; -1; 31; 0; 0; 0; 0; 0;0; 0; 0;0; 0; 0;0; 0; 0;0; 0; 0; 0; 0; 0; 0; 0; 0; 0; 200; 228; 1024; 1024; 1024; 228; 1024; 1024; 1024; 1; 4; 0; 1900; 50; 35; 0; 0; 0; 0; 0; 0; 0; 
39115;39119;2019/05/25 18:11:32;-1; -1; -1; -1; -1; 100; 0; 0; 0; 0; 0;0; 0; 0;0; 0; 0;0; 0; 0;-1; -1; -1; -1; -1; 32; 0; 0; 0; 0; 0;0; 0; 0;0; 0; 0;0; 0; 0;0; 0; 0; 0; 0; 0; 0; 0; 0; 0; 200; 228; 1024; 1024; 1024; 228; 1024; 1024; 1024; 1; 4; 0; 1900; 50; 35; 0; 0; 0; 0; 0; 0; 0; 
