ID;RS_ID;time;imLx_drone; imLy_drone; disparity_drone; imLx_pred_drone; imLy_pred_drone; n_frames_lost_drone; n_frames_tracking_drone; foundL_drone; posX_drone; posY_drone; posZ_drone; sposX_drone; sposY_drone; sposZ_drone; svelX_drone; svelY_drone; svelZ_drone; saccX_drone; saccY_drone; saccZ_drone; imLx_insect; imLy_insect; disparity_insect; imLx_pred_insect; imLy_pred_insect; n_frames_lost_insect; n_frames_tracking_insect; foundL_insect; posX_insect; posY_insect; posZ_insect; sposX_insect; sposY_insect; sposZ_insect; svelX_insect; svelY_insect; svelZ_insect; saccX_insect; saccY_insect; saccZ_insect; valid; posErrX; posErrY; posErrZ; velX; velY; velZ; accX; accY; accZ; hoverthrottle; autoThrottle; autoRoll; autoPitch; autoYaw; joyThrottle; joyRoll; joyPitch; joyYaw; joyArmSwitch; joyModeSwitch; joyTakeoffSwitch; throttleP; throttleI; throttleD; dt; dx; dy; dz; velx_sp; vely_sp; velz_sp;
179656;179666;2019/05/25 18:50:37;-1; -1; -1; -1; -1; 100; 0; 0; 0; 0; 0;0; 0; 0;0; 0; 0;0; 0; 0;-1; -1; -1; -1; -1; 4702; 0; 0; 0; 0; 0;0; 0; 0;0; 0; 0;0; 0; 0;0; 0; 0; 0; 0; 0; 0; 0; 0; 0; 200; 228; 1024; 1024; 1024; 228; 1024; 1024; 1024; 1; 4; 0; 1900; 50; 35; 0; 0; 0; 0; 0; 0; 0; 
179657;179667;2019/05/25 18:50:37;-1; -1; -1; -1; -1; 100; 0; 0; 0; 0; 0;0; 0; 0;0; 0; 0;0; 0; 0;-1; -1; -1; -1; -1; 4703; 0; 0; 0; 0; 0;0; 0; 0;0; 0; 0;0; 0; 0;0; 0; 0; 0; 0; 0; 0; 0; 0; 0; 200; 228; 1024; 1024; 1024; 228; 1024; 1024; 1024; 1; 4; 0; 1900; 50; 35; 0; 0; 0; 0; 0; 0; 0; 
179658;179668;2019/05/25 18:50:37;-1; -1; -1; -1; -1; 100; 0; 0; 0; 0; 0;0; 0; 0;0; 0; 0;0; 0; 0;788; 184; 13.4629; -1; -1; 0; 1; 1; -1.33509; -0.796451; -1.3888;-1.33509; -0.796451; -1.3888;0; 0; 0;0; 0; 0;0; 0; 0; 0; 0; 0; 0; 0; 0; 0; 200; 228; 1024; 1024; 1024; 228; 1024; 1024; 1024; 1; 4; 0; 1900; 50; 35; 0; 0; 0; 0; 0; 0; 0; 
179659;179669;2019/05/25 18:50:37;-1; -1; -1; -1; -1; 100; 0; 0; 0; 0; 0;0; 0; 0;0; 0; 0;0; 0; 0;788; 184; 13.4629; 788; 184; 1; 0; 1; -1.33509; -0.796451; -1.3888;-1.33509; -0.796451; -1.3888;0; 0; 0;0; 0; 0;0; 0; 0; 0; 0; 0; 0; 0; 0; 0; 200; 228; 1024; 1024; 1024; 228; 1024; 1024; 1024; 1; 4; 0; 1900; 50; 35; 0; 0; 0; 0; 0; 0; 0; 
179660;179670;2019/05/25 18:50:37;-1; -1; -1; -1; -1; 100; 0; 0; 0; 0; 0;0; 0; 0;0; 0; 0;0; 0; 0;766; 184; 13.4102; 788; 184; 0; 1; 1; -1.25844; -0.799578; -1.39425;-1.3121; -0.797389; -1.39044;0; 0; 0;0; 0; 0;0; 0; 0; 0; 0; 0; 0; 0; 0; 0; 200; 228; 1024; 1024; 1024; 228; 1024; 1024; 1024; 1; 4; 0; 1900; 50; 35; 0; 0; 0; 0; 0; 0; 0; 
179661;179671;2019/05/25 18:50:37;-1; -1; -1; -1; -1; 100; 0; 0; 0; 0; 0;0; 0; 0;0; 0; 0;0; 0; 0;766; 184; 13.4102; 784.464; 184; 1; 0; 1; -1.25844; -0.799578; -1.39425;-1.3121; -0.797389; -1.39044;0; 0; 0;0; 0; 0;0; 0; 0; 0; 0; 0; 0; 0; 0; 0; 200; 228; 1024; 1024; 1024; 228; 1024; 1024; 1024; 1; 4; 0; 1900; 50; 35; 0; 0; 0; 0; 0; 0; 0; 
179662;179672;2019/05/25 18:50:37;-1; -1; -1; -1; -1; 100; 0; 0; 0; 0; 0;0; 0; 0;0; 0; 0;0; 0; 0;744; 183; 13.535; 784.458; 184; 0; 1; 1; -1.1657; -0.78925; -1.3836;-1.26818; -0.794947; -1.38839;0; 0; 0;0; 0; 0;0; 0; 0; 0; 0; 0; 0; 0; 0; 0; 200; 228; 1024; 1024; 1024; 228; 1024; 1024; 1024; 1; 4; 0; 1900; 50; 35; 0; 0; 0; 0; 0; 0; 0; 
179663;179673;2019/05/25 18:50:37;-1; -1; -1; -1; -1; 100; 0; 0; 0; 0; 0;0; 0; 0;0; 0; 0;0; 0; 0;729; 184; 12.9654; 774.848; 183.763; 0; 2; 1; -1.15916; -0.827013; -1.44209;-1.23547; -0.804567; -1.4045;0; 0; 0;0; 0; 0;0; 0; 0; 0; 0; 0; 0; 0; 0; 0; 200; 228; 1024; 1024; 1024; 228; 1024; 1024; 1024; 1; 4; 0; 1900; 50; 35; 0; 0; 0; 0; 0; 0; 0; 
179664;179674;2019/05/25 18:50:37;-1; -1; -1; -1; -1; 100; 0; 0; 0; 0; 0;0; 0; 0;0; 0; 0;0; 0; 0;720; 182; 13.4106; 763.098; 183.822; 0; 3; 1; -1.08718; -0.793589; -1.39867;-1.19098; -0.801274; -1.40275;0; 0; 0;0; 0; 0;0; 0; 0; 0; 0; 0; 0; 0; 0; 0; 200; 228; 1024; 1024; 1024; 228; 1024; 1024; 1024; 1; 4; 0; 1900; 50; 35; 0; 0; 0; 0; 0; 0; 0; 
179665;179675;2019/05/25 18:50:37;-1; -1; -1; -1; -1; 100; 0; 0; 0; 0; 0;0; 0; 0;0; 0; 0;0; 0; 0;720; 182; 13.4106; 751.506; 183.337; 1; 0; 1; -1.08718; -0.793589; -1.39867;-1.19098; -0.801274; -1.40275;0; 0; 0;0; 0; 0;0; 0; 0; 0; 0; 0; 0; 0; 0; 0; 200; 228; 1024; 1024; 1024; 228; 1024; 1024; 1024; 1; 4; 0; 1900; 50; 35; 0; 0; 0; 0; 0; 0; 0; 
179666;179676;2019/05/25 18:50:37;-1; -1; -1; -1; -1; 100; 0; 0; 0; 0; 0;0; 0; 0;0; 0; 0;0; 0; 0;695; 181; 13.4888; 751.284; 183.332; 0; 1; 1; -0.988352; -0.78602; -1.39277;-1.13019; -0.796698; -1.39976;0; 0; 0;0; 0; 0;0; 0; 0; 0; 0; 0; 0; 0; 0; 0; 200; 228; 1024; 1024; 1024; 228; 1024; 1024; 1024; 1; 4; 0; 1900; 50; 35; 0; 0; 0; 0; 0; 0; 0; 
179667;179677;2019/05/25 18:50:37;-1; -1; -1; -1; -1; 100; 0; 0; 0; 0; 0;0; 0; 0;0; 0; 0;0; 0; 0;695; 181; 13.4888; 735.445; 182.68; 1; 0; 1; -0.988352; -0.78602; -1.39277;-1.13019; -0.796698; -1.39976;0; 0; 0;0; 0; 0;0; 0; 0; 0; 0; 0; 0; 0; 0; 0; 200; 228; 1024; 1024; 1024; 228; 1024; 1024; 1024; 1; 4; 0; 1900; 50; 35; 0; 0; 0; 0; 0; 0; 0; 
179668;179678;2019/05/25 18:50:37;-1; -1; -1; -1; -1; 100; 0; 0; 0; 0; 0;0; 0; 0;0; 0; 0;0; 0; 0;695; 181; 13.4888; 735.017; 182.667; 2; 0; 1; -0.988352; -0.78602; -1.39277;-1.13019; -0.796698; -1.39976;0; 0; 0;0; 0; 0;0; 0; 0; 0; 0; 0; 0; 0; 0; 0; 200; 228; 1024; 1024; 1024; 228; 1024; 1024; 1024; 1; 4; 0; 1900; 50; 35; 0; 0; 0; 0; 0; 0; 0; 
179669;179679;2019/05/25 18:50:37;-1; -1; -1; -1; -1; 100; 0; 0; 0; 0; 0;0; 0; 0;0; 0; 0;0; 0; 0;664; 182; 13.5018; 734.601; 182.654; 0; 1; 1; -0.872783; -0.788225; -1.38921;-1.05297; -0.794156; -1.39659;0; 0; 0;0; 0; 0;0; 0; 0; 0; 0; 0; 0; 0; 0; 0; 200; 228; 1024; 1024; 1024; 228; 1024; 1024; 1024; 1; 4; 0; 1900; 50; 35; 0; 0; 0; 0; 0; 0; 0; 
179670;179680;2019/05/25 18:50:37;-1; -1; -1; -1; -1; 100; 0; 0; 0; 0; 0;0; 0; 0;0; 0; 0;0; 0; 0;648; 184; 13.16; 713.959; 182.454; 0; 2; 1; -0.834764; -0.814784; -1.42077;-0.987509; -0.800344; -1.40385;1.70178; 0.000401579; -0.0576778;4.08826; 0.000964731; -0.138562;0; 0; 0; 0; 0; 0; 0; 0; 0; 0; 200; 228; 1024; 1024; 1024; 228; 1024; 1024; 1024; 1; 4; 0; 1900; 50; 35; 0; 0; 0; 0; 0; 0; 0; 
179671;179681;2019/05/25 18:50:37;-1; -1; -1; -1; -1; 100; 0; 0; 0; 0; 0;0; 0; 0;0; 0; 0;0; 0; 0;648; 184; 13.16; 694.086; 182.884; 1; 0; 1; -0.834764; -0.814784; -1.42077;-0.987509; -0.800344; -1.40385;1.70178; 0.000401579; -0.0576778;4.08826; 0.000964731; -0.138562;0; 0; 0; 0; 0; 0; 0; 0; 0; 0; 200; 228; 1024; 1024; 1024; 228; 1024; 1024; 1024; 1; 4; 0; 1900; 50; 35; 0; 0; 0; 0; 0; 0; 0; 
179672;179682;2019/05/25 18:50:37;-1; -1; -1; -1; -1; 100; 0; 0; 0; 0; 0;0; 0; 0;0; 0; 0;0; 0; 0;626; 184; 13.0926; 692.928; 182.877; 0; 1; 1; -0.755178; -0.818977; -1.42808;-0.91781; -0.805934; -1.41112;1.86277; -0.026153; -0.0892094;6.92798; -0.0622498; -0.297449;0; 0; 0; 0; 0; 0; 0; 0; 0; 0; 200; 228; 1024; 1024; 1024; 228; 1024; 1024; 1024; 1; 4; 0; 1900; 50; 35; 0; 0; 0; 0; 0; 0; 0; 
179673;179683;2019/05/25 18:50:37;-1; -1; -1; -1; -1; 100; 0; 0; 0; 0; 0;0; 0; 0;0; 0; 0;0; 0; 0;626; 184; 13.0926; 672.086; 183.199; 1; 0; 1; -0.755178; -0.818977; -1.42808;-0.91781; -0.805934; -1.41112;1.86277; -0.026153; -0.0892094;6.92798; -0.0622498; -0.297449;0; 0; 0; 0; 0; 0; 0; 0; 0; 0; 200; 228; 1024; 1024; 1024; 228; 1024; 1024; 1024; 1; 4; 0; 1900; 50; 35; 0; 0; 0; 0; 0; 0; 0; 
179674;179684;2019/05/25 18:50:37;-1; -1; -1; -1; -1; 100; 0; 0; 0; 0; 0;0; 0; 0;0; 0; 0;0; 0; 0;606; 183; 13.4808; 670.444; 183.199; 0; 1; 1; -0.659371; -0.792424; -1.38917;-0.840278; -0.801881; -1.40453;1.97869; -0.00983971; -0.0535973;8.4678; -0.0587879; -0.295243;0; 0; 0; 0; 0; 0; 0; 0; 0; 0; 200; 228; 1024; 1024; 1024; 228; 1024; 1024; 1024; 1; 4; 0; 1900; 50; 35; 0; 0; 0; 0; 0; 0; 0; 
179675;179685;2019/05/25 18:50:37;-1; -1; -1; -1; -1; 100; 0; 0; 0; 0; 0;0; 0; 0;0; 0; 0;0; 0; 0;606; 183; 13.4808; 649.68; 183.141; 1; 0; 1; -0.659371; -0.792424; -1.38917;-0.840278; -0.801881; -1.40453;1.97869; -0.00983971; -0.0535973;8.4678; -0.0587879; -0.295243;0; 0; 0; 0; 0; 0; 0; 0; 0; 0; 200; 228; 1024; 1024; 1024; 228; 1024; 1024; 1024; 1; 4; 0; 1900; 50; 35; 0; 0; 0; 0; 0; 0; 0; 
179676;179686;2019/05/25 18:50:38;-1; -1; -1; -1; -1; 100; 0; 0; 0; 0; 0;0; 0; 0;0; 0; 0;0; 0; 0;606; 183; 13.4808; 647.456; 183.14; 2; 0; 1; -0.659371; -0.792424; -1.38917;-0.840278; -0.801881; -1.40453;1.97869; -0.00983971; -0.0535973;8.4678; -0.0587879; -0.295243;0; 0; 0; 0; 0; 0; 0; 0; 0; 0; 200; 228; 1024; 1024; 1024; 228; 1024; 1024; 1024; 1; 4; 0; 1900; 50; 35; 0; 0; 0; 0; 0; 0; 0; 
179677;179687;2019/05/25 18:50:38;-1; -1; -1; -1; -1; 100; 0; 0; 0; 0; 0;0; 0; 0;0; 0; 0;0; 0; 0;606; 183; 13.4808; 645.327; 183.139; 3; 0; 1; -0.659371; -0.792424; -1.38917;-0.840278; -0.801881; -1.40453;1.97869; -0.00983971; -0.0535973;8.4678; -0.0587879; -0.295243;0; 0; 0; 0; 0; 0; 0; 0; 0; 0; 200; 228; 1024; 1024; 1024; 228; 1024; 1024; 1024; 1; 4; 0; 1900; 50; 35; 0; 0; 0; 0; 0; 0; 0; 
179678;179688;2019/05/25 18:50:38;-1; -1; -1; -1; -1; 100; 0; 0; 0; 0; 0;0; 0; 0;0; 0; 0;0; 0; 0;606; 183; 13.4808; 643.166; 183.138; 4; 0; 1; -0.659371; -0.792424; -1.38917;-0.840278; -0.801881; -1.40453;1.97869; -0.00983971; -0.0535973;8.4678; -0.0587879; -0.295243;0; 0; 0; 0; 0; 0; 0; 0; 0; 0; 200; 228; 1024; 1024; 1024; 228; 1024; 1024; 1024; 1; 4; 0; 1900; 50; 35; 0; 0; 0; 0; 0; 0; 0; 
179679;179689;2019/05/25 18:50:38;-1; -1; -1; -1; -1; 100; 0; 0; 0; 0; 0;0; 0; 0;0; 0; 0;0; 0; 0;556; 182; 13.1156; 640.942; 183.137; 0; 1; 1; -0.487423; -0.811436; -1.43012;-0.734422; -0.804747; -1.41221;1.91629; -0.0114511; -0.0472639;8.14076; -0.0535588; -0.252621;0; 0; 0; 0; 0; 0; 0; 0; 0; 0; 200; 228; 1024; 1024; 1024; 228; 1024; 1024; 1024; 1; 4; 0; 1900; 50; 35; 0; 0; 0; 0; 0; 0; 0; 
179680;179690;2019/05/25 18:50:38;-1; -1; -1; -1; -1; 100; 0; 0; 0; 0; 0;0; 0; 0;0; 0; 0;0; 0; 0;556; 182; 13.1156; 612.904; 182.789; 1; 0; 1; -0.487423; -0.811436; -1.43012;-0.734422; -0.804747; -1.41221;1.91629; -0.0114511; -0.0472639;8.14076; -0.0535588; -0.252621;0; 0; 0; 0; 0; 0; 0; 0; 0; 0; 200; 228; 1024; 1024; 1024; 228; 1024; 1024; 1024; 1; 4; 0; 1900; 50; 35; 0; 0; 0; 0; 0; 0; 0; 
179681;179691;2019/05/25 18:50:38;-1; -1; -1; -1; -1; 100; 0; 0; 0; 0; 0;0; 0; 0;0; 0; 0;0; 0; 0;535; 184; 13.0025; 609.791; 182.776; 0; 1; 1; -0.411042; -0.824654; -1.43798;-0.637408; -0.810719; -1.41994;1.9367; -0.0292616; -0.0605906;7.97713; -0.0788626; -0.248329;0; 0; 0; 0; 0; 0; 0; 0; 0; 0; 200; 228; 1024; 1024; 1024; 228; 1024; 1024; 1024; 1; 4; 0; 1900; 50; 35; 0; 0; 0; 0; 0; 0; 0; 
179682;179692;2019/05/25 18:50:38;-1; -1; -1; -1; -1; 100; 0; 0; 0; 0; 0;0; 0; 0;0; 0; 0;0; 0; 0;535; 184; 13.0025; 583.816; 183.14; 1; 0; 1; -0.411042; -0.824654; -1.43798;-0.637408; -0.810719; -1.41994;1.9367; -0.0292616; -0.0605906;7.97713; -0.0788626; -0.248329;0; 0; 0; 0; 0; 0; 0; 0; 0; 0; 200; 228; 1024; 1024; 1024; 228; 1024; 1024; 1024; 1; 4; 0; 1900; 50; 35; 0; 0; 0; 0; 0; 0; 0; 
179683;179693;2019/05/25 18:50:38;-1; -1; -1; -1; -1; 100; 0; 0; 0; 0; 0;0; 0; 0;0; 0; 0;0; 0; 0;514; 186; 12.9441; 579.984; 183.141; 0; 1; 1; -0.331907; -0.834555; -1.43985;-0.545758; -0.81787; -1.42591;2.03128; -0.0581987; -0.0866042;8.26751; -0.147059; -0.29742;0; 0; 0; 0; 0; 0; 0; 0; 0; 0; 200; 228; 1024; 1024; 1024; 228; 1024; 1024; 1024; 1; 4; 0; 1900; 50; 35; 0; 0; 0; 0; 0; 0; 0; 
179684;179694;2019/05/25 18:50:38;-1; -1; -1; -1; -1; 100; 0; 0; 0; 0; 0;0; 0; 0;0; 0; 0;0; 0; 0;506; 188; 12.5129; 555.62; 184.026; 0; 2; 1; -0.311429; -0.86971; -1.4847;-0.475459; -0.833422; -1.44355;2.09358; -0.0914311; -0.119794;5.62988; -0.245127; -0.284575;0; 0; 0; 0; 0; 0; 0; 0; 0; 0; 200; 228; 1024; 1024; 1024; 228; 1024; 1024; 1024; 1; 4; 0; 1900; 50; 35; 0; 0; 0; 0; 0; 0; 0; 
179685;179695;2019/05/25 18:50:38;-1; -1; -1; -1; -1; 100; 0; 0; 0; 0; 0;0; 0; 0;0; 0; 0;0; 0; 0;494.667; 188.667; 12.4974; 535.712; 185.292; 0; 3; 1; -0.266546; -0.872924; -1.48495;-0.412785; -0.845273; -1.45597;2.18689; -0.127358; -0.15454;3.97527; -0.333595; -0.291147;0; 0; 0; 0; 0; 0; 0; 0; 0; 0; 200; 228; 1024; 1024; 1024; 228; 1024; 1024; 1024; 1; 4; 0; 1900; 50; 35; 0; 0; 0; 0; 0; 0; 0; 
179686;179696;2019/05/25 18:50:38;-1; -1; -1; -1; -1; 100; 0; 0; 0; 0; 0;0; 0; 0;0; 0; 0;0; 0; 0;487; 190; 12.3517; 517.802; 186.42; 0; 4; 1; -0.238704; -0.887538; -1.49924;-0.360561; -0.857952; -1.46895;2.27181; -0.188585; -0.221593;2.97155; -0.557735; -0.510762;0; 0; 0; 0; 0; 0; 0; 0; 0; 0; 200; 228; 1024; 1024; 1024; 228; 1024; 1024; 1024; 1; 4; 0; 1900; 50; 35; 0; 0; 0; 0; 0; 0; 0; 
179687;179697;2019/05/25 18:50:38;-1; -1; -1; -1; -1; 100; 0; 0; 0; 0; 0;0; 0; 0;0; 0; 0;0; 0; 0;487; 190; 12.3517; 502.487; 187.656; 1; 0; 1; -0.238704; -0.887538; -1.49924;-0.360561; -0.857952; -1.46895;2.27181; -0.188585; -0.221593;2.97155; -0.557735; -0.510762;0; 0; 0; 0; 0; 0; 0; 0; 0; 0; 200; 228; 1024; 1024; 1024; 228; 1024; 1024; 1024; 1; 4; 0; 1900; 50; 35; 0; 0; 0; 0; 0; 0; 0; 
179688;179698;2019/05/25 18:50:38;-1; -1; -1; -1; -1; 100; 0; 0; 0; 0; 0;0; 0; 0;0; 0; 0;0; 0; 0;469; 193; 12.426; 496.49; 187.817; 0; 1; 1; -0.164965; -0.891895; -1.48308;-0.301882; -0.868135; -1.47319;2.51727; -0.282295; -0.295673;3.3866; -1.05736; -0.969312;0; 0; 0; 0; 0; 0; 0; 0; 0; 0; 200; 228; 1024; 1024; 1024; 228; 1024; 1024; 1024; 1; 4; 0; 1900; 50; 35; 0; 0; 0; 0; 0; 0; 0; 
179689;179699;2019/05/25 18:50:38;-1; -1; -1; -1; -1; 100; 0; 0; 0; 0; 0;0; 0; 0;0; 0; 0;0; 0; 0;469; 193; 12.426; 481.888; 189.6; 1; 0; 1; -0.164965; -0.891895; -1.48308;-0.301882; -0.868135; -1.47319;2.51727; -0.282295; -0.295673;3.3866; -1.05736; -0.969312;0; 0; 0; 0; 0; 0; 0; 0; 0; 0; 200; 228; 1024; 1024; 1024; 228; 1024; 1024; 1024; 1; 4; 0; 1900; 50; 35; 0; 0; 0; 0; 0; 0; 0; 
179690;179700;2019/05/25 18:50:38;-1; -1; -1; -1; -1; 100; 0; 0; 0; 0; 0;0; 0; 0;0; 0; 0;0; 0; 0;469; 193; 12.426; 475.461; 189.828; 2; 0; 1; -0.164965; -0.891895; -1.48308;-0.301882; -0.868135; -1.47319;2.51727; -0.282295; -0.295673;3.3866; -1.05736; -0.969312;0; 0; 0; 0; 0; 0; 0; 0; 0; 0; 200; 228; 1024; 1024; 1024; 228; 1024; 1024; 1024; 1; 4; 0; 1900; 50; 35; 0; 0; 0; 0; 0; 0; 0; 
179691;179701;2019/05/25 18:50:38;-1; -1; -1; -1; -1; 100; 0; 0; 0; 0; 0;0; 0; 0;0; 0; 0;0; 0; 0;469; 193; 12.426; 469.126; 190.053; 3; 0; 1; -0.164965; -0.891895; -1.48308;-0.301882; -0.868135; -1.47319;2.51727; -0.282295; -0.295673;3.3866; -1.05736; -0.969312;0; 0; 0; 0; 0; 0; 0; 0; 0; 0; 200; 228; 1024; 1024; 1024; 228; 1024; 1024; 1024; 1; 4; 0; 1900; 50; 35; 0; 0; 0; 0; 0; 0; 0; 
179692;179702;2019/05/25 18:50:38;-1; -1; -1; -1; -1; 100; 0; 0; 0; 0; 0;0; 0; 0;0; 0; 0;0; 0; 0;434; 197.5; 12.298; 462.605; 190.284; 0; 1; 1; -0.0246111; -0.91582; -1.48759;-0.218701; -0.882441; -1.47751;2.42261; -0.325638; -0.30283;3.09064; -1.28014; -1.10936;0; 0; 0; 0; 0; 0; 0; 0; 0; 0; 200; 228; 1024; 1024; 1024; 228; 1024; 1024; 1024; 1; 4; 0; 1900; 50; 35; 0; 0; 0; 0; 0; 0; 0; 
179693;179703;2019/05/25 18:50:38;-1; -1; -1; -1; -1; 100; 0; 0; 0; 0; 0;0; 0; 0;0; 0; 0;0; 0; 0;426; 200; 12.15; 447.343; 192.781; 0; 2; 1; 0.00795803; -0.935207; -1.49957;-0.150703; -0.89827; -1.48413;2.39985; -0.387967; -0.321134;2.73721; -1.55798; -1.22739;0; 0; 0; 0; 0; 0; 0; 0; 0; 0; 200; 228; 1024; 1024; 1024; 228; 1024; 1024; 1024; 1; 4; 0; 1900; 50; 35; 0; 0; 0; 0; 0; 0; 0; 
179694;179704;2019/05/25 18:50:38;-1; -1; -1; -1; -1; 100; 0; 0; 0; 0; 0;0; 0; 0;0; 0; 0;0; 0; 0;416; 200; 11.5847; 433.91; 195.375; 0; 3; 1; 0.0514374; -0.980845; -1.57275;-0.0900609; -0.923043; -1.51071;2.36577; -0.44808; -0.354027;2.29622; -1.79159; -1.29914;0; 0; 0; 0; 0; 0; 0; 0; 0; 0; 200; 228; 1024; 1024; 1024; 228; 1024; 1024; 1024; 1; 4; 0; 1900; 50; 35; 0; 0; 0; 0; 0; 0; 0; 
179695;179705;2019/05/25 18:50:38;-1; -1; -1; -1; -1; 100; 0; 0; 0; 0; 0;0; 0; 0;0; 0; 0;0; 0; 0;408.4; 201.2; 12.1354; 421.173; 197.252; 0; 4; 1; 0.0803665; -0.940295; -1.49843;-0.0389327; -0.928218; -1.50703;2.31496; -0.46753; -0.334715;1.68449; -1.88977; -1.21106;0; 0; 0; 0; 0; 0; 0; 0; 0; 0; 200; 228; 1024; 1024; 1024; 228; 1024; 1024; 1024; 1; 4; 0; 1900; 50; 35; 0; 0; 0; 0; 0; 0; 0; 
179696;179706;2019/05/25 18:50:38;-1; -1; -1; -1; -1; 100; 0; 0; 0; 0; 0;0; 0; 0;0; 0; 0;0; 0; 0;400; 203; 11.4884; 409.924; 198.971; 0; 5; 1; 0.121392; -0.999515; -1.57813;0.00916467; -0.949607; -1.52836;2.27459; -0.500061; -0.343129;1.01735; -1.87995; -1.01775;0; 0; 0; 0; 0; 0; 0; 0; 0; 0; 200; 228; 1024; 1024; 1024; 228; 1024; 1024; 1024; 1; 4; 0; 1900; 50; 35; 0; 0; 0; 0; 0; 0; 0; 
179697;179707;2019/05/25 18:50:38;-1; -1; -1; -1; -1; 100; 0; 0; 0; 0; 0;0; 0; 0;0; 0; 0;0; 0; 0;393; 207; 12.3108; 399.517; 200.76; 0; 6; 1; 0.141667; -0.945747; -1.46301;0.0489154; -0.948449; -1.50876;2.30082; -0.514348; -0.300783;0.0328261; -1.74718; -0.624288;0; 0; 0; 0; 0; 0; 0; 0; 0; 0; 200; 228; 1024; 1024; 1024; 228; 1024; 1024; 1024; 1; 4; 0; 1900; 50; 35; 0; 0; 0; 0; 0; 0; 0; 
179698;179708;2019/05/25 18:50:38;-1; -1; -1; -1; -1; 100; 0; 0; 0; 0; 0;0; 0; 0;0; 0; 0;0; 0; 0;385; 209; 11.7934; 389.725; 203.327; 0; 7; 1; 0.181746; -0.99403; -1.52214;0.0887646; -0.962123; -1.51277;2.61216; -0.627807; -0.321727;0.778996; -2.25876; -0.450271;0; 0; 0; 0; 0; 0; 0; 0; 0; 0; 200; 228; 1024; 1024; 1024; 228; 1024; 1024; 1024; 1; 4; 0; 1900; 50; 35; 0; 0; 0; 0; 0; 0; 0; 
179699;179709;2019/05/25 18:50:38;-1; -1; -1; -1; -1; 100; 0; 0; 0; 0; 0;0; 0; 0;0; 0; 0;0; 0; 0;376.8; 213.6; 11.4706; 380.633; 205.783; 0; 8; 1; 0.222547; -1.03805; -1.55301;0.128899; -0.984902; -1.52484;2.68461; -0.722873; -0.355748;1.60534; -2.69357; -0.408485;0; 0; 0; 0; 0; 0; 0; 0; 0; 0; 200; 228; 1024; 1024; 1024; 228; 1024; 1024; 1024; 1; 4; 0; 1900; 50; 35; 0; 0; 0; 0; 0; 0; 0; 
179700;179710;2019/05/25 18:50:38;-1; -1; -1; -1; -1; 100; 0; 0; 0; 0; 0;0; 0; 0;0; 0; 0;0; 0; 0;376.8; 213.6; 11.4706; 371.873; 208.983; 1; 0; 1; 0.222547; -1.03805; -1.55301;0.128899; -0.984902; -1.52484;2.68461; -0.722873; -0.355748;1.60534; -2.69357; -0.408485;0; 0; 0; 0; 0; 0; 0; 0; 0; 0; 200; 228; 1024; 1024; 1024; 228; 1024; 1024; 1024; 1; 4; 0; 1900; 50; 35; 0; 0; 0; 0; 0; 0; 0; 
179701;179711;2019/05/25 18:50:38;-1; -1; -1; -1; -1; 100; 0; 0; 0; 0; 0;0; 0; 0;0; 0; 0;0; 0; 0;361.667; 222.333; 11.3154; 363.938; 209.845; 0; 1; 1; 0.292361; -1.08317; -1.55127;0.177938; -1.01438; -1.53277;2.52745; -0.746147; -0.288907;1.51622; -2.63567; -0.0223501;0; 0; 0; 0; 0; 0; 0; 0; 0; 0; 200; 228; 1024; 1024; 1024; 228; 1024; 1024; 1024; 1; 4; 0; 1900; 50; 35; 0; 0; 0; 0; 0; 0; 0; 
179702;179712;2019/05/25 18:50:38;-1; -1; -1; -1; -1; 100; 0; 0; 0; 0; 0;0; 0; 0;0; 0; 0;0; 0; 0;361.667; 222.333; 11.3154; 355.622; 214.635; 1; 0; 1; 0.292361; -1.08317; -1.55127;0.177938; -1.01438; -1.53277;2.52745; -0.746147; -0.288907;1.51622; -2.63567; -0.0223501;0; 0; 0; 0; 0; 0; 0; 0; 0; 0; 200; 228; 1024; 1024; 1024; 228; 1024; 1024; 1024; 1; 4; 0; 1900; 50; 35; 0; 0; 0; 0; 0; 0; 0; 
179703;179713;2019/05/25 18:50:38;-1; -1; -1; -1; -1; 100; 0; 0; 0; 0; 0;0; 0; 0;0; 0; 0;0; 0; 0;347; 230; 11.5081; 347.655; 215.67; 0; 1; 1; 0.351087; -1.09169; -1.50542;0.229883; -1.03758; -1.52457;2.32164; -0.775239; -0.225878;0.929739; -2.50306; 0.312583;0; 0; 0; 0; 0; 0; 0; 0; 0; 0; 200; 228; 1024; 1024; 1024; 228; 1024; 1024; 1024; 1; 4; 0; 1900; 50; 35; 0; 0; 0; 0; 0; 0; 0; 
179704;179714;2019/05/25 18:50:38;-1; -1; -1; -1; -1; 100; 0; 0; 0; 0; 0;0; 0; 0;0; 0; 0;0; 0; 0;339; 234; 11.5432; 339.708; 221.234; 0; 2; 1; 0.384615; -1.10224; -1.49049;0.276302; -1.05697; -1.51434;2.19313; -0.786732; -0.0935488;0.313849; -2.36049; 0.935103;0; 0; 0; 0; 0; 0; 0; 0; 0; 0; 200; 228; 1024; 1024; 1024; 228; 1024; 1024; 1024; 1; 4; 0; 1900; 50; 35; 0; 0; 0; 0; 0; 0; 0; 
179705;179715;2019/05/25 18:50:38;-1; -1; -1; -1; -1; 100; 0; 0; 0; 0; 0;0; 0; 0;0; 0; 0;0; 0; 0;332; 238; 11.5426; 331.849; 226.473; 0; 3; 1; 0.41491; -1.11616; -1.48023;0.317885; -1.07473; -1.50411;2.1215; -0.850283; -0.0422182;-0.348789; -2.4225; 1.33553;0; 0; 0; 0; 0; 0; 0; 0; 0; 0; 200; 228; 1024; 1024; 1024; 228; 1024; 1024; 1024; 1; 4; 0; 1900; 50; 35; 0; 0; 0; 0; 0; 0; 0; 
179706;179716;2019/05/25 18:50:38;-1; -1; -1; -1; -1; 100; 0; 0; 0; 0; 0;0; 0; 0;0; 0; 0;0; 0; 0;332; 238; 11.5426; 323.911; 231.553; 1; 0; 1; 0.41491; -1.11616; -1.48023;0.317885; -1.07473; -1.50411;2.1215; -0.850283; -0.0422182;-0.348789; -2.4225; 1.33553;0; 0; 0; 0; 0; 0; 0; 0; 0; 0; 200; 228; 1024; 1024; 1024; 228; 1024; 1024; 1024; 1; 4; 0; 1900; 50; 35; 0; 0; 0; 0; 0; 0; 0; 
179707;179717;2019/05/25 18:50:38;-1; -1; -1; -1; -1; 100; 0; 0; 0; 0; 0;0; 0; 0;0; 0; 0;0; 0; 0;314.667; 246.667; 11.661; 316.156; 233.082; 0; 1; 1; 0.484899; -1.13457; -1.44302;0.367989; -1.09268; -1.48578;2.01677; -0.85799; 0.0465647;-1.79541; -2.06672; 1.78247;0; 0; 0; 0; 0; 0; 0; 0; 0; 0; 200; 228; 1024; 1024; 1024; 228; 1024; 1024; 1024; 1; 4; 0; 1900; 50; 35; 0; 0; 0; 0; 0; 0; 0; 
179708;179718;2019/05/25 18:50:38;-1; -1; -1; -1; -1; 100; 0; 0; 0; 0; 0;0; 0; 0;0; 0; 0;0; 0; 0;314.667; 246.667; 11.661; 308.041; 238.909; 1; 0; 1; 0.484899; -1.13457; -1.44302;0.367989; -1.09268; -1.48578;2.01677; -0.85799; 0.0465647;-1.79541; -2.06672; 1.78247;0; 0; 0; 0; 0; 0; 0; 0; 0; 0; 200; 228; 1024; 1024; 1024; 228; 1024; 1024; 1024; 1; 4; 0; 1900; 50; 35; 0; 0; 0; 0; 0; 0; 0; 
179709;179719;2019/05/25 18:50:38;-1; -1; -1; -1; -1; 100; 0; 0; 0; 0; 0;0; 0; 0;0; 0; 0;0; 0; 0;298; 250; 11.8834; 300.036; 240.675; 0; 1; 1; 0.545836; -1.12456; -1.40764;0.421343; -1.10225; -1.46234;1.91056; -0.795873; 0.177652;-2.93135; -1.41489; 2.34715;0; 0; 0; 0; 0; 0; 0; 0; 0; 0; 200; 228; 1024; 1024; 1024; 228; 1024; 1024; 1024; 1; 4; 0; 1900; 50; 35; 0; 0; 0; 0; 0; 0; 0; 
179710;179720;2019/05/25 18:50:38;-1; -1; -1; -1; -1; 100; 0; 0; 0; 0; 0;0; 0; 0;0; 0; 0;0; 0; 0;298; 250; 11.8834; 291.726; 245.333; 1; 0; 1; 0.545836; -1.12456; -1.40764;0.421343; -1.10225; -1.46234;1.91056; -0.795873; 0.177652;-2.93135; -1.41489; 2.34715;0; 0; 0; 0; 0; 0; 0; 0; 0; 0; 200; 228; 1024; 1024; 1024; 228; 1024; 1024; 1024; 1; 4; 0; 1900; 50; 35; 0; 0; 0; 0; 0; 0; 0; 
179711;179721;2019/05/25 18:50:38;-1; -1; -1; -1; -1; 100; 0; 0; 0; 0; 0;0; 0; 0;0; 0; 0;0; 0; 0;298; 250; 11.8834; 283.693; 247.23; 2; 0; 1; 0.545836; -1.12456; -1.40764;0.421343; -1.10225; -1.46234;1.91056; -0.795873; 0.177652;-2.93135; -1.41489; 2.34715;0; 0; 0; 0; 0; 0; 0; 0; 0; 0; 200; 228; 1024; 1024; 1024; 228; 1024; 1024; 1024; 1; 4; 0; 1900; 50; 35; 0; 0; 0; 0; 0; 0; 0; 
179712;179722;2019/05/25 18:50:38;-1; -1; -1; -1; -1; 100; 0; 0; 0; 0; 0;0; 0; 0;0; 0; 0;0; 0; 0;272; 252; 12.5915; 275.889; 249.073; 0; 1; 1; 0.618221; -1.06768; -1.32375;0.480407; -1.09188; -1.42076;1.80533; -0.646363; 0.350627;-3.3321; -0.631536; 2.80166;0; 0; 0; 0; 0; 0; 0; 0; 0; 0; 200; 228; 1024; 1024; 1024; 228; 1024; 1024; 1024; 1; 4; 0; 1900; 50; 35; 0; 0; 0; 0; 0; 0; 0; 
179713;179723;2019/05/25 18:50:38;-1; -1; -1; -1; -1; 100; 0; 0; 0; 0; 0;0; 0; 0;0; 0; 0;0; 0; 0;272; 252; 12.5915; 266.962; 251.821; 1; 0; 1; 0.618221; -1.06768; -1.32375;0.480407; -1.09188; -1.42076;1.80533; -0.646363; 0.350627;-3.3321; -0.631536; 2.80166;0; 0; 0; 0; 0; 0; 0; 0; 0; 0; 200; 228; 1024; 1024; 1024; 228; 1024; 1024; 1024; 1; 4; 0; 1900; 50; 35; 0; 0; 0; 0; 0; 0; 0; 
179714;179724;2019/05/25 18:50:38;-1; -1; -1; -1; -1; 100; 0; 0; 0; 0; 0;0; 0; 0;0; 0; 0;0; 0; 0;255.333; 252.667; 12.5103; 258.874; 253.759; 0; 1; 1; 0.688735; -1.07674; -1.33074;0.542905; -1.08734; -1.39376;1.76519; -0.496231; 0.495372;-3.21161; 0.228959; 3.2524;0; 0; 0; 0; 0; 0; 0; 0; 0; 0; 200; 228; 1024; 1024; 1024; 228; 1024; 1024; 1024; 1; 4; 0; 1900; 50; 35; 0; 0; 0; 0; 0; 0; 0; 
179715;179725;2019/05/25 18:50:38;-1; -1; -1; -1; -1; 100; 0; 0; 0; 0; 0;0; 0; 0;0; 0; 0;0; 0; 0;255.333; 252.667; 12.5103; 250.004; 255.266; 1; 0; 1; 0.688735; -1.07674; -1.33074;0.542905; -1.08734; -1.39376;1.76519; -0.496231; 0.495372;-3.21161; 0.228959; 3.2524;0; 0; 0; 0; 0; 0; 0; 0; 0; 0; 200; 228; 1024; 1024; 1024; 228; 1024; 1024; 1024; 1; 4; 0; 1900; 50; 35; 0; 0; 0; 0; 0; 0; 0; 
179716;179726;2019/05/25 18:50:38;-1; -1; -1; -1; -1; 100; 0; 0; 0; 0; 0;0; 0; 0;0; 0; 0;0; 0; 0;255.333; 252.667; 12.5103; 242.098; 257.134; 2; 0; 1; 0.688735; -1.07674; -1.33074;0.542905; -1.08734; -1.39376;1.76519; -0.496231; 0.495372;-3.21161; 0.228959; 3.2524;0; 0; 0; 0; 0; 0; 0; 0; 0; 0; 200; 228; 1024; 1024; 1024; 228; 1024; 1024; 1024; 1; 4; 0; 1900; 50; 35; 0; 0; 0; 0; 0; 0; 0; 
179717;179727;2019/05/25 18:50:38;-1; -1; -1; -1; -1; 100; 0; 0; 0; 0; 0;0; 0; 0;0; 0; 0;0; 0; 0;228.4; 252.8; 12.3254; 233.959; 259.057; 0; 1; 1; 0.808151; -1.09332; -1.35038;0.622479; -1.08913; -1.38075;1.69711; -0.357006; 0.543441;-2.84111; 0.929348; 3.12539;0; 0; 0; 0; 0; 0; 0; 0; 0; 0; 200; 228; 1024; 1024; 1024; 228; 1024; 1024; 1024; 1; 4; 0; 1900; 50; 35; 0; 0; 0; 0; 0; 0; 0; 
179718;179728;2019/05/25 18:50:38;-1; -1; -1; -1; -1; 100; 0; 0; 0; 0; 0;0; 0; 0;0; 0; 0;0; 0; 0;221; 252; 12.5376; 224.397; 258.903; 0; 2; 1; 0.823936; -1.07226; -1.32943;0.682916; -1.08407; -1.36535;1.69101; -0.231418; 0.581795;-2.49806; 1.69816; 3.02527;0; 0; 0; 0; 0; 0; 0; 0; 0; 0; 200; 228; 1024; 1024; 1024; 228; 1024; 1024; 1024; 1; 4; 0; 1900; 50; 35; 0; 0; 0; 0; 0; 0; 0; 
179719;179729;2019/05/25 18:50:38;-1; -1; -1; -1; -1; 100; 0; 0; 0; 0; 0;0; 0; 0;0; 0; 0;0; 0; 0;209; 252; 12.8218; 215.332; 258.486; 0; 3; 1; 0.852393; -1.0485; -1.29996;0.733759; -1.0734; -1.34573;1.74632; -0.100273; 0.629245;-2.03987; 2.5347; 2.98081;0; 0; 0; 0; 0; 0; 0; 0; 0; 0; 200; 228; 1024; 1024; 1024; 228; 1024; 1024; 1024; 1; 4; 0; 1900; 50; 35; 0; 0; 0; 0; 0; 0; 0; 
179720;179730;2019/05/25 18:50:38;-1; -1; -1; -1; -1; 100; 0; 0; 0; 0; 0;0; 0; 0;0; 0; 0;0; 0; 0;198.4; 253.2; 12.5291; 205.167; 258.131; 0; 4; 1; 0.914545; -1.07683; -1.32748;0.787995; -1.07443; -1.34026;1.84769; 0.000524074; 0.643886;-1.36109; 3.25826; 2.80563;0; 0; 0; 0; 0; 0; 0; 0; 0; 0; 200; 228; 1024; 1024; 1024; 228; 1024; 1024; 1024; 1; 4; 0; 1900; 50; 35; 0; 0; 0; 0; 0; 0; 0; 
179721;179731;2019/05/25 18:50:38;-1; -1; -1; -1; -1; 100; 0; 0; 0; 0; 0;0; 0; 0;0; 0; 0;0; 0; 0;190; 252; 12.4318; 194.893; 258.156; 0; 5; 1; 0.955428; -1.08139; -1.34075;0.838225; -1.07652; -1.34041;2.06342; 0.0413002; 0.600762;-0.127975; 3.78992; 2.35084;0; 0; 0; 0; 0; 0; 0; 0; 0; 0; 200; 228; 1024; 1024; 1024; 228; 1024; 1024; 1024; 1; 4; 0; 1900; 50; 35; 0; 0; 0; 0; 0; 0; 0; 
179722;179732;2019/05/25 18:50:38;-1; -1; -1; -1; -1; 100; 0; 0; 0; 0; 0;0; 0; 0;0; 0; 0;0; 0; 0;178.667; 253.333; 12.6261; 184.881; 257.767; 0; 6; 1; 0.985539; -1.06898; -1.31697;0.882419; -1.07426; -1.33337;2.25498; 0.063954; 0.54132;1.39026; 3.95185; 1.54813;0; 0; 0; 0; 0; 0; 0; 0; 0; 0; 200; 228; 1024; 1024; 1024; 228; 1024; 1024; 1024; 1; 4; 0; 1900; 50; 35; 0; 0; 0; 0; 0; 0; 0; 
179723;179733;2019/05/25 18:50:38;-1; -1; -1; -1; -1; 100; 0; 0; 0; 0; 0;0; 0; 0;0; 0; 0;0; 0; 0;178.667; 253.333; 12.6261; 174.742; 257.775; 1; 0; 1; 0.985539; -1.06898; -1.31697;0.882419; -1.07426; -1.33337;2.25498; 0.063954; 0.54132;1.39026; 3.95185; 1.54813;0; 0; 0; 0; 0; 0; 0; 0; 0; 0; 200; 228; 1024; 1024; 1024; 228; 1024; 1024; 1024; 1; 4; 0; 1900; 50; 35; 0; 0; 0; 0; 0; 0; 0; 
179724;179734;2019/05/25 18:50:38;-1; -1; -1; -1; -1; 100; 0; 0; 0; 0; 0;0; 0; 0;0; 0; 0;0; 0; 0;159.6; 252.8; 12.5079; 166.379; 259.159; 0; 1; 1; 1.07094; -1.07737; -1.33068;0.938977; -1.07519; -1.33257;2.44009; 0.0862555; 0.490277;3.38616; 3.89362; 0.746269;0; 0; 0; 0; 0; 0; 0; 0; 0; 0; 200; 228; 1024; 1024; 1024; 228; 1024; 1024; 1024; 1; 4; 0; 1900; 50; 35; 0; 0; 0; 0; 0; 0; 0; 
179725;179735;2019/05/25 18:50:38;-1; -1; -1; -1; -1; 100; 0; 0; 0; 0; 0;0; 0; 0;0; 0; 0;0; 0; 0;159.6; 252.8; 12.5079; 155.731; 258.535; 1; 0; 1; 1.07094; -1.07737; -1.33068;0.938977; -1.07519; -1.33257;2.44009; 0.0862555; 0.490277;3.38616; 3.89362; 0.746269;0; 0; 0; 0; 0; 0; 0; 0; 0; 0; 200; 228; 1024; 1024; 1024; 228; 1024; 1024; 1024; 1; 4; 0; 1900; 50; 35; 0; 0; 0; 0; 0; 0; 0; 
179726;179736;2019/05/25 18:50:38;-1; -1; -1; -1; -1; 100; 0; 0; 0; 0; 0;0; 0; 0;0; 0; 0;0; 0; 0;139; 252; 11.6662; 147.274; 259.83; 0; 1; 1; 1.23636; -1.15236; -1.42873;1.02819; -1.09834; -1.36142;2.49824; 0.00901164; 0.30595;4.44956; 3.05632; -0.378462;0; 0; 0; 0; 0; 0; 0; 0; 0; 0; 200; 228; 1024; 1024; 1024; 228; 1024; 1024; 1024; 1; 4; 0; 1900; 50; 35; 0; 0; 0; 0; 0; 0; 0; 
179727;179737;2019/05/25 18:50:38;-1; -1; -1; -1; -1; 100; 0; 0; 0; 0; 0;0; 0; 0;0; 0; 0;0; 0; 0;139; 252; 11.6662; 136.18; 258.63; 1; 0; 1; 1.23636; -1.15236; -1.42873;1.02819; -1.09834; -1.36142;2.49824; 0.00901164; 0.30595;4.44956; 3.05632; -0.378462;0; 0; 0; 0; 0; 0; 0; 0; 0; 0; 200; 228; 1024; 1024; 1024; 228; 1024; 1024; 1024; 1; 4; 0; 1900; 50; 35; 0; 0; 0; 0; 0; 0; 0; 
179728;179738;2019/05/25 18:50:38;-1; -1; -1; -1; -1; 100; 0; 0; 0; 0; 0;0; 0; 0;0; 0; 0;0; 0; 0;120.667; 251.333; 12.7887; 127.482; 259.835; 0; 1; 1; 1.19941; -1.04913; -1.30489;1.07956; -1.08358; -1.34446;2.41867; -0.0216669; 0.186962;4.45802; 2.04286; -1.40344;0; 0; 0; 0; 0; 0; 0; 0; 0; 0; 200; 228; 1024; 1024; 1024; 228; 1024; 1024; 1024; 1; 4; 0; 1900; 50; 35; 0; 0; 0; 0; 0; 0; 0; 
179729;179739;2019/05/25 18:50:38;-1; -1; -1; -1; -1; 100; 0; 0; 0; 0; 0;0; 0; 0;0; 0; 0;0; 0; 0;120.667; 251.333; 12.7887; 116.737; 258.311; 1; 0; 1; 1.19941; -1.04913; -1.30489;1.07956; -1.08358; -1.34446;2.41867; -0.0216669; 0.186962;4.45802; 2.04286; -1.40344;0; 0; 0; 0; 0; 0; 0; 0; 0; 0; 200; 228; 1024; 1024; 1024; 228; 1024; 1024; 1024; 1; 4; 0; 1900; 50; 35; 0; 0; 0; 0; 0; 0; 0; 
179730;179740;2019/05/25 18:50:38;-1; -1; -1; -1; -1; 100; 0; 0; 0; 0; 0;0; 0; 0;0; 0; 0;0; 0; 0;120.667; 251.333; 12.7887; 107.944; 259.396; 2; 0; 1; 1.19941; -1.04913; -1.30489;1.07956; -1.08358; -1.34446;2.41867; -0.0216669; 0.186962;4.45802; 2.04286; -1.40344;0; 0; 0; 0; 0; 0; 0; 0; 0; 0; 200; 228; 1024; 1024; 1024; 228; 1024; 1024; 1024; 1; 4; 0; 1900; 50; 35; 0; 0; 0; 0; 0; 0; 0; 
179731;179741;2019/05/25 18:50:38;-1; -1; -1; -1; -1; 100; 0; 0; 0; 0; 0;0; 0; 0;0; 0; 0;0; 0; 0;120.667; 251.333; 12.7887; 99.2786; 260.466; 3; 0; 1; 1.19941; -1.04913; -1.30489;1.07956; -1.08358; -1.34446;2.41867; -0.0216669; 0.186962;4.45802; 2.04286; -1.40344;0; 0; 0; 0; 0; 0; 0; 0; 0; 0; 200; 228; 1024; 1024; 1024; 228; 1024; 1024; 1024; 1; 4; 0; 1900; 50; 35; 0; 0; 0; 0; 0; 0; 0; 
179732;179742;2019/05/25 18:50:38;-1; -1; -1; -1; -1; 100; 0; 0; 0; 0; 0;0; 0; 0;0; 0; 0;0; 0; 0;120.667; 251.333; 12.7887; 90.6131; 261.536; 4; 0; 1; 1.19941; -1.04913; -1.30489;1.07956; -1.08358; -1.34446;2.41867; -0.0216669; 0.186962;4.45802; 2.04286; -1.40344;0; 0; 0; 0; 0; 0; 0; 0; 0; 0; 200; 228; 1024; 1024; 1024; 228; 1024; 1024; 1024; 1; 4; 0; 1900; 50; 35; 0; 0; 0; 0; 0; 0; 0; 
179733;179743;2019/05/25 18:50:38;-1; -1; -1; -1; -1; 100; 0; 0; 0; 0; 0;0; 0; 0;0; 0; 0;0; 0; 0;70.3333; 248.333; 12.5649; 81.8201; 262.621; 0; 1; 1; 1.42073; -1.05826; -1.33525;1.18191; -1.07598; -1.3417;2.17718; -0.0158631; 0.109527;3.28204; 1.19552; -1.82687;0; 0; 0; 0; 0; 0; 0; 0; 0; 0; 200; 228; 1024; 1024; 1024; 228; 1024; 1024; 1024; 1; 4; 0; 1900; 50; 35; 0; 0; 0; 0; 0; 0; 0; 
179734;179744;2019/05/25 18:50:38;-1; -1; -1; -1; -1; 100; 0; 0; 0; 0; 0;0; 0; 0;0; 0; 0;0; 0; 0;70.3333; 248.333; 12.5649; 69.4901; 259.133; 1; 0; 1; 1.42073; -1.05826; -1.33525;1.18191; -1.07598; -1.3417;2.17718; -0.0158631; 0.109527;3.28204; 1.19552; -1.82687;0; 0; 0; 0; 0; 0; 0; 0; 0; 0; 200; 228; 1024; 1024; 1024; 228; 1024; 1024; 1024; 1; 4; 0; 1900; 50; 35; 0; 0; 0; 0; 0; 0; 0; 
179735;179745;2019/05/25 18:50:38;-1; -1; -1; -1; -1; 100; 0; 0; 0; 0; 0;0; 0; 0;0; 0; 0;0; 0; 0;70.3333; 248.333; 12.5649; 60.7952; 259.992; 2; 0; 1; 1.42073; -1.05826; -1.33525;1.18191; -1.07598; -1.3417;2.17718; -0.0158631; 0.109527;3.28204; 1.19552; -1.82687;0; 0; 0; 0; 0; 0; 0; 0; 0; 0; 200; 228; 1024; 1024; 1024; 228; 1024; 1024; 1024; 1; 4; 0; 1900; 50; 35; 0; 0; 0; 0; 0; 0; 0; 
179736;179746;2019/05/25 18:50:39;-1; -1; -1; -1; -1; 100; 0; 0; 0; 0; 0;0; 0; 0;0; 0; 0;0; 0; 0;70.3333; 248.333; 12.5649; 51.711; 260.889; 3; 0; 1; 1.42073; -1.05826; -1.33525;1.18191; -1.07598; -1.3417;2.17718; -0.0158631; 0.109527;3.28204; 1.19552; -1.82687;0; 0; 0; 0; 0; 0; 0; 0; 0; 0; 200; 228; 1024; 1024; 1024; 228; 1024; 1024; 1024; 1; 4; 0; 1900; 50; 35; 0; 0; 0; 0; 0; 0; 0; 
179737;179747;2019/05/25 18:50:39;-1; -1; -1; -1; -1; 100; 0; 0; 0; 0; 0;0; 0; 0;0; 0; 0;0; 0; 0;70.3333; 248.333; 12.5649; 42.8863; 261.761; 4; 0; 1; 1.42073; -1.05826; -1.33525;1.18191; -1.07598; -1.3417;2.17718; -0.0158631; 0.109527;3.28204; 1.19552; -1.82687;0; 0; 0; 0; 0; 0; 0; 0; 0; 0; 200; 228; 1024; 1024; 1024; 228; 1024; 1024; 1024; 1; 4; 0; 1900; 50; 35; 0; 0; 0; 0; 0; 0; 0; 
179738;179748;2019/05/25 18:50:39;-1; -1; -1; -1; -1; 100; 0; 0; 0; 0; 0;0; 0; 0;0; 0; 0;0; 0; 0;70.3333; 248.333; 12.5649; 34.1914; 262.62; 5; 0; 1; 1.42073; -1.05826; -1.33525;1.18191; -1.07598; -1.3417;2.17718; -0.0158631; 0.109527;3.28204; 1.19552; -1.82687;0; 0; 0; 0; 0; 0; 0; 0; 0; 0; 200; 228; 1024; 1024; 1024; 228; 1024; 1024; 1024; 1; 4; 0; 1900; 50; 35; 0; 0; 0; 0; 0; 0; 0; 
179739;179749;2019/05/25 18:50:39;-1; -1; -1; -1; -1; 100; 0; 0; 0; 0; 0;0; 0; 0;0; 0; 0;0; 0; 0;70.3333; 248.333; 12.5649; 25.1072; 263.518; 6; 0; 1; 1.42073; -1.05826; -1.33525;1.18191; -1.07598; -1.3417;2.17718; -0.0158631; 0.109527;3.28204; 1.19552; -1.82687;0; 0; 0; 0; 0; 0; 0; 0; 0; 0; 200; 228; 1024; 1024; 1024; 228; 1024; 1024; 1024; 1; 4; 0; 1900; 50; 35; 0; 0; 0; 0; 0; 0; 0; 
179740;179750;2019/05/25 18:50:39;-1; -1; -1; -1; -1; 100; 0; 0; 0; 0; 0;0; 0; 0;0; 0; 0;0; 0; 0;70.3333; 248.333; 12.5649; 16.4123; 264.377; 7; 0; 1; 1.42073; -1.05826; -1.33525;1.18191; -1.07598; -1.3417;2.17718; -0.0158631; 0.109527;3.28204; 1.19552; -1.82687;0; 0; 0; 0; 0; 0; 0; 0; 0; 0; 200; 228; 1024; 1024; 1024; 228; 1024; 1024; 1024; 1; 4; 0; 1900; 50; 35; 0; 0; 0; 0; 0; 0; 0; 
179741;179751;2019/05/25 18:50:39;-1; -1; -1; -1; -1; 100; 0; 0; 0; 0; 0;0; 0; 0;0; 0; 0;0; 0; 0;70.3333; 248.333; 12.5649; 7.32811; 265.274; 8; 0; 1; 1.42073; -1.05826; -1.33525;1.18191; -1.07598; -1.3417;2.17718; -0.0158631; 0.109527;3.28204; 1.19552; -1.82687;0; 0; 0; 0; 0; 0; 0; 0; 0; 0; 200; 228; 1024; 1024; 1024; 228; 1024; 1024; 1024; 1; 4; 0; 1900; 50; 35; 0; 0; 0; 0; 0; 0; 0; 
179742;179752;2019/05/25 18:50:39;-1; -1; -1; -1; -1; 100; 0; 0; 0; 0; 0;0; 0; 0;0; 0; 0;0; 0; 0;70.3333; 248.333; 12.5649; -1.49655; 266.146; 9; 0; 1; 1.42073; -1.05826; -1.33525;1.18191; -1.07598; -1.3417;2.17718; -0.0158631; 0.109527;3.28204; 1.19552; -1.82687;0; 0; 0; 0; 0; 0; 0; 0; 0; 0; 200; 228; 1024; 1024; 1024; 228; 1024; 1024; 1024; 1; 4; 0; 1900; 50; 35; 0; 0; 0; 0; 0; 0; 0; 
179743;179753;2019/05/25 18:50:39;-1; -1; -1; -1; -1; 100; 0; 0; 0; 0; 0;0; 0; 0;0; 0; 0;0; 0; 0;70.3333; 248.333; 12.5649; -10.1914; 267.005; 10; 0; 0; 0; 0; 0;0; 0; 0;0; 0; 0;0; 0; 0;0; 0; 0; 0; 0; 0; 0; 0; 0; 0; 200; 228; 1024; 1024; 1024; 228; 1024; 1024; 1024; 1; 4; 0; 1900; 50; 35; 0; 0; 0; 0; 0; 0; 0; 
179744;179754;2019/05/25 18:50:39;-1; -1; -1; -1; -1; 100; 0; 0; 0; 0; 0;0; 0; 0;0; 0; 0;0; 0; 0;70.3333; 248.333; 12.5649; -1; -1; 11; 0; 0; 0; 0; 0;0; 0; 0;0; 0; 0;0; 0; 0;0; 0; 0; 0; 0; 0; 0; 0; 0; 0; 200; 228; 1024; 1024; 1024; 228; 1024; 1024; 1024; 1; 4; 0; 1900; 50; 35; 0; 0; 0; 0; 0; 0; 0; 
179745;179755;2019/05/25 18:50:39;-1; -1; -1; -1; -1; 100; 0; 0; 0; 0; 0;0; 0; 0;0; 0; 0;0; 0; 0;70.3333; 248.333; 12.5649; -1; -1; 12; 0; 0; 0; 0; 0;0; 0; 0;0; 0; 0;0; 0; 0;0; 0; 0; 0; 0; 0; 0; 0; 0; 0; 200; 228; 1024; 1024; 1024; 228; 1024; 1024; 1024; 1; 4; 0; 1900; 50; 35; 0; 0; 0; 0; 0; 0; 0; 
179746;179756;2019/05/25 18:50:39;-1; -1; -1; -1; -1; 100; 0; 0; 0; 0; 0;0; 0; 0;0; 0; 0;0; 0; 0;70.3333; 248.333; 12.5649; -1; -1; 13; 0; 0; 0; 0; 0;0; 0; 0;0; 0; 0;0; 0; 0;0; 0; 0; 0; 0; 0; 0; 0; 0; 0; 200; 228; 1024; 1024; 1024; 228; 1024; 1024; 1024; 1; 4; 0; 1900; 50; 35; 0; 0; 0; 0; 0; 0; 0; 
179747;179757;2019/05/25 18:50:39;-1; -1; -1; -1; -1; 100; 0; 0; 0; 0; 0;0; 0; 0;0; 0; 0;0; 0; 0;70.3333; 248.333; 12.5649; -1; -1; 14; 0; 0; 0; 0; 0;0; 0; 0;0; 0; 0;0; 0; 0;0; 0; 0; 0; 0; 0; 0; 0; 0; 0; 200; 228; 1024; 1024; 1024; 228; 1024; 1024; 1024; 1; 4; 0; 1900; 50; 35; 0; 0; 0; 0; 0; 0; 0; 
179748;179758;2019/05/25 18:50:39;-1; -1; -1; -1; -1; 100; 0; 0; 0; 0; 0;0; 0; 0;0; 0; 0;0; 0; 0;70.3333; 248.333; 12.5649; -1; -1; 15; 0; 0; 0; 0; 0;0; 0; 0;0; 0; 0;0; 0; 0;0; 0; 0; 0; 0; 0; 0; 0; 0; 0; 200; 228; 1024; 1024; 1024; 228; 1024; 1024; 1024; 1; 4; 0; 1900; 50; 35; 0; 0; 0; 0; 0; 0; 0; 
179749;179759;2019/05/25 18:50:39;-1; -1; -1; -1; -1; 100; 0; 0; 0; 0; 0;0; 0; 0;0; 0; 0;0; 0; 0;70.3333; 248.333; 12.5649; -1; -1; 16; 0; 0; 0; 0; 0;0; 0; 0;0; 0; 0;0; 0; 0;0; 0; 0; 0; 0; 0; 0; 0; 0; 0; 200; 228; 1024; 1024; 1024; 228; 1024; 1024; 1024; 1; 4; 0; 1900; 50; 35; 0; 0; 0; 0; 0; 0; 0; 
179750;179760;2019/05/25 18:50:39;-1; -1; -1; -1; -1; 100; 0; 0; 0; 0; 0;0; 0; 0;0; 0; 0;0; 0; 0;70.3333; 248.333; 12.5649; -1; -1; 17; 0; 0; 0; 0; 0;0; 0; 0;0; 0; 0;0; 0; 0;0; 0; 0; 0; 0; 0; 0; 0; 0; 0; 200; 228; 1024; 1024; 1024; 228; 1024; 1024; 1024; 1; 4; 0; 1900; 50; 35; 0; 0; 0; 0; 0; 0; 0; 
179751;179761;2019/05/25 18:50:39;-1; -1; -1; -1; -1; 100; 0; 0; 0; 0; 0;0; 0; 0;0; 0; 0;0; 0; 0;70.3333; 248.333; 12.5649; -1; -1; 18; 0; 0; 0; 0; 0;0; 0; 0;0; 0; 0;0; 0; 0;0; 0; 0; 0; 0; 0; 0; 0; 0; 0; 200; 228; 1024; 1024; 1024; 228; 1024; 1024; 1024; 1; 4; 0; 1900; 50; 35; 0; 0; 0; 0; 0; 0; 0; 
179752;179762;2019/05/25 18:50:39;-1; -1; -1; -1; -1; 100; 0; 0; 0; 0; 0;0; 0; 0;0; 0; 0;0; 0; 0;70.3333; 248.333; 12.5649; -1; -1; 19; 0; 0; 0; 0; 0;0; 0; 0;0; 0; 0;0; 0; 0;0; 0; 0; 0; 0; 0; 0; 0; 0; 0; 200; 228; 1024; 1024; 1024; 228; 1024; 1024; 1024; 1; 4; 0; 1900; 50; 35; 0; 0; 0; 0; 0; 0; 0; 
179753;179763;2019/05/25 18:50:39;-1; -1; -1; -1; -1; 100; 0; 0; 0; 0; 0;0; 0; 0;0; 0; 0;0; 0; 0;70.3333; 248.333; 12.5649; -1; -1; 20; 0; 0; 0; 0; 0;0; 0; 0;0; 0; 0;0; 0; 0;0; 0; 0; 0; 0; 0; 0; 0; 0; 0; 200; 228; 1024; 1024; 1024; 228; 1024; 1024; 1024; 1; 4; 0; 1900; 50; 35; 0; 0; 0; 0; 0; 0; 0; 
179754;179764;2019/05/25 18:50:39;-1; -1; -1; -1; -1; 100; 0; 0; 0; 0; 0;0; 0; 0;0; 0; 0;0; 0; 0;70.3333; 248.333; 12.5649; -1; -1; 21; 0; 0; 0; 0; 0;0; 0; 0;0; 0; 0;0; 0; 0;0; 0; 0; 0; 0; 0; 0; 0; 0; 0; 200; 228; 1024; 1024; 1024; 228; 1024; 1024; 1024; 1; 4; 0; 1900; 50; 35; 0; 0; 0; 0; 0; 0; 0; 
179755;179765;2019/05/25 18:50:39;-1; -1; -1; -1; -1; 100; 0; 0; 0; 0; 0;0; 0; 0;0; 0; 0;0; 0; 0;70.3333; 248.333; 12.5649; -1; -1; 22; 0; 0; 0; 0; 0;0; 0; 0;0; 0; 0;0; 0; 0;0; 0; 0; 0; 0; 0; 0; 0; 0; 0; 200; 228; 1024; 1024; 1024; 228; 1024; 1024; 1024; 1; 4; 0; 1900; 50; 35; 0; 0; 0; 0; 0; 0; 0; 
179756;179766;2019/05/25 18:50:39;-1; -1; -1; -1; -1; 100; 0; 0; 0; 0; 0;0; 0; 0;0; 0; 0;0; 0; 0;70.3333; 248.333; 12.5649; -1; -1; 23; 0; 0; 0; 0; 0;0; 0; 0;0; 0; 0;0; 0; 0;0; 0; 0; 0; 0; 0; 0; 0; 0; 0; 200; 228; 1024; 1024; 1024; 228; 1024; 1024; 1024; 1; 4; 0; 1900; 50; 35; 0; 0; 0; 0; 0; 0; 0; 
179757;179767;2019/05/25 18:50:39;-1; -1; -1; -1; -1; 100; 0; 0; 0; 0; 0;0; 0; 0;0; 0; 0;0; 0; 0;70.3333; 248.333; 12.5649; -1; -1; 24; 0; 0; 0; 0; 0;0; 0; 0;0; 0; 0;0; 0; 0;0; 0; 0; 0; 0; 0; 0; 0; 0; 0; 200; 228; 1024; 1024; 1024; 228; 1024; 1024; 1024; 1; 4; 0; 1900; 50; 35; 0; 0; 0; 0; 0; 0; 0; 
179758;179768;2019/05/25 18:50:39;-1; -1; -1; -1; -1; 100; 0; 0; 0; 0; 0;0; 0; 0;0; 0; 0;0; 0; 0;70.3333; 248.333; 12.5649; -1; -1; 25; 0; 0; 0; 0; 0;0; 0; 0;0; 0; 0;0; 0; 0;0; 0; 0; 0; 0; 0; 0; 0; 0; 0; 200; 228; 1024; 1024; 1024; 228; 1024; 1024; 1024; 1; 4; 0; 1900; 50; 35; 0; 0; 0; 0; 0; 0; 0; 
179759;179769;2019/05/25 18:50:39;-1; -1; -1; -1; -1; 100; 0; 0; 0; 0; 0;0; 0; 0;0; 0; 0;0; 0; 0;70.3333; 248.333; 12.5649; -1; -1; 26; 0; 0; 0; 0; 0;0; 0; 0;0; 0; 0;0; 0; 0;0; 0; 0; 0; 0; 0; 0; 0; 0; 0; 200; 228; 1024; 1024; 1024; 228; 1024; 1024; 1024; 1; 4; 0; 1900; 50; 35; 0; 0; 0; 0; 0; 0; 0; 
179760;179770;2019/05/25 18:50:39;-1; -1; -1; -1; -1; 100; 0; 0; 0; 0; 0;0; 0; 0;0; 0; 0;0; 0; 0;70.3333; 248.333; 12.5649; -1; -1; 27; 0; 0; 0; 0; 0;0; 0; 0;0; 0; 0;0; 0; 0;0; 0; 0; 0; 0; 0; 0; 0; 0; 0; 200; 228; 1024; 1024; 1024; 228; 1024; 1024; 1024; 1; 4; 0; 1900; 50; 35; 0; 0; 0; 0; 0; 0; 0; 
179761;179771;2019/05/25 18:50:39;-1; -1; -1; -1; -1; 100; 0; 0; 0; 0; 0;0; 0; 0;0; 0; 0;0; 0; 0;70.3333; 248.333; 12.5649; -1; -1; 28; 0; 0; 0; 0; 0;0; 0; 0;0; 0; 0;0; 0; 0;0; 0; 0; 0; 0; 0; 0; 0; 0; 0; 200; 228; 1024; 1024; 1024; 228; 1024; 1024; 1024; 1; 4; 0; 1900; 50; 35; 0; 0; 0; 0; 0; 0; 0; 
179762;179772;2019/05/25 18:50:39;-1; -1; -1; -1; -1; 100; 0; 0; 0; 0; 0;0; 0; 0;0; 0; 0;0; 0; 0;70.3333; 248.333; 12.5649; -1; -1; 29; 0; 0; 0; 0; 0;0; 0; 0;0; 0; 0;0; 0; 0;0; 0; 0; 0; 0; 0; 0; 0; 0; 0; 200; 228; 1024; 1024; 1024; 228; 1024; 1024; 1024; 1; 4; 0; 1900; 50; 35; 0; 0; 0; 0; 0; 0; 0; 
179763;179773;2019/05/25 18:50:39;-1; -1; -1; -1; -1; 100; 0; 0; 0; 0; 0;0; 0; 0;0; 0; 0;0; 0; 0;70.3333; 248.333; 12.5649; -1; -1; 30; 0; 0; 0; 0; 0;0; 0; 0;0; 0; 0;0; 0; 0;0; 0; 0; 0; 0; 0; 0; 0; 0; 0; 200; 228; 1024; 1024; 1024; 228; 1024; 1024; 1024; 1; 4; 0; 1900; 50; 35; 0; 0; 0; 0; 0; 0; 0; 
179764;179774;2019/05/25 18:50:39;-1; -1; -1; -1; -1; 100; 0; 0; 0; 0; 0;0; 0; 0;0; 0; 0;0; 0; 0;-1; -1; -1; -1; -1; 31; 0; 0; 0; 0; 0;0; 0; 0;0; 0; 0;0; 0; 0;0; 0; 0; 0; 0; 0; 0; 0; 0; 0; 200; 228; 1024; 1024; 1024; 228; 1024; 1024; 1024; 1; 4; 0; 1900; 50; 35; 0; 0; 0; 0; 0; 0; 0; 
179765;179775;2019/05/25 18:50:39;-1; -1; -1; -1; -1; 100; 0; 0; 0; 0; 0;0; 0; 0;0; 0; 0;0; 0; 0;-1; -1; -1; -1; -1; 32; 0; 0; 0; 0; 0;0; 0; 0;0; 0; 0;0; 0; 0;0; 0; 0; 0; 0; 0; 0; 0; 0; 0; 200; 228; 1024; 1024; 1024; 228; 1024; 1024; 1024; 1; 4; 0; 1900; 50; 35; 0; 0; 0; 0; 0; 0; 0; 
