ID;RS_ID;time;imLx_drone; imLy_drone; disparity_drone; imLx_pred_drone; imLy_pred_drone; n_frames_lost_drone; n_frames_tracking_drone; foundL_drone; posX_drone; posY_drone; posZ_drone; sposX_drone; sposY_drone; sposZ_drone; svelX_drone; svelY_drone; svelZ_drone; saccX_drone; saccY_drone; saccZ_drone; imLx_insect; imLy_insect; disparity_insect; imLx_pred_insect; imLy_pred_insect; n_frames_lost_insect; n_frames_tracking_insect; foundL_insect; posX_insect; posY_insect; posZ_insect; sposX_insect; sposY_insect; sposZ_insect; svelX_insect; svelY_insect; svelZ_insect; saccX_insect; saccY_insect; saccZ_insect; valid; posErrX; posErrY; posErrZ; velX; velY; velZ; accX; accY; accZ; hoverthrottle; autoThrottle; autoRoll; autoPitch; autoYaw; joyThrottle; joyRoll; joyPitch; joyYaw; joyArmSwitch; joyModeSwitch; joyTakeoffSwitch; throttleP; throttleI; throttleD; dt; dx; dy; dz; velx_sp; vely_sp; velz_sp;
1070;1089;2019/06/20 10:35:00;419.304;364.696;8.37467;418.783;359.082;0;10;1;0.0227092;-2.00296;-1.71254;0.0267091;-2.00634;-1.70862;-0.0302983;-0.0627043;-0.15294;-0.183614;-0.630663;-1.22184;376;280;11.5148;380.097;279.281;0;30;1;0.204177;-1.14966;-2.55346;0.234891;-1.13259;-2.53173;-1.15876;-0.362191;0.26484;0.074774;-5.76421;8.75162;1;0.0267091;-2.00634;-1.5;0;0;0;0.20449;-30.9979;0.20449;900;900;1024;1024;1024;204;1024;1024;1024;1;3;0;1900;50;35;0.0166836;0;0;0;0.0507474;-3.81204;-2.85; 
1071;1090;2019/06/20 10:35:00;419.214;364.357;8.39375;419.352;358.737;0;11;1;0.0231929;-1.99672;-1.70975;0.0256543;-2.00345;-1.70896;-0.0399018;-0.0196977;-0.135803;-0.26961;-0.457107;-1.27576;379;283;11.5754;380.448;281.732;0;31;1;0.190175;-1.15446;-2.56812;0.221477;-1.13915;-2.54265;-1.09003;-0.418527;0.336888;0.927692;-5.53394;8.24297;1;0.0256543;-2.00345;-1.5;0;0;0;0.0884136;-30.61;0.0884136;900;900;1024;1024;1024;204;1024;1024;1024;1;3;0;1900;50;35;0.0166836;0;0;0;0.0487431;-3.80656;-2.85; 
1072;1091;2019/06/20 10:35:00;419.429;363.714;8.39083;419.288;358.336;0;12;1;0.0219266;-1.99422;-1.71244;0.024536;-2.00068;-1.71;-0.0482317;0.0331644;-0.106973;-0.354497;-0.141741;-1.19291;382;287;11.6989;383.195;285.088;0;32;1;0.175372;-1.15655;-2.59257;0.207645;-1.14437;-2.55762;-1.02787;-0.449671;0.411377;1.68238;-5.1581;7.4789;1;0.024536;-2.00068;-1.5;0;0;0;-0.016133;-30.1451;-0.016133;900;900;1024;1024;1024;204;1024;1024;1024;1;3;0;1900;50;35;0.0166836;0;0;0;0.0466184;-3.8013;-2.85; 
1073;1092;2019/06/20 10:35:00;419.5;363.4;8.38652;419.527;357.65;0;13;1;0.021513;-1.99368;-1.71434;0.0236291;-1.99858;-1.7113;-0.0546415;0.0631288;-0.0953908;-0.431039;0.16721;-1.09692;383.333;289.333;11.7351;385.983;289.394;0;33;1;0.169161;-1.16128;-2.60235;0.1961;-1.14944;-2.57104;-0.965925;-0.443232;0.501962;2.27692;-4.41686;6.88235;1;0.0236291;-1.99858;-1.5;0;0;0;-0.0974628;-29.8734;-0.0974628;750;1820;1013;352;1024;204;1024;1024;1024;1;3;0;1900;50;35;0.0166836;0;0;0;0.0448953;-3.7973;-2.85; 
1074;1093;2019/06/20 10:35:00;421.614;359.088;8.39953;419.616;357.302;0;14;1;0.0089206;-1.96916;-1.72572;0.0192165;-1.98975;-1.71563;-0.0739284;0.117799;-0.0979801;-0.511233;1.02007;-0.411538;384;292;11.8736;387.06;291.948;0;34;1;0.164386;-1.15711;-2.62479;0.186586;-1.15174;-2.58717;-0.895;-0.406991;0.597362;2.78424;-3.38795;6.4281;1;-0.14517;-0.842646;-0.34042;0.164386;-1.14711;-1.37521;5.45249;-8.60989;5.45249;750;1043;1070;579;1024;204;1024;1024;1024;1;3;0;1900;50;35;0.0166836;0;0;0;-0.275822;-1.60103;-0.646797; 
1075;1094;2019/06/20 10:35:00;422;358;8.38107;421.807;352.821;0;15;1;0.00664231;-1.96807;-1.73307;0.0154443;-1.98325;-1.72086;-0.096221;0.16871;-0.114433;-0.612669;1.65029;-0.0692067;385;294;11.8456;387.457;294.787;0;35;1;0.160563;-1.1669;-2.62615;0.178779;-1.15629;-2.59886;-0.813823;-0.36812;0.663886;3.26507;-2.27381;5.92078;1;-0.145118;-0.826355;-0.347011;0.160563;-1.1569;-1.37385;4.41877;-8.26596;4.41877;750;1048;1033;576;1024;204;1024;1024;1024;1;3;0;1900;50;35;0.0166836;0;0;0;-0.275725;-1.57008;-0.659322; 
1076;1095;2019/06/20 10:35:00;421.965;357.333;8.38042;422.26;351.6;0;16;1;0.0068518;-1.96491;-1.73537;0.0128665;-1.97775;-1.72521;-0.113047;0.215466;-0.134984;-0.69826;2.10173;0.0302296;387.6;296.8;11.9224;388.104;296.842;0;36;1;0.148646;-1.16918;-2.64142;0.169739;-1.16016;-2.61163;-0.748639;-0.331031;0.717608;3.59785;-1.23977;5.3617;1;-0.13578;-0.818563;-0.366633;0.148646;-1.15918;-1.35858;3.7761;-8.07017;3.7761;750;1066;1010;566;1024;204;1024;1024;1024;1;3;0;1900;50;35;0.0166836;0;0;0;-0.257982;-1.55527;-0.696602; 
1077;1096;2019/06/20 10:35:00;423;356;8.38717;422.272;350.79;0;17;1;0.000687951;-1.95669;-1.73832;0.00921295;-1.97143;-1.72915;-0.133527;0.257238;-0.161672;-0.793077;2.36766;-0.0852313;388.5;298;12.254;390.453;299.699;0;37;1;0.140959;-1.14163;-2.68086;0.161105;-1.1546;-2.6324;-0.690424;-0.26036;0.789214;3.75553;-0.11184;5.02449;1;-0.131746;-0.839796;-0.410006;0.140959;-1.13163;-1.31914;3.0658;-8.62411;3.0658;750;1127;988;532;1024;204;1024;1024;1024;1;3;0;1900;50;35;0.0166836;0;0;0;-0.250318;-1.59561;-0.779012; 
1078;1097;2019/06/20 10:35:00;423.407;355.111;8.38805;423.377;349.297;0;18;1;-0.00173576;-1.95206;-1.74104;0.00592834;-1.96562;-1.73271;-0.154471;0.294455;-0.187763;-0.900373;2.4647;-0.373972;390;300;12.0368;391.166;300.961;0;38;1;0.137284;-1.16917;-2.6616;0.153959;-1.15897;-2.64116;-0.628782;-0.214568;0.807331;3.84805;0.872354;4.5969;1;-0.131356;-0.80645;-0.394314;0.137284;-1.15917;-1.3384;2.24735;-8.18585;2.24735;750;1142;964;531;1024;204;1024;1024;1024;1;3;0;1900;50;35;0.0166836;0;0;0;-0.249576;-1.53225;-0.749197; 
1079;1098;2019/06/20 10:35:00;424;354;8.40529;423.848;348.268;0;19;1;-0.00525024;-1.94254;-1.74108;0.00257477;-1.95869;-1.73522;-0.176815;0.336061;-0.20824;-1.02842;2.56944;-0.675322;391.6;302.8;12.2414;392.365;302.827;0;39;1;0.128467;-1.15918;-2.69022;0.146311;-1.15903;-2.65588;-0.576222;-0.167069;0.823398;3.86606;1.62695;4.04259;1;-0.125892;-0.809517;-0.425445;0.128467;-1.14918;-1.30978;1.60211;-8.27962;1.60211;750;1173;946;516;1024;204;1024;1024;1024;1;3;0;1900;50;35;0.0166836;0;0;0;-0.239196;-1.53808;-0.808345; 
1080;1099;2019/06/20 10:35:00;424.222;352.978;8.3943;424.512;347.004;0;20;1;-0.00657815;-1.93999;-1.74669;-0.000171109;-1.95308;-1.73866;-0.183559;0.348167;-0.216982;-1.05512;2.46218;-0.880711;394;305;12.299;393.787;305.588;0;40;1;0.118128;-1.16122;-2.70124;0.137856;-1.15969;-2.66949;-0.540449;-0.131996;0.822982;3.73638;2.07501;3.3271;1;-0.118299;-0.801867;-0.439906;0.118128;-1.15122;-1.29876;1.32121;-8.34708;1.32121;750;1194;941;519;1024;204;1024;1024;1024;1;3;0;1900;50;35;0.0166855;0;0;0;-0.224769;-1.52355;-0.835821; 
1081;1100;2019/06/20 10:35:00;424.711;351.422;8.40926;424.755;345.937;0;21;1;-0.00946748;-1.92882;-1.74863;-0.00296002;-1.94581;-1.74165;-0.183677;0.358528;-0.213279;-0.982536;2.2358;-0.923404;394;306;12.38;396.059;307.704;0;41;1;0.117356;-1.15699;-2.71195;0.131706;-1.15888;-2.68223;-0.512366;-0.089555;0.826898;3.44641;2.35812;2.64763;1;-0.120316;-0.798812;-0.4536;0.117356;-1.14699;-1.28805;1.00089;-8.55728;1.00089;750;1217;941;527;1024;204;1024;1024;1024;1;3;0;1900;50;35;0.0166836;0;0;0;-0.2286;-1.51774;-0.861841; 
1082;1101;2019/06/20 10:35:00;425.583;350.875;8.45517;425.25;344.339;0;22;1;-0.0145635;-1.91565;-1.74091;-0.00644106;-1.93676;-1.74143;-0.187358;0.378911;-0.192765;-0.886465;1.99459;-0.784932;396.4;307.2;12.2657;395.949;308.607;0;42;1;0.108685;-1.17186;-2.70262;0.1248;-1.16277;-2.68834;-0.486994;-0.0641847;0.802688;3.11336;2.48118;1.92856;1;-0.115126;-0.774902;-0.444052;0.108685;-1.16186;-1.29738;0.808964;-8.23374;0.808964;750;1208;945;560;1024;204;1024;1024;1024;1;3;0;1900;50;35;0.0166817;0;0;0;-0.21874;-1.47231;-0.843699; 
1083;1102;2019/06/20 10:35:00;425.778;349.37;8.46426;426.146;343.749;0;23;1;-0.0156942;-1.90617;-1.7439;-0.00921701;-1.92758;-1.74217;-0.186059;0.402563;-0.167698;-0.741789;1.77746;-0.49504;398.8;309.6;12.3671;398.242;309.643;0;43;1;0.0981111;-1.17036;-2.71855;0.116793;-1.16505;-2.69741;-0.469261;-0.0802596;0.741381;2.75176;2.20836;0.965999;1;-0.107328;-0.767223;-0.460724;0.0981111;-1.16036;-1.28145;0.792792;-7.7992;0.792792;750;1177;956;600;1024;204;1024;1024;1024;1;3;0;1900;50;35;0.0166855;0;0;0;-0.203923;-1.45772;-0.875376; 
1084;1103;2019/06/20 10:35:00;427;349;8.47057;426.341;342.226;0;24;1;-0.0228827;-1.90292;-1.74379;-0.0133167;-1.92018;-1.74266;-0.188536;0.423094;-0.14035;-0.581192;1.5805;-0.107569;402;312;12.4687;400.612;311.953;0;44;1;0.0845051;-1.16886;-2.73426;0.107107;-1.16619;-2.70846;-0.468771;-0.0770056;0.713764;2.29044;1.8747;0.205717;1;-0.0978218;-0.761326;-0.476914;0.0845051;-1.15886;-1.26574;0.943739;-7.57136;0.943739;750;1155;972;630;1024;204;1024;1024;1024;1;3;0;1900;50;35;0.0166836;0;0;0;-0.185861;-1.44652;-0.906136; 
1085;1104;2019/06/20 10:35:00;428;348.3;8.47695;427.586;341.862;0;25;1;-0.0287519;-1.89804;-1.74474;-0.0179473;-1.91354;-1.74328;-0.195125;0.434283;-0.116408;-0.42188;1.34078;0.302409;402;313;12.6211;403.847;314.296;0;45;1;0.0834844;-1.15805;-2.75171;0.10002;-1.16375;-2.72144;-0.466236;-0.0650432;0.690223;1.81375;1.5325;-0.408719;1;-0.101432;-0.765494;-0.494992;0.0834844;-1.14805;-1.24829;0.783914;-7.6409;0.783914;750;1145;982;656;1024;204;1024;1024;1024;1;3;0;1900;50;35;0.0166836;0;0;0;-0.19272;-1.45444;-0.940484; 
1086;1105;2019/06/20 10:35:00;428.711;347.422;8.49816;428.618;341.177;0;26;1;-0.0328558;-1.88899;-1.74321;-0.0224198;-1.90618;-1.74326;-0.20598;0.448011;-0.0882127;-0.342719;1.20344;0.696002;405;315;12.5386;403.862;315.223;0;46;1;0.0720944;-1.17232;-2.74786;0.0916423;-1.16632;-2.72936;-0.464411;-0.0655265;0.653398;1.3921;1.18511;-0.922882;1;-0.0945142;-0.743855;-0.491119;0.0720944;-1.16232;-1.25214;0.788543;-7.19829;0.788543;750;1110;993;692;1024;204;1024;1024;1024;1;3;0;1900;50;35;0.0166836;0;0;0;-0.179577;-1.41332;-0.933127; 
1087;1106;2019/06/20 10:35:00;429.614;347.228;8.50402;429.372;340.303;0;27;1;-0.0381313;-1.88674;-1.74263;-0.0271333;-1.90034;-1.74307;-0.220183;0.450466;-0.0585848;-0.351507;1.08945;1.03575;407;317;12.5467;406.863;317.113;0;47;1;0.0640939;-1.17823;-2.75302;0.0833778;-1.16989;-2.73646;-0.471764;-0.0833191;0.608761;0.997499;0.735983;-1.42539;1;-0.0912271;-0.732119;-0.496089;0.0640939;-1.16823;-1.24698;0.782499;-6.85793;0.782499;750;1076;1000;724;1024;204;1024;1024;1024;1;3;0;1900;50;35;0.0166836;0;0;0;-0.173332;-1.39103;-0.94257; 
1088;1107;2019/06/20 10:35:00;431;347;8.49794;430.328;340.16;0;28;1;-0.0462968;-1.88697;-1.74461;-0.0328823;-1.89633;-1.74353;-0.237766;0.431818;-0.0435465;-0.412326;0.865079;1.21771;408.8;317.6;12.6187;408.912;319.047;0;48;1;0.05661;-1.17348;-2.76144;0.0753475;-1.17097;-2.74395;-0.480664;-0.0827449;0.587467;0.623795;0.367426;-1.71523;1;-0.0894924;-0.732847;-0.50497;0.05661;-1.16348;-1.23856;0.728628;-7.02277;0.728628;750;1072;1005;739;1024;204;1024;1024;1024;1;3;0;1900;50;35;0.0166836;0;0;0;-0.170036;-1.39241;-0.959443; 
1089;1108;2019/06/20 10:35:00;431.614;347.228;8.53613;431.782;340.004;0;29;1;-0.0496792;-1.87964;-1.73607;-0.0379214;-1.89132;-1.74129;-0.257361;0.403973;-0.0226238;-0.532314;0.524679;1.31033;408;319.429;12.8797;410.771;319.597;0;49;1;0.0585623;-1.15563;-2.79042;0.0703119;-1.16637;-2.75789;-0.474135;-0.0549226;0.594177;0.354801;0.321701;-1.61736;1;-0.0964838;-0.74569;-0.531709;0.0585623;-1.14563;-1.20958;0.334554;-7.66333;0.334554;750;1107;999;731;1024;204;1024;1024;1024;1;3;0;1900;50;35;0.0166836;0;0;0;-0.183319;-1.41681;-1.01025; 
1090;1109;2019/06/20 10:35:00;432.125;347.292;8.57202;432.464;340.305;0;30;1;-0.0524457;-1.87208;-1.7286;-0.0422787;-1.88555;-1.73749;-0.270147;0.380774;0.00709041;-0.645501;0.145701;1.37536;410.4;321.2;12.8273;409.978;321.407;0;50;1;0.0494652;-1.16612;-2.78925;0.0640579;-1.16629;-2.7673;-0.456502;-0.0333623;0.59162;0.261907;0.367417;-1.45849;1;-0.0917439;-0.729433;-0.526737;0.0494652;-1.15612;-1.21075;0.120417;-7.77429;0.120417;750;1123;993;738;1024;204;1024;1024;1024;1;3;0;1900;50;35;0.0166836;0;0;0;-0.174313;-1.38592;-1.0008; 
1091;1110;2019/06/20 10:35:00;433.263;348.281;8.64244;433.023;340.452;0;31;1;-0.0585898;-1.8616;-1.71139;-0.047172;-1.87837;-1.72966;-0.278869;0.36902;0.0586962;-0.721936;-0.17337;1.52492;412;323;12.8263;412.304;323.104;0;51;1;0.0432444;-1.17207;-2.79299;0.0578139;-1.16802;-2.77501;-0.442555;-0.0371104;0.569041;0.251775;0.332068;-1.35933;1;-0.0904164;-0.7163;-0.52265;0.0432444;-1.16207;-1.20701;-0.0810489;-7.63872;-0.0810489;750;1123;986;757;1024;204;1024;1024;1024;1;3;0;1900;50;35;0.0166836;0;0;0;-0.171791;-1.36097;-0.993034; 
1092;1111;2019/06/20 10:35:00;434.386;348.772;8.64234;434.211;341.533;0;32;1;-0.0650734;-1.864;-1.70985;-0.0525424;-1.87406;-1.72372;-0.287687;0.349761;0.113307;-0.759654;-0.496617;1.7202;413.6;325.2;13.1047;413.853;324.854;0;52;1;0.0362334;-1.15418;-2.82322;0.0513397;-1.16387;-2.78947;-0.426577;-0.012484;0.581605;0.302244;0.411192;-1.10248;1;-0.0887758;-0.729875;-0.546934;0.0362334;-1.14418;-1.17678;-0.297842;-8.19614;-0.297842;750;1156;980;755;1024;204;1024;1024;1024;1;3;0;1900;50;35;0.0166855;0;0;0;-0.168674;-1.38676;-1.03918; 
1093;1112;2019/06/20 10:35:00;435.569;349.49;8.7105;435.377;342.19;0;33;1;-0.0713394;-1.85286;-1.69422;-0.0581815;-1.8677;-1.71487;-0.296679;0.34032;0.180675;-0.761469;-0.738106;1.98819;414;326.5;13.1921;415.429;327.066;0;53;1;0.0344803;-1.15065;-2.83371;0.0462819;-1.1599;-2.80274;-0.404179;0.032418;0.61382;0.451411;0.709194;-0.64127;1;-0.0926618;-0.727049;-0.548576;0.0344803;-1.14065;-1.16629;-0.685574;-8.58792;-0.685574;750;1188;967;758;1024;204;1024;1024;1024;1;3;0;1900;50;35;0.0166817;0;0;0;-0.176057;-1.38139;-1.0423; 
1094;1113;2019/06/20 10:35:00;436.159;349.873;8.82001;436.615;343.034;0;34;1;-0.0737921;-1.83166;-1.672;-0.0628647;-1.85689;-1.70201;-0.297813;0.361811;0.274327;-0.696824;-0.722606;2.46309;417;328;13.2884;415.74;328.344;0;54;1;0.022965;-1.14702;-2.84525;0.0392868;-1.15604;-2.81549;-0.386601;0.0791116;0.654155;0.646708;1.07227;-0.118284;1;-0.0858296;-0.719867;-0.547256;0.022965;-1.13702;-1.15475;-0.742882;-8.68039;-0.742882;750;1200;963;769;1024;204;1024;1024;1024;1;3;0;1900;50;35;0.0166855;0;0;0;-0.163076;-1.36775;-1.03979; 
1095;1114;2019/06/20 10:35:00;436.714;351.143;8.87342;437.239;343.504;0;35;1;-0.0764722;-1.82661;-1.65802;-0.0669469;-1.8478;-1.68881;-0.29467;0.390988;0.374302;-0.567179;-0.485448;3.06392;419;330;13.1966;418.689;329.846;0;55;1;0.0155623;-1.16133;-2.84135;0.0321695;-1.15763;-2.82325;-0.384373;0.0823973;0.653655;0.746702;1.19208;0.166698;1;-0.0825092;-0.696471;-0.530163;0.0155623;-1.15133;-1.15865;-0.670645;-8.11763;-0.670645;750;1164;964;805;1024;204;1024;1024;1024;1;3;0;1900;50;35;0.0166836;0;0;0;-0.156768;-1.32329;-1.00731; 
1096;1115;2019/06/20 10:35:00;438.507;352.293;8.93204;437.81;344.918;0;36;1;-0.0859835;-1.82;-1.64362;-0.0726579;-1.83946;-1.67526;-0.298196;0.418756;0.473248;-0.452389;-0.139497;3.70109;421;331;12.7282;420.679;331.833;0;56;1;0.00829415;-1.20735;-2.80086;0.0250069;-1.17254;-2.81653;-0.38667;0.0244651;0.588928;0.727067;0.946321;0.0892605;1;-0.080952;-0.642116;-0.476118;0.00829415;-1.19735;-1.19914;-0.653349;-6.60584;-0.653349;750;1066;966;879;1024;204;1024;1024;1024;1;3;0;1900;50;35;0.0166817;0;0;0;-0.153809;-1.22002;-0.904623; 
1097;1116;2019/06/20 10:35:00;440;353.806;9.13701;439.66;346.212;0;37;1;-0.0922102;-1.78608;-1.60223;-0.0785236;-1.82345;-1.65335;-0.304194;0.470697;0.58887;-0.372631;0.322592;4.33916;421.333;332.667;13.2888;422.641;332.75;0;57;1;0.00669251;-1.16164;-2.85488;0.0195126;-1.16927;-2.82804;-0.385049;0.00969171;0.565258;0.666027;0.754807;0.03844;1;-0.0852161;-0.671804;-0.508229;0.00669251;-1.15164;-1.14512;-0.81056;-6.52338;-0.81056;750;1029;966;912;1024;204;1024;1024;1024;1;3;0;1900;50;35;0.0166855;0;0;0;-0.161911;-1.27643;-0.965635; 
1098;1117;2019/06/20 10:35:00;441.275;355.188;9.36197;441.24;347.767;0;38;1;-0.0967922;-1.74933;-1.55969;-0.0840042;-1.80121;-1.62525;-0.308236;0.573491;0.746783;-0.305691;1.08757;5.13483;424.4;333.2;13.45;423.042;334.473;0;58;1;-0.00476502;-1.14938;-2.86968;0.0122293;-1.16331;-2.84053;-0.387312;0.0080739;0.54319;0.556515;0.535033;-0.130437;1;-0.0792392;-0.66183;-0.494934;-0.00476502;-1.13938;-1.13032;-1.54458;-9.14287;-1.54458;750;1093;953;893;1024;204;1024;1024;1024;1;3;0;1900;50;35;0.0166836;0;0;0;-0.150554;-1.25748;-0.940375; 
1099;1118;2019/06/20 10:35:00;442.75;356.521;9.50169;442.61;349.178;0;39;1;-0.103113;-1.72946;-1.53293;-0.0897369;-1.77969;-1.59755;-0.311033;0.695758;0.916845;-0.240769;2.07282;6.02254;427;335;11;426.155;334.963;0;59;1;-0.0176208;-1.41221;-2.62241;0.00327425;-1.23798;-2.77509;-0.40424;-0.307128;0.215435;0.333666;-1.03576;-1.67016;1;-0.0721161;-0.479689;-0.219959;-0.0176208;-1.3;-1.37759;-2.26737;-2.98693;-2.26737;750;797;943;1182;1024;204;1024;1024;1024;1;3;0;1900;50;35;0.0166836;0;0;0;-0.137021;-0.911408;-0.417922; 
1100;1119;2019/06/20 10:35:00;444.626;358.404;9.54741;444.176;350.591;0;40;1;-0.112426;-1.72942;-1.52019;-0.0965436;-1.76461;-1.57434;-0.321199;0.786194;1.06024;-0.237909;2.93951;6.75399;426;336;10.4997;428.486;336.388;0;60;1;-0.0137079;-1.48347;-2.55937;-0.00182039;-1.31163;-2.71038;-0.406806;-0.805998;-0.290778;0.119462;-4.15831;-4.77799;1;-0.0828357;-0.464607;-0.133718;-0.0137079;-1.3;-1.44063;-3.78156;2.05198;-3.78156;750;600;913;1463;1024;204;1024;1024;1024;1;3;0;1900;50;35;0.0166836;0;0;0;-0.157388;-0.882753;-0.254064; 
1101;1120;2019/06/20 10:35:00;446.069;360.276;10.1595;445.876;359.331;0;41;1;-0.112738;-1.63291;-1.42356;-0.101402;-1.7251;-1.52911;-0.3304;0.962041;1.2743;-0.285518;4.0456;7.64875;428.4;337.2;11.7366;427.402;337.261;0;61;1;-0.0224672;-1.33141;-2.71399;-0.00801445;-1.31756;-2.71146;-0.404657;-1.12269;-0.621177;-0.0093744;-7.31044;-7.96096;1;-0.0789347;-0.425097;-0.243096;-0.0224672;-1.3;-1.28601;-2.83927;6.49831;-2.83927;750;600;936;1612;1024;204;1024;1024;1024;1;3;0;1900;50;35;0.0166836;0;0;0;-0.149976;-0.807685;-0.461882; 
1102;1121;2019/06/20 10:35:00;447.267;362.267;10.3254;447.501;361.448;0;42;1;-0.116715;-1.61473;-1.39542;-0.105996;-1.69199;-1.489;-0.331454;1.16652;1.50882;-0.304206;5.41534;8.72725;430;339;12.6424;429.915;338.525;0;62;1;-0.0271726;-1.24195;-2.81002;-0.0137619;-1.29488;-2.74103;-0.397709;-1.16246;-0.674417;-0.0497357;-9.12905;-9.82473;1;-0.0788232;-0.460031;-0.299027;-0.0271726;-1.23195;-1.18998;-2.35693;7.9306;-2.35693;750;600;946;1709;1024;204;1024;1024;1024;1;3;0;1900;50;35;0.0166836;0;0;0;-0.149764;-0.874059;-0.568151; 
1103;1122;2019/06/20 10:35:00;449.226;364.452;10.4619;448.806;363.647;0;43;1;-0.124537;-1.60239;-1.37152;-0.111558;-1.66511;-1.45376;-0.330877;1.33264;1.70284;-0.289147;6.69349;9.6877;432;340;13.5158;431.578;340.359;0;63;1;-0.0328007;-1.16479;-2.88894;-0.0194735;-1.25585;-2.7854;-0.394412;-1.04344;-0.575023;-0.067255;-9.68569;-10.4513;1;-0.0787576;-0.510316;-0.342698;-0.0328007;-1.15479;-1.11106;-2.12305;7.53645;-2.12305;750;600;952;1745;1024;204;1024;1024;1024;1;3;0;1900;50;35;0.0166836;0;0;0;-0.149639;-0.969601;-0.651127; 
1104;1123;2019/06/20 10:35:00;450.973;366.703;10.5376;450.874;366.034;0;44;1;-0.131916;-1.59979;-1.35583;-0.117666;-1.64551;-1.42438;-0.333036;1.42176;1.82437;-0.272586;7.40573;10.1186;432;340.571;14.0192;433.662;341.394;0;64;1;-0.031623;-1.12467;-2.92995;-0.0231184;-1.2165;-2.82877;-0.377894;-0.838614;-0.392033;-0.00271889;-9.19473;-10.0079;1;-0.0860427;-0.530843;-0.354325;-0.031623;-1.11467;-1.07005;-2.43437;6.27946;-2.43437;750;600;943;1727;1024;204;1024;1024;1024;1;3;0;1900;50;35;0.0166836;0;0;0;-0.163481;-1.0086;-0.673218; 
1105;1124;2019/06/20 10:35:00;452.651;368.326;10.7531;452.711;368.471;0;45;1;-0.137059;-1.57402;-1.32452;-0.123484;-1.62407;-1.39442;-0.334671;1.47492;1.90633;-0.25801;7.55692;10.0251;434.667;341.333;14.1322;433.678;341.974;0;65;1;-0.0407858;-1.11793;-2.93998;-0.0284186;-1.18693;-2.86213;-0.35338;-0.299169;0.112566;0.201605;-5.48503;-6.4158;1;-0.0826978;-0.516139;-0.334399;-0.0407858;-1.10793;-1.06002;-2.65677;2.58173;-2.65677;750;600;933;1562;1024;204;1024;1024;1024;1;3;0;1900;50;35;0.0166836;0;0;0;-0.157126;-0.980664;-0.635358; 
1106;1125;2019/06/20 10:35:00;454.863;370.118;10.937;454.491;370.274;0;46;1;-0.144846;-1.55441;-1.29778;-0.129892;-1.60317;-1.36543;-0.33406;1.53004;1.9786;-0.206197;7.50648;9.68468;436.4;343.2;14.204;436.324;342.727;0;66;1;-0.0466689;-1.11776;-2.94893;-0.0338937;-1.16618;-2.88817;-0.340188;0.401701;0.777972;0.38716;1.53479;0.421102;1;-0.0832234;-0.495409;-0.31436;-0.0466689;-1.10776;-1.05107;-2.89382;-2.27227;-2.89382;750;704;925;1283;1024;204;1024;1024;1024;1;3;0;1900;50;35;0.0166855;0;0;0;-0.158124;-0.941278;-0.597284; 
1107;1126;2019/06/20 10:35:00;456.7;371.6;11.0705;456.806;372.218;0;47;1;-0.15138;-1.54125;-1.27847;-0.136339;-1.58459;-1.33934;-0.340041;1.47948;1.94546;-0.162246;6.57153;8.49273;437.429;344;14.3673;438.16;344.637;0;67;1;-0.0497112;-1.10738;-2.96239;-0.0386389;-1.14854;-2.91044;-0.326487;0.916426;1.26188;0.544658;9.06906;7.77726;1;-0.0866275;-0.487208;-0.301734;-0.0497112;-1.09738;-1.03761;-3.22001;-6.68034;-3.22001;750;1097;914;989;1024;204;1024;1024;1024;1;3;0;1900;50;35;0.0166817;0;0;0;-0.164592;-0.925695;-0.573295; 
1108;1127;2019/06/20 10:35:00;458.567;373.767;11.3269;458.713;373.785;0;48;1;-0.156176;-1.51434;-1.2443;-0.14229;-1.56352;-1.31083;-0.349051;1.40103;1.87925;-0.167666;4.87997;6.57584;438.333;345.667;14.4513;439.28;345.479;0;68;1;-0.0525463;-1.10576;-2.97158;-0.0428111;-1.13571;-2.92878;-0.311969;1.18589;1.50735;0.6694;14.8251;13.3844;1;-0.0897437;-0.467755;-0.282404;-0.0525463;-1.09576;-1.02842;-3.66785;-9.18095;-3.66785;750;1503;901;765;1024;204;1024;1024;1024;1;3;0;1900;50;35;0.0166855;0;0;0;-0.170513;-0.888735;-0.536568; 
1109;1128;2019/06/20 10:35:00;460.588;375.373;11.4922;460.67;376.044;0;49;1;-0.162708;-1.49839;-1.22258;-0.148415;-1.54398;-1.28435;-0.356707;1.32462;1.80447;-0.203811;2.89593;4.35163;441;347;14.4971;440.21;347.172;0;69;1;-0.0615587;-1.1061;-2.97734;-0.0484354;-1.12682;-2.94335;-0.302909;1.22711;1.53555;0.767272;17.9679;16.4642;1;-0.0868565;-0.447877;-0.261698;-0.0615587;-1.0961;-1.02266;-3.83613;-9.83722;-3.83613;750;1748;894;635;1024;204;1024;1024;1024;1;3;0;1900;50;35;0.0166836;0;0;0;-0.165027;-0.850967;-0.497226; 
1110;1129;2019/06/20 10:35:00;462.122;377.306;11.5858;462.758;377.677;0;50;1;-0.168001;-1.49326;-1.20814;-0.154291;-1.52876;-1.26149;-0.360374;1.26128;1.73357;-0.231529;1.09631;2.24813;443.6;349.2;14.6144;442.908;348.503;0;70;1;-0.0699426;-1.10352;-2.98966;-0.0548876;-1.11983;-2.95724;-0.308691;1.12253;1.43471;0.73689;18.6172;17.1779;1;-0.0843485;-0.435247;-0.251151;-0.0699426;-1.09352;-1.01034;-3.73461;-9.32368;-3.73461;750;1820;895;584;1024;204;1024;1024;1024;1;3;0;1900;50;35;0.0166836;0;0;0;-0.160262;-0.82697;-0.477188; 
1111;1130;2019/06/20 10:35:00;463.765;379.137;11.8291;464.321;379.604;0;51;1;-0.171474;-1.46901;-1.17907;-0.159446;-1.51084;-1.23676;-0.359925;1.20921;1.67012;-0.239829;-0.403964;0.405033;444;350.571;14.7121;445.576;350.744;0;71;1;-0.0708346;-1.10008;-2.99892;-0.0596717;-1.11391;-2.96975;-0.310098;0.965298;1.29085;0.615083;16.223;15.015;1;-0.0886114;-0.420762;-0.235685;-0.0708346;-1.09008;-1.00108;-3.96924;-8.26535;-3.96924;750;1752;892;617;1024;204;1024;1024;1024;1;3;0;1900;50;35;0.0166836;0;0;0;-0.168362;-0.799448;-0.447801; 
1112;1131;2019/06/20 10:35:00;465.393;380.679;12.0993;466.009;381.449;0;52;1;-0.17436;-1.44153;-1.14926;-0.16392;-1.49005;-1.21051;-0.351929;1.17755;1.62112;-0.2153;-1.65091;-1.18545;446.667;352.667;14.8924;445.949;352.149;0;72;1;-0.0789121;-1.09263;-3.014886;-0.0654438;-1.10752;-2.98329;-0.312131;0.813549;1.1546;0.481165;11.3795;10.514;1;-0.0930855;-0.399969;-0.209432;-0.0708346;-1.09008;-1.00108;-5.28791;3.3409;-5.28791;750;769;876;1266;1024;204;1024;1024;1024;1;3;0;1900;50;35;0.0166836;0;0;0;-0.176863;-0.75994;-0.397921; 
1113;1132;2019/06/20 10:35:01;467.311;381.836;12.2258;467.664;382.993;0;53;1;-0.180386;-1.43056;-1.13477;-0.16886;-1.4722;-1.18779;-0.341107;1.15564;1.57825;-0.13344;-2.28456;-2.17862;449.6;353.2;14.9074;448.641;354.302;0;73;1;-0.0886514;-1.09302;-3.016857;-0.0724061;-1.10317;-2.99336;-0.322208;0.6694;1.0241;0.305797;5.84062;5.35826;1;-0.0980252;-0.382123;-0.186711;-0.0708346;-1.09008;-1.00108;-5.27355;3.43683;-5.27355;750;778;878;1242;1024;204;1024;1024;1024;1;3;0;1900;50;35;0.0166836;0;0;0;-0.186248;-0.726033;-0.354751; 
1114;1133;2019/06/20 10:35:01;469.059;382.176;12.3012;469.577;384.109;0;54;1;-0.186368;-1.42295;-1.12706;-0.174112;-1.45742;-1.16957;-0.331825;1.11733;1.5114;-0.0112268;-2.50438;-2.77707;452;355;15.07;451.613;354.84;0;74;1;-0.0956416;-1.08622;-3.03073;-0.0793767;-1.09809;-3.00457;-0.339439;0.551963;0.917321;0.0737107;0.971223;0.857216;1;-0.103278;-0.367347;-0.168492;-0.0708346;-1.09008;-1.00108;-5.28052;3.35497;-5.28052;750;780;880;1220;1024;204;1024;1024;1024;1;3;0;1900;50;35;0.0166836;0;0;0;-0.196228;-0.697958;-0.320135; 
1115;1134;2019/06/20 10:35:01;470.475;382.725;12.4152;471.297;384.342;0;55;1;-0.19035;-1.41173;-1.11551;-0.178984;-1.44372;-1.15335;-0.321244;1.07105;1.43031;0.13497;-2.51588;-3.16137;452.8;355.6;15.1202;454.102;356.673;0;75;1;-0.0979643;-1.08427;-3.035031;-0.084953;-1.09394;-3.013708;-0.349586;0.462578;0.831547;-0.14229;-2.47231;-2.29881;1;-0.108149;-0.353639;-0.152274;-0.0708346;-1.09008;-1.00108;-5.26727;3.19309;-5.26727;750;777;883;1200;1024;204;1024;1024;1024;1;3;0;1900;50;35;0.0166836;0;0;0;-0.205483;-0.671914;-0.28932; 
1116;1135;2019/06/20 10:35:01;471.911;382.222;12.497;472.67;384.764;0;56;1;-0.194838;-1.40081;-1.10931;-0.18374;-1.43084;-1.14014;-0.310422;1.03391;1.3431;0.280589;-2.41808;-3.45709;455.333;357.333;13.5449;454.925;357.259;0;76;1;-0.118691;-1.21571;-2.9263;-0.0950743;-1.13047;-2.98749;-0.370335;0.235029;0.619783;-0.331701;-5.02979;-4.63567;1;-0.0650492;-0.22513;-0.0664401;-0.118691;-1.20571;-1.0737;-4.45646;-0.445685;-4.45646;750;704;910;1136;1024;204;1024;1024;1024;1;3;0;1900;50;35;0.0166836;0;0;0;-0.123594;-0.427747;-0.126236; 
1117;1136;2019/06/20 10:35:01;473.511;381.574;12.5906;474.053;384.061;0;57;1;-0.199728;-1.38824;-1.10246;-0.188536;-1.41806;-1.12883;-0.302496;0.991079;1.23714;0.397838;-2.32247;-3.80442;459;359;12.51;457.244;358.793;0;77;1;-0.143136;-1.32185;-2.84111;-0.109493;-1.18789;-2.94357;-0.421283;-0.154606;0.267292;-0.643311;-7.49295;-6.87147;1;-0.0454006;-0.118062;0.0300504;-0.143136;-1.3;-1.15889;-3.59128;9.23192;-3.59128;750;600;938;1398;1024;204;1024;1024;1024;1;3;0;1900;50;35;0.0166836;0;0;0;-0.0862612;-0.224318;0.0570958; 
1118;1137;2019/06/20 10:35:01;474.729;380.396;12.7299;475.603;383.161;0;58;1;-0.202319;-1.36918;-1.09293;-0.192671;-1.4034;-1.11806;-0.296384;0.940884;1.11171;0.460654;-2.3392;-4.31823;460.4;359.2;12.5851;460.812;360.316;0;78;1;-0.147832;-1.31463;-2.84846;-0.120995;-1.22591;-2.91504;-0.474748;-0.565826;-0.112334;-1.03579;-10.0077;-9.18547;1;-0.0448384;-0.103399;0.0334743;-0.147832;-1.3;-1.15154;-2.62066;12.8524;-2.62066;750;600;970;1493;1024;204;1024;1024;1024;1;3;0;1900;50;35;0.0166836;0;0;0;-0.085193;-0.196457;0.0636012; 
1119;1138;2019/06/20 10:35:01;475.916;379.242;12.9374;476.766;381.676;0;59;1;-0.203652;-1.34351;-1.07784;-0.195965;-1.38543;-1.106;-0.286142;0.911252;0.993869;0.49603;-2.38007;-4.92608;462.667;360.667;12.8872;462.239;360.453;0;79;1;-0.153143;-1.28856;-2.87857;-0.130639;-1.2447;-2.9041;-0.517545;-0.905039;-0.424067;-1.40203;-12.296;-11.2981;1;-0.0428224;-0.106876;0.0154299;-0.153143;-1.27856;-1.12143;-2.26428;15.5919;-2.26428;750;600;986;1549;1024;204;1024;1024;1024;1;3;0;1900;50;35;0.0166836;0;0;0;-0.0813625;-0.203064;0.0293167; 
1120;1139;2019/06/20 10:35:01;477.34;377.794;13.1139;477.894;380.187;0;60;1;-0.20633;-1.32081;-1.06635;-0.199075;-1.36605;-1.0941;-0.271432;0.911885;0.897887;0.53894;-2.24897;-5.40717;465.6;360.8;13.1309;464.537;361.883;0;80;1;-0.161448;-1.26507;-2.89966;-0.139882;-1.25081;-2.90277;-0.552297;-1.1533;-0.661221;-1.69177;-14.1916;-13.0865;1;-0.0376266;-0.110978;0.00623536;-0.161448;-1.25507;-1.10034;-1.6668;17.801;-1.6668;750;600;1005;1596;1024;204;1024;1024;1024;1;3;0;1900;50;35;0.0166855;0;0;0;-0.0714906;-0.210859;0.0118472; 
1121;1140;2019/06/20 10:35:01;478.371;376.784;13.2566;479.253;378.38;0;61;1;-0.20799;-1.30341;-1.05695;-0.201749;-1.34725;-1.08296;-0.253828;0.932576;0.820025;0.592752;-1.9027;-5.68293;465.6;360.8;13.1309;467.479;361.961;1;0;1;-0.161448;-1.26507;-2.89966;-0.139882;-1.25081;-2.90277;-0.552297;-1.1533;-0.661221;-1.69177;-14.1916;-13.0865;1;-0.0403011;-0.0921873;0.0173805;-0.161448;-1.25507;-1.10034;-0.932779;18.6261;-0.932779;750;600;1022;1579;1024;204;1024;1024;1024;1;3;0;1900;50;35;0.0166836;0;0;0;-0.076572;-0.175156;0.0330229; 
1122;1141;2019/06/20 10:35:01;479.312;375.032;13.4057;480.208;377.017;0;62;1;-0.209178;-1.28346;-1.04877;-0.203978;-1.32812;-1.0727;-0.233165;0.970031;0.761492;0.664362;-1.39689;-5.7338;469;360;13.3596;467.479;361.961;0;1;1;-0.171383;-1.24091;-2.91687;-0.149332;-1.24784;-2.907;-0.55188;-1.21909;-0.762218;-1.70793;-14.2747;-13.3106;1;-0.0325945;-0.0972085;0.0104345;-0.171383;-1.23091;-1.08313;-0.381943;19.6224;-0.381943;750;600;1036;1584;1024;204;1024;1024;1024;1;3;0;1900;50;35;0.0166836;0;0;0;-0.0619296;-0.184696;0.0198256; 
1123;1142;2019/06/20 10:35:01;479.938;373.155;13.5047;481.07;374.918;0;63;1;-0.209958;-1.26824;-1.04488;-0.205772;-1.31015;-1.06435;-0.208771;1.0132;0.714556;0.773131;-0.749729;-5.52846;469;360;13.3596;470.808;361.04;1;0;1;-0.171383;-1.24091;-2.91687;-0.149332;-1.24784;-2.907;-0.55188;-1.21909;-0.762218;-1.70793;-14.2747;-13.3106;1;-0.0343887;-0.0792469;0.0187814;-0.171383;-1.23091;-1.08313;0.226682;20.4981;0.226682;750;600;1052;1578;1024;204;1024;1024;1024;1;3;0;1900;50;35;0.0166836;0;0;0;-0.0653385;-0.150569;0.0356847; 
1124;1143;2019/06/20 10:35:01;480.98;371.714;13.5638;481.596;372.711;0;64;1;-0.212875;-1.25829;-1.04323;-0.207903;-1.29459;-1.05802;-0.186128;1.04269;0.668671;0.90445;-0.0430382;-5.08739;469;360;13.3596;470.808;361.04;2;0;1;-0.171383;-1.24091;-2.91687;-0.149332;-1.24784;-2.907;-0.55188;-1.21909;-0.762218;-1.70793;-14.2747;-13.3106;1;-0.0365198;-0.0636871;0.0251185;-0.171383;-1.23091;-1.08313;0.491343;21.0645;0.491343;750;600;1060;1578;1024;204;1024;1024;1024;1;3;0;1900;50;35;0.0166836;0;0;0;-0.0693876;-0.121005;0.0477251; 
1125;1144;2019/06/20 10:35:01;482.205;370.432;13.7487;482.54;370.991;0;65;1;-0.214458;-1.23747;-1.03175;-0.209869;-1.27746;-1.05013;-0.167236;1.05707;0.624415;1.0178;0.556832;-4.52872;469;360;13.3596;470.808;361.04;3;0;1;-0.171383;-1.24091;-2.91687;-0.149332;-1.24784;-2.907;-0.55188;-1.21909;-0.762218;-1.70793;-14.2747;-13.3106;1;-0.0384862;-0.0465491;0.0329995;-0.171383;-1.23091;-1.08313;1.01863;21.5295;1.01863;750;600;1074;1587;1024;204;1024;1024;1024;1;3;0;1900;50;35;0.0166836;0;0;0;-0.0731238;-0.0884432;0.0626991; 
1126;1145;2019/06/20 10:35:01;483.023;368.884;13.8533;483.694;369.473;0;66;1;-0.215789;-1.22347;-1.02702;-0.211645;-1.26126;-1.0432;-0.150573;1.05296;0.578054;1.09363;0.897829;-3.99527;469;360;13.3596;470.808;361.04;4;0;1;-0.171383;-1.24091;-2.91687;-0.149332;-1.24784;-2.907;-0.55188;-1.21909;-0.762218;-1.70793;-14.2747;-13.3106;1;-0.040262;-0.0303519;0.0399354;-0.171383;-1.23091;-1.08313;1.31078;21.814;1.31078;750;600;1082;1590;1024;204;1024;1024;1024;1;3;0;1900;50;35;0.0166836;0;0;0;-0.0764979;-0.0576686;0.0758772; 
1127;1146;2019/06/20 10:35:01;484.128;367.538;13.9557;484.428;367.738;0;67;1;-0.218155;-1.21046;-1.02211;-0.213598;-1.24602;-1.03687;-0.137691;1.03631;0.530988;1.12025;0.953217;-3.55214;469;360;13.3596;470.808;361.04;5;0;1;-0.171383;-1.24091;-2.91687;-0.149332;-1.24784;-2.907;-0.55188;-1.21909;-0.762218;-1.70793;-14.2747;-13.3106;1;-0.0422149;-0.0151107;0.046263;-0.171383;-1.23091;-1.08313;1.48655;21.9487;1.48655;750;600;1085;1591;1024;204;1024;1024;1024;1;3;0;1900;50;35;0.0166836;0;0;0;-0.0802082;-0.0287104;0.0878997; 
1128;1147;2019/06/20 10:35:01;484.932;366.082;13.9985;485.463;366.245;0;68;1;-0.220352;-1.20242;-1.02183;-0.215624;-1.23294;-1.03236;-0.129154;1.00211;0.479794;1.08777;0.700136;-3.25693;469;360;13.3596;470.808;361.04;6;0;1;-0.171383;-1.24091;-2.91687;-0.149332;-1.24784;-2.907;-0.55188;-1.21909;-0.762218;-1.70793;-14.2747;-13.3106;1;-0.0442411;-0.00203001;0.0507758;-0.171383;-1.23091;-1.08313;1.54081;21.9151;1.54081;750;600;1086;1587;1024;204;1024;1024;1024;1;3;0;1900;50;35;0.0166836;0;0;0;-0.084058;-0.00385703;0.096474; 
1129;1148;2019/06/20 10:35:01;485.493;364.806;14.0909;486.195;364.686;0;69;1;-0.220894;-1.19075;-1.0176;-0.217205;-1.22028;-1.02793;-0.123179;0.960397;0.433412;0.994683;0.209069;-3.07759;469;360;13.3596;470.808;361.04;7;0;1;-0.171383;-1.24091;-2.91687;-0.149332;-1.24784;-2.907;-0.55188;-1.21909;-0.762218;-1.70793;-14.2747;-13.3106;1;-0.045822;0.0106263;0.0552022;-0.171383;-1.23091;-1.08313;1.68072;21.8086;1.68072;750;600;1087;1582;1024;204;1024;1024;1024;1;3;0;1900;50;35;0.0166836;0;0;0;-0.0870617;0.02019;0.104884; 
1130;1149;2019/06/20 10:35:01;486.531;363.188;14.1963;486.699;363.348;0;70;1;-0.222905;-1.17715;-1.01316;-0.218915;-1.20734;-1.0235;-0.117911;0.924895;0.397963;0.869399;-0.345257;-2.92829;469;360;13.3596;470.808;361.04;8;0;1;-0.171383;-1.24091;-2.91687;-0.149332;-1.24784;-2.907;-0.55188;-1.21909;-0.762218;-1.70793;-14.2747;-13.3106;1;-0.0475319;0.0235655;0.0596324;-0.171383;-1.23091;-1.08313;1.76905;21.7502;1.76905;750;600;1085;1580;1024;204;1024;1024;1024;1;3;0;1900;50;35;0.0166836;0;0;0;-0.0903107;0.0447745;0.113302; 
1131;1150;2019/06/20 10:35:01;486.793;361.517;14.2364;487.696;361.685;0;71;1;-0.223195;-1.16894;-1.01352;-0.220199;-1.19582;-1.02051;-0.112024;0.881151;0.35717;0.742267;-0.910103;-2.82487;469;360;13.3596;470.808;361.04;9;0;1;-0.171383;-1.24091;-2.91687;-0.149332;-1.24784;-2.907;-0.55188;-1.21909;-0.762218;-1.70793;-14.2747;-13.3106;1;-0.0488159;0.0350871;0.0626276;-0.171383;-1.23091;-1.08313;1.8572;21.6206;1.8572;750;600;1084;1572;1024;204;1024;1024;1024;1;3;0;1900;50;35;0.0166836;0;0;0;-0.0927503;0.0666655;0.118992; 
1132;1151;2019/06/20 10:35:01;488.065;360.742;14.2886;487.893;359.984;0;72;1;-0.22682;-1.1624;-1.0113;-0.222185;-1.1858;-1.01774;-0.109332;0.830235;0.316014;0.610155;-1.43604;-2.742;469;360;13.3596;470.808;361.04;10;0;0;0;0;-4;0;0;-4;0;0;0;0;0;0;1;-0.0508023;0.0451123;0.0653896;-0.171383;-1.23091;-1.08313;-2.05856;7.32759;-2.05856;750;600;959;1059;1024;204;1024;1024;1024;1;3;0;1900;50;35;0.0166855;0;0;0;-0.0965243;0.0857133;0.12424; 
1133;1152;2019/06/20 10:35:01;488.633;359.267;14.4236;489.12;359.21;0;73;1;-0.226665;-1.14725;-1.00463;-0.223529;-1.17423;-1.01381;-0.105283;0.784997;0.281762;0.495594;-1.86586;-2.64109;469;360;13.3596;-1;-1;11;0;0;0;0;-4;0;0;-4;0;0;0;0;0;0;1;-0.052146;0.0566759;0.0693249;-0.171383;-1.23091;-1.08313;-2.04361;7.14145;-2.04361;750;600;955;1055;1024;204;1024;1024;1024;1;3;0;1900;50;35;0.0166817;0;0;0;-0.0990774;0.107684;0.131717; 
1134;1153;2019/06/20 10:35:01;489.464;357.929;14.3819;489.643;357.729;0;74;1;-0.230204;-1.14669;-1.01008;-0.225532;-1.16597;-1.01269;-0.102759;0.738597;0.247649;0.402827;-2.1725;-2.51228;469;360;13.3596;-1;-1;12;0;0;0;0;-4;0;0;-4;0;0;0;0;0;0;1;-0.0541485;0.0649389;0.0704439;-0.171383;-1.23091;-1.08313;-2.05641;6.89585;-2.05641;750;600;953;1052;1024;204;1024;1024;1024;1;3;0;1900;50;35;0.0166855;0;0;0;-0.102882;0.123384;0.133843; 
1135;1154;2019/06/20 10:35:01;490.867;356.767;14.256;490.424;356.411;0;75;1;-0.237147;-1.15342;-1.02123;-0.229016;-1.1622;-1.01525;-0.108851;0.675231;0.199255;0.29895;-2.44299;-2.44303;509.333;357.333;14.3927;-1;-1;0;1;1;-0.298918;-1.1441;-2.98955;-0.298918;-1.1441;-2.98955;0;0;0;0;0;0;1;0.0699018;-0.0280999;-0.00479889;-0.298918;-1.1341;-1.01045;3.60122;8.92286;3.60122;750;600;1075;999;1024;204;1024;1024;1024;1;3;0;1900;50;35;0.0166836;0;0;0;0.132813;-0.0533898;-0.00911789; 
1136;1155;2019/06/20 10:35:01;490.462;355.769;14.3578;491.798;355.285;0;76;1;-0.234057;-1.14234;-1.01589;-0.230528;-1.15624;-1.01544;-0.111715;0.609324;0.151755;0.204128;-2.72677;-2.44963;509.333;356.667;14.4894;509.333;357.333;0;2;1;-0.296923;-1.13455;-2.99503;-0.298319;-1.14124;-2.99119;0;0;0;0;0;0;1;0.0663945;-0.0316973;-0.0104765;-0.296923;-1.12455;-1.00497;3.50815;8.33991;3.50815;750;600;1071;986;1024;204;1024;1024;1024;1;3;0;1900;50;35;0.0166836;0;0;0;0.12615;-0.0602248;-0.0199053; 
1137;1156;2019/06/20 10:35:01;491.094;354.34;14.35;491.352;354.313;0;77;1;-0.236384;-1.1388;-1.01916;-0.232285;-1.15101;-1.01656;-0.115324;0.544656;0.10683;0.109291;-2.98065;-2.4701;512.333;354.333;14.5008;509.333;356.667;0;3;1;-0.307013;-1.12694;-2.99142;-0.300928;-1.13695;-2.99126;0;0;0;0;0;0;1;0.0747281;-0.0340717;-0.00798297;-0.307013;-1.11694;-1.00858;4.00216;7.56878;4.00216;750;600;1080;977;1024;204;1024;1024;1024;1;3;0;1900;50;35;0.0166836;0;0;0;0.141983;-0.0647362;-0.0151676; 
1138;1157;2019/06/20 10:35:01;490.821;353.571;14.1886;491.948;352.926;0;78;1;-0.238113;-1.14949;-1.03223;-0.234034;-1.15055;-1.02126;-0.116539;0.467619;0.0500476;0.0367758;-3.23739;-2.54485;514.571;354;14.3698;512.333;354.333;0;4;1;-0.317584;-1.13624;-2.9816;-0.305924;-1.13673;-2.98836;0;0;0;0;0;0;1;0.08355;-0.0243123;-0.00285816;-0.317584;-1.12624;-1.0184;4.44727;6.88658;4.44727;750;600;1089;962;1024;204;1024;1024;1024;1;3;0;1900;50;35;0.0166836;0;0;0;0.158745;-0.0461933;-0.00543051; 
1139;1158;2019/06/20 10:35:01;492;352.839;14.037;491.601;352.218;0;79;1;-0.244876;-1.15973;-1.04481;-0.237286;-1.15331;-1.02833;-0.124895;0.364186;-0.0279802;-0.0562993;-3.62394;-2.7646;517.429;352;14.3577;514.571;354;0;5;1;-0.327782;-1.13138;-2.97693;-0.312482;-1.13513;-2.98493;0;0;0;0;0;0;1;0.0904956;-0.0319216;-0.00525689;-0.327782;-1.12138;-1.02307;4.92315;5.50697;4.92315;750;600;1099;929;1024;204;1024;1024;1024;1;3;0;1900;50;35;0.0166836;0;0;0;0.171942;-0.0606511;-0.00998809; 
1140;1159;2019/06/20 10:35:01;492.469;351.594;13.8684;492.721;351.554;0;80;1;-0.249538;-1.17007;-1.05996;-0.240962;-1.15834;-1.03782;-0.136595;0.249007;-0.117194;-0.168986;-4.13074;-3.11665;520.571;350;14.148;517.429;352;0;6;1;-0.343725;-1.14225;-2.9579;-0.321855;-1.13727;-2.97682;0;0;0;0;0;0;1;0.102763;-0.0260841;0.00428033;-0.343725;-1.13225;-1.0421;5.29591;4.4827;5.29591;750;600;1104;911;1024;204;1024;1024;1024;1;3;0;1900;50;35;0.0166836;0;0;0;0.19525;-0.0495597;0.00813262; 
1141;1160;2019/06/20 10:35:01;492.74;350.192;13.6893;493.131;350.377;0;81;1;-0.253791;-1.18111;-1.07663;-0.244811;-1.16517;-1.04946;-0.14507;0.137555;-0.207012;-0.246122;-4.62697;-3.49341;524;349;14.0851;520.571;350;0;7;1;-0.357407;-1.14439;-2.95131;-0.33252;-1.1394;-2.96917;0;0;0;0;0;0;1;0.112597;-0.0307776;-0.000768423;-0.357407;-1.13439;-1.04869;5.67878;3.07075;5.67878;750;626;1112;871;1024;204;1024;1024;1024;1;3;0;1900;50;35;0.0166836;0;0;0;0.213933;-0.0584774;-0.00146; 
1142;1161;2019/06/20 10:35:01;492.925;349.5;13.5503;493.329;349.033;0;82;1;-0.257077;-1.1911;-1.08907;-0.24849;-1.17295;-1.06134;-0.158817;0.015786;-0.307626;-0.335889;-5.14793;-3.93171;526;347;14.4989;524;349;0;8;1;-0.35409;-1.10597;-2.97747;-0.338991;-1.12937;-2.97166;-0.363932;0.0755666;-0.200198;-1.45425;0.30196;-0.79998;1;0.105599;-0.0769768;-0.0388123;-0.35409;-1.09597;-1.02253;8.96642;-1.04619;8.96642;750;821;1215;841;1024;204;1024;1024;1024;1;3;0;1900;50;35;0.0166836;0;0;0;0.200638;-0.146256;-0.0737433; 
1143;1162;2019/06/20 10:35:01;493.901;348.889;13.4901;493.457;348.393;0;83;1;-0.261836;-1.19452;-1.09517;-0.252494;-1.17942;-1.07149;-0.176044;-0.104054;-0.40409;-0.444168;-5.68097;-4.40063;529.75;344.25;15.5393;527.612;346.012;0;9;1;-0.342424;-1.02453;-3.041094;-0.340021;-1.09792;-2.99249;-0.374574;0.201282;-0.115215;-2.36933;0.98549;-0.940382;1;0.101596;-0.0834492;-0.0489604;-0.35409;-1.09597;-1.02253;0.169878;-2.10086;0.169878;750;862;989;817;1024;204;1024;1024;1024;1;3;0;1900;50;35;0.0166836;0;0;0;0.193032;-0.158554;-0.0930248; 
1144;1163;2019/06/20 10:35:01;494.136;348.045;13.3976;494.396;347.835;0;84;1;-0.264519;-1.20014;-1.10445;-0.256101;-1.18563;-1.08138;-0.193808;-0.202617;-0.482688;-0.575265;-6.08681;-4.76916;534;342;16.5106;531.712;343.066;0;10;1;-0.335124;-0.95857;-3.093781;-0.338552;-1.05612;-3.022877;-0.355122;0.442918;0.0687875;-2.84064;2.36117;-0.289358;1;0.0979882;-0.0896652;-0.0588481;-0.35409;-1.09597;-1.02253;-0.0763041;-2.98385;-0.0763041;750;919;981;787;1024;204;1024;1024;1024;1;3;0;1900;50;35;0.0166836;0;0;0;0.186178;-0.170364;-0.111811; 
1145;1164;2019/06/20 10:35:01;494.713;347.402;13.2546;494.616;347.045;0;85;1;-0.269541;-1.21106;-1.11769;-0.260133;-1.19326;-1.09227;-0.20758;-0.281229;-0.545139;-0.675567;-6.23113;-4.92804;536;340.571;16.6781;536.4;340.553;0;11;1;-0.337743;-0.945368;-3.100541;-0.338309;-1.02289;-3.046176;-0.316278;0.714249;0.285996;-2.96822;4.2708;0.969211;1;0.0939562;-0.0972917;-0.069741;-0.35409;-1.09597;-1.02253;-0.290636;-3.72866;-0.290636;750;960;975;765;1024;204;1024;1024;1024;1;3;0;1900;50;35;0.0166836;0;0;0;0.178517;-0.184854;-0.132508; 
1146;1165;2019/06/20 10:35:01;495.167;347.071;13.0969;495.173;346.45;0;86;1;-0.274518;-1.22459;-1.13184;-0.264449;-1.20266;-1.10414;-0.218399;-0.345846;-0.592117;-0.73222;-6.11563;-4.85455;539;337;16.8377;538.718;338.926;0;12;1;-0.343432;-0.927551;-3.10327;-0.339846;-0.994289;-3.063304;-0.261657;0.999868;0.517162;-2.82648;6.55782;2.64804;1;0.0896409;-0.10669;-0.0816121;-0.35409;-1.09597;-1.02253;-0.480815;-4.38846;-0.480815;750;987;971;750;1024;204;1024;1024;1024;1;3;0;1900;50;35;0.0166855;0;0;0;0.170318;-0.202712;-0.155063; 
1147;1166;2019/06/20 10:35:01;495.767;346.651;12.9453;495.611;346.176;0;87;1;-0.280047;-1.23757;-1.14598;-0.269128;-1.21313;-1.1167;-0.228212;-0.399171;-0.623933;-0.771563;-5.81411;-4.57873;541.273;333.818;16.7232;542.015;335.112;0;13;1;-0.352565;-0.925959;-3.09193;-0.343662;-0.97379;-3.071892;-0.201514;1.2617;0.720773;-2.50112;8.97639;4.46899;1;0.0849614;-0.117163;-0.0941628;-0.35409;-1.09597;-1.02253;-0.667853;-4.97425;-0.667853;750;1002;966;744;1024;204;1024;1024;1024;1;3;0;1900;50;35;0.0166817;0;0;0;0.161427;-0.22261;-0.178909; 
1148;1167;2019/06/20 10:35:01;496;346.409;12.8225;496.203;345.826;0;88;1;-0.283635;-1.24864;-1.15748;-0.27348;-1.22378;-1.12893;-0.236784;-0.442644;-0.644419;-0.774482;-5.32029;-4.09302;544;331.6;16.586;544.464;331.673;0;14;1;-0.363685;-0.928032;-3.080766;-0.349669;-0.960063;-3.074554;-0.163574;1.43357;0.843621;-0.700071;10.8122;6.85236;1;0.0806093;-0.127815;-0.106397;-0.35409;-1.09597;-1.02253;-0.83626;-5.48394;-0.83626;750;1006;963;744;1024;204;1024;1024;1024;1;3;0;1900;50;35;0.0166855;0;0;0;0.153158;-0.242848;-0.202154; 
1149;1168;2019/06/20 10:35:01;496.759;346.023;12.6695;496.436;345.657;0;89;1;-0.290047;-1.26244;-1.17228;-0.27845;-1.23538;-1.14194;-0.245789;-0.489204;-0.66813;-0.74338;-4.73118;-3.51088;546;328;16.6662;547.322;329.234;0;15;1;-0.367923;-0.914548;-3.079286;-0.355145;-0.946408;-3.075974;-0.158579;1.46556;0.839766;0.443047;11.5392;7.9274;1;0.0756392;-0.139411;-0.119403;-0.35409;-1.09597;-1.02253;-1.02074;-6.03269;-1.02074;750;1007;960;745;1024;204;1024;1024;1024;1;3;0;1900;50;35;0.0166836;0;0;0;0.143714;-0.264882;-0.226865; 
1150;1169;2019/06/20 10:35:01;497.068;346.114;12.5537;497.188;345.345;0;90;1;-0.293955;-1.27439;-1.1829;-0.283102;-1.24708;-1.15423;-0.255363;-0.539069;-0.69196;-0.691993;-4.18313;-2.94275;547.6;324;16.5224;549.375;325.403;0;16;1;-0.375958;-0.912401;-3.064655;-0.361389;-0.936206;-3.072578;-0.186401;1.35848;0.70246;0.940015;10.582;7.28851;1;0.0709879;-0.151115;-0.131694;-0.35409;-1.09597;-1.02253;-1.20486;-6.60951;-1.20486;750;1011;958;746;1024;204;1024;1024;1024;1;3;0;1900;50;35;0.0166836;0;0;0;0.134877;-0.287119;-0.250218; 
1151;1170;2019/06/20 10:35:01;497.524;346.333;12.4884;497.497;345.512;0;91;1;-0.297312;-1.28179;-1.18861;-0.287365;-1.2575;-1.16454;-0.262031;-0.580114;-0.703945;-0.632772;-3.70418;-2.40022;550.5;320.833;16.5055;550.839;321.242;0;17;1;-0.385112;-0.905329;-3.05845;-0.368506;-0.926943;-3.06834;-0.232503;1.19849;0.51004;0.898761;8.28417;5.26836;1;0.0667249;-0.161526;-0.142008;-0.35409;-1.09597;-1.02253;-1.35253;-7.09611;-1.35253;750;1015;956;750;1024;204;1024;1024;1024;1;3;0;1900;50;35;0.0166836;0;0;0;0.126777;-0.3069;-0.269815; 
1152;1171;2019/06/20 10:35:01;498.444;346.247;12.4301;497.95;345.815;0;92;1;-0.302403;-1.28751;-1.19438;-0.291876;-1.2665;-1.17349;-0.266817;-0.603176;-0.69947;-0.573139;-3.25078;-1.86911;553;317.6;16.4067;553.617;317.929;0;18;1;-0.395033;-0.902549;-3.047399;-0.376464;-0.919625;-3.062057;-0.285826;1.01745;0.301043;0.442679;5.04075;2.29741;1;0.0622134;-0.170532;-0.150958;-0.35409;-1.09597;-1.02253;-1.48612;-7.41749;-1.48612;750;1012;955;758;1024;204;1024;1024;1024;1;3;0;1900;50;35;0.0166836;0;0;0;0.118205;-0.32401;-0.286821; 
1153;1172;2019/06/20 10:35:01;498.95;346.625;12.3206;498.874;345.812;0;93;1;-0.307137;-1.30023;-1.20414;-0.296454;-1.27662;-1.18269;-0.269282;-0.615594;-0.683377;-0.507994;-2.81527;-1.359;553;314;16.3105;555.953;314.609;0;19;1;-0.397363;-0.898658;-3.035748;-0.382734;-0.913335;-3.054165;-0.327623;0.852041;0.109791;-0.238308;1.38749;-1.06296;1;0.0576352;-0.180651;-0.160155;-0.35409;-1.09597;-1.02253;-1.59775;-7.67064;-1.59775;750;1006;954;768;1024;204;1024;1024;1024;1;3;0;1900;50;35;0.0166836;0;0;0;0.109507;-0.343236;-0.304294; 
1154;1173;2019/06/20 10:35:01;499.833;347.306;12.2258;499.386;346.276;0;94;1;-0.313124;-1.31264;-1.21196;-0.301455;-1.28743;-1.19147;-0.273356;-0.623668;-0.659936;-0.450937;-2.41252;-0.877404;555.273;309.818;16.2637;555.735;310.946;0;20;1;-0.405481;-0.890512;-3.025942;-0.389558;-0.906488;-3.045698;-0.355969;0.725307;-0.0494337;-0.911784;-1.99767;-4.20637;1;0.0526342;-0.191457;-0.168938;-0.35409;-1.09597;-1.02253;-1.73351;-7.89949;-1.73351;750;1001;952;779;1024;204;1024;1024;1024;1;3;0;1900;50;35;0.0166836;0;0;0;0.100005;-0.363769;-0.320982; 
1155;1174;2019/06/20 10:35:01;500.535;347.831;12.1259;500.286;347.048;0;95;1;-0.318592;-1.32527;-1.22077;-0.306597;-1.29878;-1.20026;-0.276484;-0.627533;-0.62902;-0.393218;-2.00027;-0.37016;557.273;305.818;16.2011;557.82;306.674;0;21;1;-0.413206;-0.883641;-3.015435;-0.396652;-0.899634;-3.036619;-0.379442;0.622092;-0.18692;-1.42963;-4.56908;-6.6264;1;0.0474931;-0.202809;-0.177727;-0.35409;-1.09597;-1.02253;-1.86247;-8.10295;-1.86247;750;994;952;792;1024;204;1024;1024;1024;1;3;0;1900;50;35;0.0166836;0;0;0;0.0902369;-0.385336;-0.33768; 
1156;1175;2019/06/20 10:35:01;500.795;348.685;12.0236;501.009;347.676;0;96;1;-0.322379;-1.33951;-1.22921;-0.311331;-1.311;-1.20894;-0.278694;-0.631907;-0.596063;-0.329161;-1.57114;0.161103;559;302;15.998;559.647;302.593;0;22;1;-0.42384;-0.884897;-2.99641;-0.404809;-0.895213;-3.024557;-0.401168;0.537063;-0.304044;-1.71598;-6.0238;-7.99778;1;0.112509;-0.4361;-0.205355;-0.42384;-0.874897;-1.00359;4.77037;-19.9172;4.77037;750;1154;1137;973;1024;204;1024;1024;1024;1;3;0;1900;50;35;0.0166836;0;0;0;0.213767;-0.82859;-0.390175; 
1157;1176;2019/06/20 10:35:01;501.594;349.438;11.9733;501.289;348.636;0;97;1;-0.327066;-1.34776;-1.23266;-0.316052;-1.32203;-1.21606;-0.281846;-0.636999;-0.563502;-0.276674;-1.16999;0.657854;559.091;298.727;16.0351;561.213;298.738;0;23;1;-0.423144;-0.87433;-2.99315;-0.410309;-0.888948;-3.015135;-0.407742;0.474061;-0.395024;-1.72981;-6.50899;-8.41518;1;0.107092;-0.457696;-0.209212;-0.423144;-0.86433;-1.00685;4.58378;-19.8568;4.58378;750;1119;1134;1020;1024;204;1024;1024;1024;1;3;0;1900;50;35;0.0166855;0;0;0;0.203475;-0.869623;-0.397503; 
1158;1177;2019/06/20 10:35:01;502.062;350;11.9152;502.111;349.495;0;98;1;-0.330623;-1.3563;-1.23738;-0.320423;-1.33231;-1.22246;-0.283179;-0.645165;-0.533762;-0.231385;-0.86978;1.05687;561;295;15.9059;561.151;295.395;0;24;1;-0.43257;-0.871648;-2.97857;-0.416987;-0.883758;-3.004166;-0.406574;0.427759;-0.468346;-1.52039;-6.26175;-8.12355;1;0.112146;-0.470661;-0.201026;-0.43257;-0.861648;-1.02143;4.71575;-19.8155;4.71575;750;1116;1135;1052;1024;204;1024;1024;1024;1;3;0;1900;50;35;0.0166817;0;0;0;0.213078;-0.894256;-0.38195; 
1159;1178;2019/06/20 10:35:01;502.923;351.385;11.8668;502.594;350.165;0;99;1;-0.335588;-1.3667;-1.23923;-0.324973;-1.34263;-1.22749;-0.283865;-0.650855;-0.499281;-0.197104;-0.662769;1.36976;563.167;290.5;15.7671;562.884;291.636;0;25;1;-0.443235;-0.867406;-2.96178;-0.424861;-0.878852;-2.99145;-0.412285;0.394445;-0.531612;-1.25054;-5.58558;-7.43714;1;0.118262;-0.485221;-0.189267;-0.443235;-0.857406;-1.03822;4.93583;-19.906;4.93583;750;1148;1135;1075;1024;204;1024;1024;1024;1;3;0;1900;50;35;0.0166836;0;0;0;0.224698;-0.921919;-0.359607; 
1160;1179;2019/06/20 10:35:01;503.254;352.136;11.7954;503.467;351.658;0;100;1;-0.339021;-1.37763;-1.24499;-0.329187;-1.35313;-1.23274;-0.281131;-0.653043;-0.464474;-0.149332;-0.51504;1.6029;562.25;287.75;15.7995;564.935;287.097;0;26;1;-0.43943;-0.85836;-2.95915;-0.429232;-0.872705;-2.98176;-0.405904;0.371661;-0.574453;-0.949858;-4.76447;-6.56019;1;0.110243;-0.504767;-0.19189;-0.43943;-0.84836;-1.04085;4.60533;-20.089;4.60533;750;1186;1123;1077;1024;204;1024;1024;1024;1;3;0;1900;50;35;0.0166855;0;0;0;0.209462;-0.959058;-0.364592; 
1161;1180;2019/06/20 10:35:01;504.09;353.313;11.7594;503.803;352.513;0;101;1;-0.343603;-1.38603;-1.24607;-0.333512;-1.363;-1.23674;-0.276229;-0.648438;-0.424448;-0.0885813;-0.39256;1.77918;564.727;284.182;15.8155;563.907;284.299;0;27;1;-0.446801;-0.84807;-2.95404;-0.434503;-0.865314;-2.97344;-0.394788;0.360134;-0.597108;-0.631233;-3.90543;-5.57517;1;0.113289;-0.524928;-0.190779;-0.446801;-0.83807;-1.04596;4.59545;-20.3164;4.59545;750;1231;1119;1074;1024;204;1024;1024;1024;1;3;0;1900;50;35;0.0166836;0;0;0;0.215249;-0.997363;-0.362479; 
1162;1181;2019/06/20 10:35:01;504.928;354.087;11.7679;504.639;353.789;0;102;1;-0.34691;-1.38778;-1.24338;-0.337531;-1.37043;-1.23873;-0.270429;-0.626559;-0.373684;-0.0201226;-0.214165;1.95611;565.667;279.833;15.727;566.274;280.713;0;28;1;-0.452297;-0.841301;-2.9406;-0.439841;-0.85811;-2.96359;-0.376857;0.364337;-0.60188;-0.281595;-3.03345;-4.53522;1;0.114766;-0.539131;-0.179324;-0.452297;-0.831301;-1.0594;4.52416;-20.4579;4.52416;750;1270;1111;1075;1024;204;1024;1024;1024;1;3;0;1900;50;35;0.0166836;0;0;0;0.218055;-1.02435;-0.340716; 
1163;1182;2019/06/20 10:35:01;505.884;355.072;11.7141;505.49;354.652;0;103;1;-0.352576;-1.39766;-1.24678;-0.342045;-1.3786;-1.24114;-0.266125;-0.602;-0.324449;0.0507453;0.0113545;2.12891;566;277;15.6268;567.105;276.367;0;29;1;-0.456262;-0.839126;-2.92885;-0.444767;-0.852415;-2.95317;-0.363807;0.364586;-0.608751;0.00660379;-2.25753;-3.57517;1;0.114217;-0.549474;-0.169991;-0.456262;-0.829126;-1.07115;4.3866;-20.4704;4.3866;750;1301;1104;1076;1024;204;1024;1024;1024;1;3;0;1900;50;35;0.0166836;0;0;0;0.217012;-1.044;-0.322983; 
1164;1183;2019/06/20 10:35:01;506.74;355.863;11.6737;506.464;355.712;0;104;1;-0.357455;-1.40533;-1.24925;-0.346668;-1.38662;-1.24358;-0.264546;-0.578211;-0.279065;0.104901;0.274352;2.29508;566.4;274;15.5188;567.35;273.543;0;30;1;-0.460723;-0.836894;-2.91611;-0.449554;-0.847759;-2.94205;-0.348416;0.3626;-0.613459;0.236353;-1.61488;-2.72496;1;0.114055;-0.559724;-0.159686;-0.460723;-0.826894;-1.08389;4.22692;-20.4658;4.22692;750;1324;1098;1079;1024;204;1024;1024;1024;1;3;0;1900;50;35;0.0166836;0;0;0;0.216704;-1.06348;-0.303404; 
1165;1184;2019/06/20 10:35:01;507.12;356.693;11.6842;507.346;356.569;0;105;1;-0.358757;-1.40703;-1.24618;-0.350295;-1.39274;-1.24436;-0.259911;-0.547177;-0.234846;0.158659;0.578893;2.4337;567.091;270.364;15.5153;567.651;270.572;0;31;1;-0.463047;-0.827295;-2.90946;-0.453602;-0.841619;-2.93227;-0.323893;0.366337;-0.604534;0.495015;-1.08124;-1.92636;1;0.112753;-0.575446;-0.153821;-0.463047;-0.817295;-1.09054;3.99712;-20.526;3.99712;750;1344;1089;1077;1024;204;1024;1024;1024;1;3;0;1900;50;35;0.0166836;0;0;0;0.21423;-1.09335;-0.29226; 
1166;1185;2019/06/20 10:35:01;508.622;357.757;11.7022;507.748;357.446;0;106;1;-0.364609;-1.40866;-1.24178;-0.354589;-1.39752;-1.24358;-0.25745;-0.505683;-0.184247;0.189823;0.936178;2.57999;568.571;268;15.4979;568.229;266.962;0;32;1;-0.468336;-0.82186;-2.90407;-0.458022;-0.835692;-2.92381;-0.309379;0.367704;-0.594279;0.682719;-0.664557;-1.23504;1;0.113747;-0.585657;-0.147652;-0.468336;-0.81186;-1.09593;3.88042;-20.3943;3.88042;750;1352;1084;1078;1024;204;1024;1024;1024;1;3;0;1900;50;35;0.0166836;0;0;0;0.216119;-1.11275;-0.280539; 
1167;1186;2019/06/20 10:35:01;509.307;358.427;11.6918;509.286;358.549;0;107;1;-0.367856;-1.4123;-1.24132;-0.358569;-1.40195;-1.24291;-0.254597;-0.459071;-0.135195;0.200333;1.31841;2.70383;568.667;265.778;15.4048;569.644;264.637;0;33;1;-0.471473;-0.820801;-2.8935;-0.462057;-0.831224;-2.91472;-0.295735;0.356843;-0.591228;0.805442;-0.411885;-0.717531;1;0.112904;-0.591151;-0.13641;-0.471473;-0.810801;-1.1065;3.75194;-20.049;3.75194;750;1351;1079;1086;1024;204;1024;1024;1024;1;3;0;1900;50;35;0.0166836;0;0;0;0.214518;-1.12319;-0.259179; 
1168;1187;2019/06/20 10:35:01;510.583;359;11.692;510.01;359.241;0;108;1;-0.373298;-1.41432;-1.23996;-0.362988;-1.40566;-1.24202;-0.254481;-0.416225;-0.0942708;0.183929;1.63153;2.73882;569.273;263.818;15.3743;569.657;262.497;0;34;1;-0.474377;-0.81711;-2.88782;-0.465753;-0.82699;-2.90665;-0.280984;0.33846;-0.582261;0.866367;-0.350534;-0.352124;1;0.111389;-0.598554;-0.129844;-0.474377;-0.80711;-1.11218;3.54053;-19.6969;3.54053;750;1344;1073;1089;1024;204;1024;1024;1024;1;3;0;1900;50;35;0.0166836;0;0;0;0.211639;-1.13725;-0.246704; 
1169;1188;2019/06/20 10:35:01;512.472;359.528;11.6892;511.328;359.823;0;109;1;-0.381454;-1.41656;-1.23903;-0.368528;-1.40893;-1.24112;-0.258512;-0.370941;-0.0564768;0.140777;1.90222;2.71409;571;262;15.2064;570.179;260.654;0;35;1;-0.485283;-0.82114;-2.87228;-0.471612;-0.825235;-2.89634;-0.275861;0.311685;-0.57644;0.871248;-0.421708;-0.0821611;1;0.116755;-0.597792;-0.113399;-0.485283;-0.81114;-1.12772;3.59384;-19.1358;3.59384;750;1328;1074;1100;1024;204;1024;1024;1024;1;3;0;1900;50;35;0.0166836;0;0;0;0.221835;-1.1358;-0.215458; 
1170;1189;2019/06/20 10:35:01;513.662;359.662;11.7173;513.274;360.344;0;110;1;-0.385606;-1.41364;-1.23574;-0.373651;-1.41034;-1.23951;-0.26293;-0.317371;-0.0176348;0.0909249;2.18364;2.67312;570.4;260;15.0921;571.847;259.004;0;36;1;-0.486975;-0.821828;-2.86011;-0.476221;-0.824213;-2.88547;-0.272076;0.281099;-0.571952;0.827798;-0.578699;0.116561;1;0.113324;-0.598516;-0.0996201;-0.486975;-0.811828;-1.13989;3.43438;-18.503;3.43438;750;1305;1072;1110;1024;204;1024;1024;1024;1;3;0;1900;50;35;0.0166836;0;0;0;0.215316;-1.13718;-0.189278; 
1171;1190;2019/06/20 10:35:01;515.315;359.644;11.7038;514.532;360.456;0;111;1;-0.393098;-1.4152;-1.23721;-0.379485;-1.4118;-1.23882;-0.274399;-0.266587;0.0115477;-0.00334;2.43138;2.58843;572;258;14.9316;571.201;257.173;0;37;1;-0.497556;-0.825068;-2.8442;-0.482621;-0.824469;-2.87309;-0.279204;0.237189;-0.579666;0.67525;-0.863277;0.169306;1;0.118071;-0.596734;-0.0830195;-0.497556;-0.815068;-1.1558;3.52584;-17.7344;3.52584;750;1276;1076;1126;1024;204;1024;1024;1024;1;3;0;1900;50;35;0.0166855;0;0;0;0.224334;-1.13379;-0.157737; 
1172;1191;2019/06/20 10:35:01;517.041;359.479;11.7222;516.271;360.39;0;112;1;-0.399827;-1.41239;-1.23565;-0.385588;-1.41198;-1.23787;-0.288507;-0.21774;0.0297737;-0.126102;2.60941;2.40825;573;255.6;14.785;572.768;255.366;0;38;1;-0.505863;-0.826469;-2.82831;-0.489594;-0.825069;-2.85965;-0.293678;0.184758;-0.604164;0.467887;-1.24899;0.0620843;1;0.120275;-0.595509;-0.0661747;-0.505863;-0.816469;-1.17169;3.60568;-16.9231;3.60568;750;1245;1080;1144;1024;204;1024;1024;1024;1;3;0;1900;50;35;0.0166836;0;0;0;0.228522;-1.13147;-0.125732; 
1173;1192;2019/06/20 10:35:02;518.816;358.711;11.7561;518.088;360.153;0;113;1;-0.406206;-1.40558;-1.23387;-0.391773;-1.41006;-1.23667;-0.305786;-0.163042;0.0427889;-0.280206;2.74856;2.15617;572.857;253.429;14.6951;573.742;253.145;0;39;1;-0.508473;-0.825358;-2.8171;-0.495258;-0.825156;-2.84689;-0.308873;0.135105;-0.633552;0.228233;-1.63545;-0.131872;1;0.1167;-0.594702;-0.0537661;-0.508473;-0.815358;-1.1829;3.49122;-16.0943;3.49122;750;1213;1080;1161;1024;204;1024;1024;1024;1;3;0;1900;50;35;0.0166817;0;0;0;0.22173;-1.12993;-0.102156; 
1174;1193;2019/06/20 10:35:02;521.151;358.055;11.7743;519.969;359.28;0;114;1;-0.415476;-1.4011;-1.23349;-0.398884;-1.40737;-1.23571;-0.326908;-0.104647;0.0508701;-0.457535;2.89416;1.87366;572.909;251.273;14.6825;573.58;251.117;0;40;1;-0.509084;-0.819933;-2.81207;-0.499406;-0.823589;-2.83644;-0.319794;0.094653;-0.660671;-0.0181401;-1.95549;-0.392437;1;0.1102;-0.597438;-0.0477889;-0.509084;-0.809933;-1.18793;3.16354;-15.3669;3.16354;750;1185;1075;1172;1024;204;1024;1024;1024;1;3;0;1900;50;35;0.0166855;0;0;0;0.209381;-1.13513;-0.0907988; 
1175;1194;2019/06/20 10:35:02;523.421;356.947;11.8214;522.423;358.493;0;115;1;-0.423404;-1.3916;-1.23114;-0.40624;-1.40264;-1.23434;-0.346838;-0.0376436;0.0576223;-0.627461;3.06831;1.58012;573;248.4;14.5446;573.607;249.062;0;41;1;-0.514224;-0.819462;-2.79541;-0.503851;-0.822351;-2.82413;-0.3207;0.068316;-0.684922;-0.190055;-2.14577;-0.668944;1;0.107984;-0.593177;-0.029752;-0.514224;-0.809462;-1.20459;2.92197;-14.5704;2.92197;750;1159;1071;1190;1024;204;1024;1024;1024;1;3;0;1900;50;35;0.0166836;0;0;0;0.20517;-1.12704;-0.0565288; 
1176;1195;2019/06/20 10:35:02;525.945;355.781;11.8382;524.817;357.226;0;116;1;-0.433443;-1.38551;-1.23208;-0.414401;-1.3975;-1.23366;-0.370934;0.0287295;0.0579304;-0.80805;3.22396;1.25002;572.727;245.818;14.4695;573.635;246.267;0;42;1;-0.515952;-0.816266;-2.78428;-0.507482;-0.820526;-2.81218;-0.317333;0.0557237;-0.703818;-0.294872;-2.18803;-0.928285;1;0.101552;-0.591236;-0.0179462;-0.515952;-0.806266;-1.21572;2.43191;-13.9274;2.43191;750;1142;1059;1200;1024;204;1024;1024;1024;1;3;0;1900;50;35;0.0166836;0;0;0;0.192948;-1.12335;-0.0340979; 
1177;1196;2019/06/20 10:35:02;528.132;354.211;11.8499;527.474;355.88;0;117;1;-0.442222;-1.37861;-1.23449;-0.422747;-1.39184;-1.23391;-0.395434;0.0970217;0.0543702;-0.96848;3.38734;0.92113;572.8;243.6;14.4362;573.306;243.712;0;43;1;-0.517395;-0.811735;-2.77728;-0.510455;-0.817888;-2.80171;-0.301623;0.0597313;-0.707526;-0.266511;-2.02193;-1.06789;1;0.0946473;-0.5901;-0.0111884;-0.517395;-0.801735;-1.22272;1.81367;-13.4087;1.81367;750;1132;1042;1200;1024;204;1024;1024;1024;1;3;0;1900;50;35;0.0166836;0;0;0;0.17983;-1.12119;-0.0212579; 
1178;1197;2019/06/20 10:35:02;531.077;352.718;11.8901;529.795;354.111;0;118;1;-0.453086;-1.36871;-1.23374;-0.431849;-1.3849;-1.23386;-0.422118;0.166432;0.0486372;-1.11499;3.56753;0.628056;572.25;241.75;14.2938;573.3;241.487;0;44;1;-0.520628;-0.814416;-2.76156;-0.513507;-0.816847;-2.78966;-0.276531;0.0686958;-0.704194;-0.0913872;-1.67694;-1.04045;1;0.0887789;-0.58048;0.00457823;-0.520628;-0.804416;-1.23844;1.11324;-12.789;1.11324;750;1125;1020;1202;1024;204;1024;1024;1024;1;3;0;1900;50;35;0.0166836;0;0;0;0.16868;-1.10291;0.00869864; 
1179;1198;2019/06/20 10:35:02;533.531;350.593;11.9;532.889;352.408;0;119;1;-0.463;-1.36011;-1.2376;-0.441194;-1.37746;-1.23498;-0.450751;0.23012;0.0359226;-1.24826;3.71155;0.349396;572;239.111;14.1408;572.643;239.642;0;45;1;-0.525379;-0.815438;-2.74306;-0.517069;-0.816424;-2.77568;-0.253073;0.0761083;-0.707041;0.168135;-1.24191;-0.917924;1;0.0841851;-0.572023;0.0219584;-0.525379;-0.805438;-1.25694;0.455498;-12.2117;0.455498;750;1123;998;1203;1024;204;1024;1024;1024;1;3;0;1900;50;35;0.0166836;0;0;0;0.159952;-1.08684;0.0417209; 
1180;1199;2019/06/20 10:35:02;536.293;348.053;11.9558;535.487;350.065;0;120;1;-0.472366;-1.34489;-1.23762;-0.450546;-1.36769;-1.23577;-0.476888;0.296634;0.0213225;-1.34827;3.83042;0.0915673;571.429;238;14.109;572.283;237.005;0;46;1;-0.524543;-0.813988;-2.73807;-0.519311;-0.815693;-2.7644;-0.231385;0.0772153;-0.712105;0.45416;-0.814823;-0.756284;1;0.0739971;-0.563702;0.026153;-0.524543;-0.803988;-1.26193;-0.328964;-11.5707;-0.328964;750;1116;974;1196;1024;204;1024;1024;1024;1;3;0;1900;50;35;0.0166836;0;0;0;0.140594;-1.07103;0.0496906; 
1181;1200;2019/06/20 10:35:02;539.44;345.307;12.008;538.393;347.289;0;121;1;-0.483392;-1.3295;-1.2385;-0.4604;-1.35623;-1.23659;-0.502552;0.363416;0.00380471;-1.43118;3.90087;-0.160112;570.667;236.222;13.8629;571.607;235.888;0;47;1;-0.531114;-0.823087;-2.71216;-0.522852;-0.817912;-2.74873;-0.214757;0.0640686;-0.728576;0.695837;-0.505866;-0.628208;1;0.0707145;-0.543146;0.0512466;-0.531114;-0.813087;-1.28784;-0.839679;-10.594;-0.839679;750;1100;955;1206;1024;204;1024;1024;1024;1;3;0;1900;50;35;0.0166836;0;0;0;0.134358;-1.03198;0.0973686; 
1182;1201;2019/06/20 10:35:02;542.4;342.773;12.0456;541.682;344.293;0;122;1;-0.494146;-1.31657;-1.24038;-0.470523;-1.34434;-1.23773;-0.525794;0.430498;-0.0139561;-1.47752;3.94597;-0.383322;569.6;234;13.7817;570.736;234.168;0;48;1;-0.53038;-0.821204;-2.70017;-0.52511;-0.818899;-2.73416;-0.199299;0.0449398;-0.748896;0.889161;-0.346612;-0.557054;1;0.0598568;-0.533132;0.0621018;-0.53038;-0.811204;-1.29983;-1.58612;-9.74641;-1.58612;750;1081;935;1209;1024;204;1024;1024;1024;1;3;0;1900;50;35;0.0166836;0;0;0;0.113728;-1.01295;0.117993; 
1183;1202;2019/06/20 10:35:02;545.342;339.507;12.0824;544.774;341.507;0;123;1;-0.504789;-1.30127;-1.24398;-0.480803;-1.33141;-1.2396;-0.547464;0.499735;-0.0311224;-1.49401;3.9768;-0.571617;569;232;13.6375;569.562;231.997;0;49;1;-0.533793;-0.823763;-2.68242;-0.527715;-0.820358;-2.71864;-0.188548;0.0170938;-0.781277;0.985342;-0.378344;-0.628935;1;0.0529894;-0.517652;0.077976;-0.533793;-0.813763;-1.31758;-2.13119;-8.70514;-2.13119;750;1052;920;1223;1024;204;1024;1024;1024;1;3;0;1900;50;35;0.0166836;0;0;0;0.10068;-0.983538;0.148154; 
1184;1203;2019/06/20 10:35:02;548.703;336.162;12.1036;547.845;337.979;0;124;1;-0.517762;-1.28746;-1.24936;-0.491891;-1.31823;-1.24253;-0.568402;0.566243;-0.0533282;-1.48095;3.9837;-0.750418;568;231;13.6132;568.852;230.06;0;50;1;-0.53108;-0.822167;-2.67806;-0.528724;-0.820901;-2.70647;-0.173936;-0.00594377;-0.801224;1.00117;-0.525262;-0.765085;1;0.039189;-0.506062;0.0794072;-0.53108;-0.812167;-1.32194;-2.98565;-7.81962;-2.98565;750;1021;901;1223;1024;204;1024;1024;1024;1;3;0;1900;50;35;0.0166836;0;0;0;0.0744591;-0.961517;0.150874; 
1185;1204;2019/06/20 10:35:02;551.974;333;12.1539;551.325;334.365;0;125;1;-0.529046;-1.27126;-1.2513;-0.503037;-1.30414;-1.24516;-0.588158;0.632733;-0.0726806;-1.43764;3.99901;-0.884215;567;228.4;13.5061;567.747;229.112;0;51;1;-0.531595;-0.820647;-2.66232;-0.529586;-0.820825;-2.69322;-0.154377;-0.0211501;-0.810238;0.995079;-0.703789;-0.871413;1;0.0285575;-0.493492;0.0925169;-0.531595;-0.810647;-1.33768;-3.75287;-6.93054;-3.75287;750;990;886;1232;1024;204;1024;1024;1024;1;3;0;1900;50;35;0.0166855;0;0;0;0.0542593;-0.937635;0.175782; 
1186;1205;2019/06/20 10:35:02;555;329.18;12.172;554.721;330.935;0;126;1;-0.540665;-1.25627;-1.25802;-0.514326;-1.28978;-1.24902;-0.607751;0.69097;-0.0965364;-1.38549;3.97512;-1.00148;566.25;226.25;13.4556;566.645;226.583;0;52;1;-0.530812;-0.817061;-2.65293;-0.529953;-0.819695;-2.68113;-0.135152;-0.0286814;-0.818869;0.98158;-0.845423;-0.949462;1;0.0164862;-0.482716;0.0980566;-0.530812;-0.807061;-1.34707;-4.58126;-6.22089;-4.58126;750;965;870;1233;1024;204;1024;1024;1024;1;3;0;1900;50;35;0.0166836;0;0;0;0.0313237;-0.917161;0.186307; 
1187;1206;2019/06/20 10:35:02;558.395;325.237;12.1867;557.855;326.859;0;127;1;-0.553914;-1.24125;-1.26534;-0.526202;-1.27522;-1.25392;-0.627594;0.738318;-0.127151;-1.33096;3.88316;-1.12418;565.667;224.333;13.4696;565.799;224.464;0;53;1;-0.528098;-0.810268;-2.65044;-0.529397;-0.816867;-2.67193;-0.107244;-0.013035;-0.798226;1.01857;-0.815356;-0.847996;1;0.00189537;-0.47495;0.0956444;-0.528098;-0.800268;-1.34956;-5.61975;-5.84695;-5.61975;750;954;847;1215;1024;204;1024;1024;1024;1;3;0;1900;50;35;0.0166817;0;0;0;0.0036012;-0.902404;0.181724; 
1188;1207;2019/06/20 10:35:02;561.189;320.811;12.2063;561.344;322.673;0;128;1;-0.564448;-1.22411;-1.27322;-0.537676;-1.25989;-1.25971;-0.64489;0.780438;-0.164115;-1.27446;3.72821;-1.27452;564;222.571;13.3934;565.133;222.547;0;54;1;-0.524893;-0.809386;-2.63917;-0.528045;-0.814623;-2.6621;-0.0760743;0.00926713;-0.766894;1.10353;-0.631757;-0.580715;1;-0.0127833;-0.460501;0.101127;-0.524893;-0.799386;-1.36083;-6.65224;-5.42088;-6.65224;750;949;824;1196;1024;204;1024;1024;1024;1;3;0;1900;50;35;0.0166855;0;0;0;-0.0242883;-0.874951;0.192141; 
1189;1208;2019/06/20 10:35:02;564.789;316.225;12.2085;564.211;317.997;0;129;1;-0.57906;-1.20821;-1.28326;-0.550091;-1.24438;-1.26677;-0.6638;0.816024;-0.207026;-1.22954;3.50077;-1.4676;563;219.6;13.3279;563.399;220.792;0;55;1;-0.52373;-0.804058;-2.62638;-0.526751;-0.811453;-2.65138;-0.0417914;0.0411439;-0.728884;1.24854;-0.282953;-0.139072;1;-0.0263613;-0.450327;0.106847;-0.52373;-0.794058;-1.37362;-7.75168;-5.17877;-7.75168;750;973;796;1170;1024;204;1024;1024;1024;1;3;0;1900;50;35;0.0166836;0;0;0;-0.0500866;-0.855621;0.203009; 
1190;1209;2019/06/20 10:35:02;567.528;311.833;12.2436;567.876;313.169;0;130;1;-0.588562;-1.18977;-1.28938;-0.561632;-1.228;-1.27355;-0.676959;0.85015;-0.248173;-1.1715;3.23492;-1.65914;562;217;13.1288;562.329;217.812;0;56;1;-0.527871;-0.807983;-2.60014;-0.527087;-0.810412;-2.63601;-0.0185315;0.0665973;-0.718862;1.3701;0.120093;0.245661;1;-0.0337611;-0.430018;0.126308;-0.527871;-0.797983;-1.39986;-8.40534;-4.64943;-8.40534;750;986;781;1165;1024;204;1024;1024;1024;1;3;0;1900;50;35;0.0166836;0;0;0;-0.0641461;-0.817034;0.239984; 
1191;1210;2019/06/20 10:35:02;570.493;307.043;12.2733;570.663;308.537;0;131;1;-0.599191;-1.1706;-1.29692;-0.5729;-1.21078;-1.28056;-0.685343;0.883147;-0.290368;-1.09124;2.94159;-1.86535;561.667;215.667;13.0399;561.275;215.179;0;57;1;-0.530194;-0.809222;-2.5878;-0.528019;-0.810055;-2.62155;-0.00485939;0.0829924;-0.717726;1.41952;0.488203;0.517072;1;-0.042706;-0.411558;0.131634;-0.530194;-0.799222;-1.4122;-9.02492;-4.12352;-9.02492;750;997;768;1153;1024;204;1024;1024;1024;1;3;0;1900;50;35;0.0166836;0;0;0;-0.0811413;-0.78196;0.250104; 
1192;1211;2019/06/20 10:35:02;573.549;301.915;12.2762;573.652;303.508;0;132;1;-0.611478;-1.15289;-1.30804;-0.584473;-1.19341;-1.28881;-0.691512;0.914956;-0.333215;-0.98945;2.65999;-2.06496;560;213;13.1363;560.903;213.806;0;58;1;-0.51997;-0.794805;-2.59262;-0.525604;-0.80548;-2.61287;0.0144629;0.106599;-0.703411;1.44957;0.833494;0.771608;1;-0.0645032;-0.408607;0.11857;-0.51997;-0.784805;-1.40738;-10.1702;-3.9968;-10.1702;750;1025;743;1119;1024;204;1024;1024;1024;1;3;0;1900;50;35;0.0166836;0;0;0;-0.122556;-0.776353;0.225283; 
1193;1212;2019/06/20 10:35:02;576.299;297.075;12.2822;576.714;298.151;0;133;1;-0.622346;-1.13586;-1.31817;-0.595835;-1.17615;-1.29762;-0.693151;0.944844;-0.374548;-0.855626;2.42125;-2.22755;559.2;211.6;12.9317;559.191;211.081;0;59;1;-0.525112;-0.802863;-2.56739;-0.525457;-0.804695;-2.59923;0.0244214;0.112597;-0.712541;1.39586;1.00211;0.805352;1;-0.0707231;-0.383285;0.134993;-0.525112;-0.792863;-1.43261;-10.6241;-3.20258;-10.6241;750;1016;737;1125;1024;204;1024;1024;1024;1;3;0;1900;50;35;0.0166836;0;0;0;-0.134374;-0.728241;0.256487; 
1194;1213;2019/06/20 10:35:02;578.722;291.861;12.2912;579.45;293.093;0;134;1;-0.631729;-1.11732;-1.32879;-0.606603;-1.1585;-1.30697;-0.69132;0.97204;-0.413587;-0.69891;2.21838;-2.3334;558;211;12.8873;558.359;209.677;0;60;1;-0.522273;-0.803684;-2.56119;-0.524502;-0.804392;-2.58781;0.0288137;0.108442;-0.724355;1.25664;0.997561;0.653194;1;-0.08433;-0.364817;0.131844;-0.522273;-0.793684;-1.43881;-11.2907;-2.51994;-11.2907;750;1003;728;1119;1024;204;1024;1024;1024;1;3;0;1900;50;35;0.0166836;0;0;0;-0.160227;-0.693152;0.250504; 
1195;1214;2019/06/20 10:35:02;581.373;286.806;12.2657;581.846;287.677;0;135;1;-0.643827;-1.10244;-1.34282;-0.61777;-1.14168;-1.31772;-0.685235;0.993619;-0.451755;-0.504999;2.04069;-2.37796;557.6;210.8;12.6569;557.133;209.078;0;61;1;-0.530202;-0.817651;-2.53457;-0.526212;-0.80837;-2.57184;0.019442;0.0773874;-0.75246;0.99867;0.743363;0.297707;1;-0.0875685;-0.334031;0.147708;-0.530202;-0.807651;-1.46543;-11.4465;-1.307;-11.4465;750;956;735;1142;1024;204;1024;1024;1024;1;3;0;1900;50;35;0.0166836;0;0;0;-0.16638;-0.634658;0.280646; 
1196;1215;2019/06/20 10:35:02;583.118;281.294;12.3048;584.439;282.453;0;136;1;-0.648859;-1.08024;-1.3508;-0.627097;-1.12325;-1.32765;-0.672734;1.01475;-0.487207;-0.286118;1.88216;-2.38194;555;210;12.5689;556.737;208.97;0;62;1;-0.523593;-0.82072;-2.52257;-0.525426;-0.812075;-2.55706;0.0183018;0.0397887;-0.766963;0.746386;0.338892;-0.0135826;1;-0.103504;-0.312529;0.149788;-0.523593;-0.810721;-1.47743;-12.0202;-0.152965;-12.0202;750;908;731;1151;1024;204;1024;1024;1024;1;3;0;1900;50;35;0.0166836;0;0;0;-0.196657;-0.593805;0.284596; 
1197;1216;2019/06/20 10:35:02;585.303;275.818;12.2907;586.116;276.76;0;137;1;-0.658473;-1.06287;-1.36452;-0.63651;-1.10514;-1.33871;-0.657817;1.03099;-0.524664;-0.0616797;1.72005;-2.36538;554.333;209.667;12.5093;554.12;208.296;0;63;1;-0.523429;-0.823519;-2.5148;-0.524827;-0.815508;-2.54438;0.0237364;0.00208356;-0.76853;0.562097;-0.119966;-0.211159;1;-0.113081;-0.291617;0.146495;-0.523429;-0.813519;-1.4852;-12.5098;0.871551;-12.5098;750;862;729;1148;1024;204;1024;1024;1024;1;3;0;1900;50;35;0.0166855;0;0;0;-0.214854;-0.554073;0.27834; 
1198;1217;2019/06/20 10:35:02;587.507;270.493;12.2816;588.204;271.134;0;138;1;-0.667918;-1.04556;-1.37739;-0.645932;-1.08726;-1.35031;-0.640277;1.04276;-0.560569;0.167726;1.54272;-2.32773;554;209;12.4522;553.411;208.108;0;64;1;-0.524495;-0.825063;-2.50652;-0.524727;-0.818375;-2.53302;0.0177461;-0.0502756;-0.780191;0.350377;-0.698841;-0.433505;1;-0.121437;-0.2722;0.14317;-0.524495;-0.815063;-1.49348;-12.7923;1.98237;-12.7923;750;807;731;1148;1024;204;1024;1024;1024;1;3;0;1900;50;35;0.0166817;0;0;0;-0.23073;-0.51718;0.272024; 
1199;1218;2019/06/20 10:35:02;588.824;264.912;12.2842;590.299;265.679;0;139;1;-0.673126;-1.02637;-1.38952;-0.65409;-1.069;-1.36207;-0.616947;1.05382;-0.593908;0.405136;1.36107;-2.27317;552.4;208.8;12.2862;553.06;207.619;0;65;1;-0.525081;-0.835526;-2.4859;-0.524833;-0.82352;-2.51889;0.0131382;-0.105388;-0.789148;0.16514;-1.29035;-0.566215;1;-0.12901;-0.24347;0.152024;-0.525081;-0.825526;-1.5141;-12.9076;3.53284;-12.9076;750;733;737;1158;1024;204;1024;1024;1024;1;3;0;1900;50;35;0.0166855;0;0;0;-0.245119;-0.462594;0.288846; 
1200;1219;2019/06/20 10:35:02;590.486;259.057;12.3017;591.485;259.974;0;140;1;-0.67891;-1.00504;-1.40055;-0.661536;-1.04981;-1.37361;-0.589673;1.0666;-0.622654;0.649249;1.1945;-2.19931;551.667;208.333;12.323;551.456;207.619;0;66;1;-0.520543;-0.83145;-2.48939;-0.523546;-0.825899;-2.51004;0.0117006;-0.149174;-0.78428;0.0307026;-1.80361;-0.579181;1;-0.140993;-0.228361;0.136996;-0.520543;-0.82145;-1.51061;-13.2958;4.54383;-13.2958;750;683;736;1141;1024;204;1024;1024;1024;1;3;0;1900;50;35;0.0166836;0;0;0;-0.267887;-0.433885;0.260292; 
1201;1220;2019/06/20 10:35:02;591.739;253.188;12.2806;593.012;253.997;0;141;1;-0.685166;-0.986813;-1.416;-0.668625;-1.03091;-1.38633;-0.557013;1.08259;-0.647739;0.901907;1.0722;-2.10272;550.4;207.2;12.1355;550.706;207.319;0;67;1;-0.523377;-0.840397;-2.4635;-0.523495;-0.830248;-2.49607;0.0178746;-0.176929;-0.773318;0.0121583;-2.09838;-0.430856;1;-0.145248;-0.200514;0.150171;-0.523377;-0.830397;-1.5365;-13.1981;5.952;-13.1981;750;622;743;1145;1024;204;1024;1024;1024;1;3;0;1900;50;35;0.0166836;0;0;0;-0.275972;-0.380978;0.285324; 
1202;1221;2019/06/20 10:35:02;592;247.469;12.2668;594.108;248.022;0;142;1;-0.686998;-0.968456;-1.43034;-0.674137;-1.01217;-1.39953;-0.522173;1.09339;-0.675894;1.14277;0.957543;-2.0156;547.667;206.333;12.0671;549.43;206.328;0;68;1;-0.515044;-0.842168;-2.45282;-0.52096;-0.833824;-2.4831;0.0285705;-0.193065;-0.759529;0.0483276;-2.18948;-0.228811;1;-0.159093;-0.180007;0.147651;-0.515044;-0.832168;-1.54718;-13.4537;6.95338;-13.4537;750;600;741;1130;1024;204;1024;1024;1024;1;3;0;1900;50;35;0.0166836;0;0;0;-0.302276;-0.342013;0.280537; 
1203;1222;2019/06/20 10:35:02;593.333;242;12.2412;594.194;242.204;0;143;1;-0.693874;-0.951835;-1.44555;-0.680058;-0.994073;-1.41334;-0.48732;1.09984;-0.703751;1.36695;0.849644;-1.92498;546;205.5;12.1451;546.682;205.556;0;69;1;-0.504887;-0.833892;-2.46088;-0.516138;-0.833845;-2.47643;0.0518621;-0.18911;-0.727231;0.141385;-2.07769;0.0277422;1;-0.175171;-0.170181;0.12578;-0.504887;-0.823892;-1.53912;-14.0777;7.31789;-14.0777;750;600;729;1090;1024;204;1024;1024;1024;1;3;0;1900;50;35;0.0166836;0;0;0;-0.332824;-0.323344;0.238983; 
1204;1223;2019/06/20 10:35:02;593.831;236.034;12.2365;595.348;236.661;0;144;1;-0.696163;-0.931839;-1.45942;-0.68489;-0.975403;-1.42716;-0.44806;1.10688;-0.729336;1.58824;0.766021;-1.82936;544.571;204;11.8409;544.961;204.772;0;70;1;-0.511838;-0.850026;-2.41788;-0.514848;-0.838699;-2.45887;0.0705941;-0.19468;-0.732651;0.296005;-1.82363;0.206607;1;-0.173052;-0.135377;0.154958;-0.511838;-0.840026;-1.58212;-13.4523;8.7477;-13.4523;750;600;743;1111;1024;204;1024;1024;1024;1;3;0;1900;50;35;0.0166836;0;0;0;-0.328799;-0.257216;0.294421; 
1205;1224;2019/06/20 10:35:02;593.733;230.533;12.1953;595.655;230.617;0;145;1;-0.698118;-0.916157;-1.47668;-0.688858;-0.957629;-1.44202;-0.407766;1.10915;-0.757055;1.78882;0.680715;-1.74954;542;203;11.7608;543.485;203.309;0;71;1;-0.504414;-0.852267;-2.40478;-0.511718;-0.84277;-2.44264;0.0947649;-0.193727;-0.744267;0.503778;-1.44718;0.303308;1;-0.184444;-0.115362;0.153207;-0.504414;-0.842267;-1.59522;-13.5839;9.42327;-13.5839;750;600;739;1103;1024;204;1024;1024;1024;1;3;0;1900;50;35;0.0166836;0;0;0;-0.350443;-0.219187;0.291093; 
1206;1225;2019/06/20 10:35:02;593.69;225.759;12.2025;595.351;225.068;0;146;1;-0.697527;-0.899279;-1.4865;-0.691459;-0.940124;-1.45536;-0.364228;1.10379;-0.780891;1.97416;0.557041;-1.68203;539.429;202;11.72;540.834;202.295;0;72;1;-0.495222;-0.851671;-2.39689;-0.506769;-0.84544;-2.42891;0.123899;-0.194321;-0.770718;0.750607;-1.04871;0.236178;1;-0.196237;-0.0984526;0.147746;-0.495222;-0.841671;-1.60311;-13.682;9.93928;-13.682;750;600;733;1101;1024;204;1024;1024;1024;1;3;0;1900;50;35;0.0166836;0;0;0;-0.37285;-0.18706;0.280718; 
1207;1226;2019/06/20 10:35:02;594;220.103;12.181;595.094;220.261;0;147;1;-0.700034;-0.881489;-1.50182;-0.694031;-0.922533;-1.4693;-0.320058;1.09535;-0.800071;2.13136;0.385219;-1.61793;537.6;200.8;11.7847;538.147;201.258;0;73;1;-0.48476;-0.842744;-2.40291;-0.500166;-0.844631;-2.42111;0.167561;-0.174065;-0.761973;1.0485;-0.617784;0.187043;1;-0.209271;-0.0897897;0.127789;-0.48476;-0.832744;-1.59709;-14.1623;9.99922;-14.1623;750;600;720;1078;1024;204;1024;1024;1024;1;3;0;1900;50;35;0.0166836;0;0;0;-0.397616;-0.1706;0.2428; 
1208;1227;2019/06/20 10:35:02;593.393;215.643;12.1083;595.188;214.61;0;148;1;-0.701733;-0.8714;-1.5209;-0.696342;-0.907193;-1.48478;-0.280764;1.07671;-0.820684;2.24347;0.164471;-1.54933;536;199;11.6346;536.172;200.008;0;74;1;-0.484151;-0.847156;-2.37808;-0.495362;-0.845389;-2.4082;0.202826;-0.15065;-0.756454;1.32542;-0.201179;0.124513;1;-0.212191;-0.0700372;0.137139;-0.484151;-0.837156;-1.62192;-14.057;10.1998;-14.057;750;600;718;1081;1024;204;1024;1024;1024;1;3;0;1900;50;35;0.0166836;0;0;0;-0.403162;-0.133071;0.260565; 
1209;1228;2019/06/20 10:35:02;592.667;210.784;12.1016;594.37;210.21;0;149;1;-0.699128;-0.85512;-1.53272;-0.697178;-0.891571;-1.49916;-0.236868;1.05562;-0.835355;2.34688;-0.0780258;-1.45548;532.8;197.6;11.582;534.483;198.159;0;75;1;-0.472564;-0.845958;-2.36741;-0.488522;-0.845559;-2.39596;0.232047;-0.137201;-0.775416;1.51526;0.0867169;-0.117835;1;-0.224614;-0.0556135;0.13343;-0.472564;-0.835958;-1.63259;-14.1111;10.3505;-14.1111;750;600;715;1086;1024;204;1024;1024;1024;1;3;0;1900;50;35;0.0166836;0;0;0;-0.426767;-0.105666;0.253517; 
1210;1229;2019/06/20 10:35:02;591.857;206.321;12.0721;593.428;205.406;0;150;1;-0.697492;-0.841778;-1.54657;-0.697272;-0.876633;-1.51338;-0.1916;1.02805;-0.84575;2.43293;-0.361839;-1.33847;529.667;196.333;11.5014;531.19;196.692;0;76;1;-0.46228;-0.847286;-2.35296;-0.48065;-0.846077;-2.38306;0.275883;-0.111805;-0.768151;1.72948;0.383194;-0.212555;1;-0.234992;-0.0393471;0.133654;-0.46228;-0.837286;-1.64704;-14.2405;10.3512;-14.2405;750;600;710;1085;1024;204;1024;1024;1024;1;3;0;1900;50;35;0.0166836;0;0;0;-0.446485;-0.0747594;0.253942; 
1211;1230;2019/06/20 10:35:02;591;202.231;11.9824;592.397;201.04;0;151;1;-0.69914;-0.833822;-1.56747;-0.697832;-0.86379;-1.52961;-0.15082;0.991797;-0.857459;2.48648;-0.686024;-1.20429;529;195;11.5228;527.939;195.366;0;77;1;-0.458534;-0.84088;-2.35286;-0.474015;-0.844518;-2.374;0.316186;-0.0740702;-0.735152;1.92246;0.708051;-0.0911107;1;-0.239299;-0.0329096;0.117529;-0.458534;-0.83088;-1.64714;-14.4637;9.89444;-14.4637;750;600;702;1059;1024;204;1024;1024;1024;1;3;0;1900;50;35;0.0166855;0;0;0;-0.454667;-0.0625283;0.223306; 
1212;1231;2019/06/20 10:35:02;590.231;198.654;11.9226;591.327;197.102;0;152;1;-0.69943;-0.825481;-1.58354;-0.698312;-0.852297;-1.54579;-0.117875;0.946023;-0.875805;2.47628;-1.04204;-1.10184;525.333;193.333;11.4632;527.165;193.968;0;78;1;-0.444958;-0.839185;-2.34032;-0.465298;-0.842918;-2.3639;0.355426;-0.0343651;-0.700892;2.07862;1.06399;0.224351;1;-0.253354;-0.0231125;0.113894;-0.444958;-0.829185;-1.65968;-14.8311;9.38073;-14.8311;750;637;690;1039;1024;204;1024;1024;1024;1;3;0;1900;50;35;0.0166836;0;0;0;-0.481372;-0.0439137;0.216399; 
1213;1232;2019/06/20 10:35:02;588.612;195.02;11.8762;590.363;193.687;0;153;1;-0.695363;-0.815934;-1.59809;-0.697427;-0.841388;-1.56148;-0.0842936;0.891859;-0.893815;2.42785;-1.43833;-1.03569;523;193;11.3684;523.425;192.239;0;79;1;-0.438425;-0.844956;-2.32568;-0.457236;-0.843529;-2.35243;0.3848;-0.0162164;-0.694974;2.11523;1.26914;0.402329;1;-0.259002;-0.00643277;0.11284;-0.438425;-0.834956;-1.67432;-14.7948;9.24889;-14.7948;750;657;689;1031;1024;204;1024;1024;1024;1;3;0;1900;50;35;0.0166836;0;0;0;-0.492103;-0.0122223;0.214395; 
1214;1233;2019/06/20 10:35:02;587.02;191.961;11.807;588.546;190.241;0;154;1;-0.692706;-0.809896;-1.61453;-0.696011;-0.83194;-1.57739;-0.0492522;0.835816;-0.90636;2.3818;-1.82558;-0.963765;521;191;11.4345;521.022;191.865;0;80;1;-0.427163;-0.832769;-2.33058;-0.448214;-0.840301;-2.34588;0.419276;0.0105984;-0.666032;2.13404;1.40581;0.602713;1;-0.268847;-0.00917137;0.0920259;-0.427163;-0.822769;-1.66942;-15.1453;8.44352;-15.1453;750;702;680;1003;1024;204;1024;1024;1024;1;3;0;1900;50;35;0.0166836;0;0;0;-0.51081;-0.0174256;0.174849; 
1215;1234;2019/06/20 10:35:02;585.404;188.851;11.7124;586.757;187.395;0;155;1;-0.69142;-0.805354;-1.63483;-0.694633;-0.823964;-1.59463;-0.0193847;0.771637;-0.925277;2.29812;-2.23009;-0.937575;519.667;189.667;11.2815;518.923;189.826;0;81;1;-0.427061;-0.839133;-2.3047;-0.441868;-0.839951;-2.33352;0.43799;0.0287706;-0.649123;2.10335;1.50669;0.866275;1;-0.267572;0.00516814;0.100673;-0.427061;-0.829133;-1.6953;-14.903;8.14504;-14.903;750;724;684;996;1024;204;1024;1024;1024;1;3;0;1900;50;35;0.0166836;0;0;0;-0.508388;0.00981947;0.191279; 
1216;1235;2019/06/20 10:35:02;583.75;186.167;11.6389;584.956;184.526;0;156;1;-0.688694;-0.80081;-1.65146;-0.692851;-0.817018;-1.61168;0.00603301;0.701197;-0.947924;2.16859;-2.6441;-0.970819;517;189;11.1919;517.574;188.481;0;82;1;-0.418588;-0.843359;-2.28951;-0.434884;-0.840973;-2.32032;0.445667;0.0376573;-0.640191;1.94044;1.50124;1.03108;1;-0.274263;0.0163414;0.0988152;-0.418588;-0.833359;-1.71049;-14.8173;7.75636;-14.8173;750;746;687;983;1024;204;1024;1024;1024;1;3;0;1900;50;35;0.0166836;0;0;0;-0.5211;0.0310486;0.187749; 
1217;1236;2019/06/20 10:35:02;582.16;183.64;11.5755;583.127;182.088;0;157;1;-0.685609;-0.796079;-1.66646;-0.690679;-0.810736;-1.62811;0.032206;0.632716;-0.96236;2.03251;-3.02133;-1.00167;513.5;188;11.1945;514.918;187.812;0;83;1;-0.402891;-0.839437;-2.28746;-0.425286;-0.840512;-2.31046;0.462117;0.0386015;-0.63802;1.7474;1.35098;1.00678;1;-0.287788;0.0187002;0.0844282;-0.402891;-0.829437;-1.71254;-15.0628;7.18538;-15.0628;750;771;682;968;1024;204;1024;1024;1024;1;3;0;1900;50;35;0.0166836;0;0;0;-0.546797;0.0355303;0.160414; 
1218;1237;2019/06/20 10:35:02;579.92;181.48;11.5162;581.375;179.81;0;158;1;-0.679435;-0.79235;-1.68017;-0.687305;-0.805221;-1.64373;0.0633037;0.567745;-0.968786;1.94349;-3.32438;-0.972547;512.4;187.2;11.1017;511.374;186.817;0;84;1;-0.401313;-0.843442;-2.27118;-0.418094;-0.841391;-2.29868;0.465893;0.0292621;-0.643426;1.48986;1.06484;0.8337;1;-0.285992;0.0282218;0.0850888;-0.401313;-0.833442;-1.72882;-14.6708;7.0016;-14.6708;750;769;695;974;1024;204;1024;1024;1024;1;3;0;1900;50;35;0.0166836;0;0;0;-0.543385;0.0536214;0.161669; 
1219;1238;2019/06/20 10:35:02;577.5;179.667;11.4871;578.971;177.897;0;159;1;-0.670641;-0.787764;-1.68874;-0.682306;-0.799984;-1.65723;0.0984044;0.506098;-0.963901;1.89614;-3.5361;-0.863585;510;186.5;11.0194;510.275;186.053;0;85;1;-0.393443;-0.847091;-2.25653;-0.410699;-0.843101;-2.28603;0.465495;0.0192673;-0.651384;1.21637;0.780693;0.674401;1;-0.288863;0.0371079;0.0862386;-0.393443;-0.837091;-1.74347;-14.2866;6.81637;-14.2866;750;764;708;986;1024;204;1024;1024;1024;1;3;0;1900;50;35;0.0166836;0;0;0;-0.548839;0.0705051;0.163853; 
1220;1239;2019/06/20 10:35:02;575.348;178.261;11.4679;576.389;176.325;0;160;1;-0.662399;-0.783965;-1.69492;-0.676334;-0.795178;-1.66854;0.137669;0.45056;-0.942543;1.88461;-3.66112;-0.662738;507;185;10.9507;507.894;185.385;0;86;1;-0.38224;-0.846685;-2.24185;-0.402161;-0.844176;-2.27278;0.463322;-0.00392442;-0.682927;0.905828;0.410383;0.33713;1;-0.294094;0.041507;0.0896106;-0.38224;-0.836685;-1.75815;-13.9366;6.63291;-13.9366;750;754;722;1014;1024;204;1024;1024;1024;1;3;0;1900;50;35;0.0166836;0;0;0;-0.558778;0.0788633;0.17026; 
1221;1240;2019/06/20 10:35:02;573.174;176.87;11.3579;574.083;175.161;0;161;1;-0.659267;-0.786448;-1.71469;-0.671214;-0.792559;-1.68238;0.176184;0.395831;-0.916198;1.91225;-3.69837;-0.361364;503.6;184.8;10.9052;504.901;183.925;0;87;1;-0.36828;-0.849457;-2.234;-0.391997;-0.845761;-2.26115;0.477276;-0.0255712;-0.698974;0.700482;0.0290833;0.00307634;1;-0.302934;0.0468984;0.0836134;-0.36828;-0.839457;-1.766;-13.9404;6.40272;-13.9404;750;744;727;1031;1024;204;1024;1024;1024;1;3;0;1900;50;35;0.0166836;0;0;0;-0.575575;0.0891069;0.158865; 
1222;1241;2019/06/20 10:35:02;570.571;175.796;11.3141;571.775;174.038;0;162;1;-0.650338;-0.785526;-1.72391;-0.664951;-0.790449;-1.69484;0.217198;0.343667;-0.882044;1.99115;-3.64769;0.0464351;502;183;10.9938;501.459;183.777;0;88;1;-0.358049;-0.835775;-2.24376;-0.381813;-0.842765;-2.25593;0.498437;-0.0225016;-0.676676;0.631154;-0.222942;-0.143947;1;-0.306902;0.0353256;0.0613953;-0.358049;-0.825775;-1.75624;-13.9542;5.65021;-13.9542;750;755;730;1029;1024;204;1024;1024;1024;1;3;0;1900;50;35;0.0166836;0;0;0;-0.583114;0.0671186;0.116651; 
1223;1242;2019/06/20 10:35:02;567.727;174.864;11.2478;569.037;173.215;0;163;1;-0.641558;-0.786701;-1.73635;-0.657933;-0.789325;-1.70729;0.261168;0.291761;-0.845631;2.10961;-3.55105;0.494301;499;183;10.8272;499.786;182.003;0;89;1;-0.34973;-0.848629;-2.21675;-0.372188;-0.844524;-2.24418;0.51124;-0.0295319;-0.670874;0.574985;-0.406023;-0.217651;1;-0.308203;0.0493045;0.0759544;-0.34973;-0.838629;-1.78325;-13.552;5.62602;-13.552;750;739;743;1059;1024;204;1024;1024;1024;1;3;0;1900;50;35;0.0166836;0;0;0;-0.585586;0.0936785;0.144313; 
1224;1243;2019/06/20 10:35:02;564.783;173.522;11.0735;566.053;172.538;0;164;1;-0.638387;-0.794025;-1.76699;-0.652069;-0.790735;-1.7252;0.297502;0.232942;-0.832939;2.20161;-3.46849;0.839418;495;182;10.8453;496.789;182.05;0;90;1;-0.330744;-0.843367;-2.2172;-0.359755;-0.844177;-2.23608;0.539867;-0.0288506;-0.652642;0.640586;-0.475829;-0.16742;1;-0.321326;0.0426322;0.0575964;-0.330744;-0.833367;-1.7828;-13.9207;4.83629;-13.9207;750;760;736;1044;1024;204;1024;1024;1024;1;3;0;1900;50;35;0.0166836;0;0;0;-0.610519;0.0810012;0.109433; 
1225;1244;2019/06/20 10:35:02;561.814;172.93;10.9886;562.989;171.458;0;165;1;-0.629837;-0.797911;-1.78211;-0.6454;-0.792887;-1.74228;0.325974;0.16812;-0.839583;2.2303;-3.43161;1.00041;492.4;181.2;10.6333;492.711;181.079;0;91;1;-0.325136;-0.85704;-2.1796;-0.349369;-0.848036;-2.21914;0.568987;-0.0370279;-0.658883;0.79789;-0.510446;-0.130417;1;-0.320263;0.0541524;0.0781236;-0.325136;-0.84704;-1.8204;-13.8008;4.67266;-13.8008;750;761;735;1065;1024;204;1024;1024;1024;1;3;0;1900;50;35;0.0166855;0;0;0;-0.6085;0.10289;0.148435; 
1226;1245;2019/06/20 10:35:02;559.256;172.186;10.85;559.896;171.094;0;166;1;-0.626115;-0.805237;-1.80674;-0.639614;-0.796592;-1.76162;0.342311;0.0952204;-0.875679;2.15591;-3.47886;0.867428;490;180.5;10.7321;490.059;180.318;0;92;1;-0.310983;-0.846424;-2.19458;-0.337853;-0.847552;-2.21177;0.598359;-0.0357068;-0.639103;1.01833;-0.433266;0.0968635;1;-0.328631;0.0398321;0.0438017;-0.310983;-0.836424;-1.80542;-14.28;3.61541;-14.28;750;806;718;1016;1024;204;1024;1024;1024;1;3;0;1900;50;35;0.0166836;0;0;0;-0.624399;0.0756809;0.0832232; 
1227;1246;2019/06/20 10:35:02;555.911;171.689;10.7811;557.236;170.568;0;167;1;-0.614637;-0.808459;-1.81955;-0.632121;-0.800152;-1.779;0.361596;0.0267896;-0.911467;2.03443;-3.56196;0.539362;486;180.571;10.6807;487.554;179.639;0;93;1;-0.293793;-0.850781;-2.18607;-0.324635;-0.848521;-2.20406;0.628184;-0.0324534;-0.611566;1.214;-0.28746;0.40739;1;-0.338328;0.0406283;0.0349337;-0.293793;-0.840781;-1.81393;-14.578;3.03756;-14.578;750;836;705;983;1024;204;1024;1024;1024;1;3;0;1900;50;35;0.0166836;0;0;0;-0.642823;0.0771937;0.066374; 
1228;1247;2019/06/20 10:35:02;552.478;171.652;10.6872;553.78;170.258;0;168;1;-0.604011;-0.815421;-1.83564;-0.623688;-0.804733;-1.79599;0.38184;-0.0410028;-0.951059;1.87855;-3.67427;0.0478425;483;181;10.6522;483.49;179.745;0;94;1;-0.280526;-0.854735;-2.18232;-0.311402;-0.850385;-2.19754;0.658261;-0.0499217;-0.600272;1.36704;-0.282043;0.549737;1;-0.343163;0.0400022;0.0216916;-0.280526;-0.844735;-1.81768;-14.7878;2.57553;-14.7878;750;859;693;949;1024;204;1024;1024;1024;1;3;0;1900;50;35;0.0166836;0;0;0;-0.652009;0.0760042;0.041214; 
1229;1248;2019/06/20 10:35:02;549.545;171.545;10.5743;550.241;170.4;0;169;1;-0.596617;-0.823702;-1.85551;-0.615567;-0.810424;-1.81385;0.398394;-0.108911;-0.996404;1.67547;-3.8056;-0.57376;479.333;181.333;10.6446;480.404;180.248;0;95;1;-0.263538;-0.856654;-2.18187;-0.297043;-0.852266;-2.19284;0.695225;-0.0608878;-0.565306;1.5554;-0.29452;0.751679;1;-0.352029;0.0362301;0.00428057;-0.263538;-0.846654;-1.81813;-15.1993;1.93636;-15.1993;750;890;676;899;1024;204;1024;1024;1024;1;3;0;1900;50;35;0.0166836;0;0;0;-0.668856;0.0688373;0.00813308; 
1230;1249;2019/06/20 10:35:02;546.093;171.488;10.5749;547.216;170.463;0;170;1;-0.580292;-0.82343;-1.85555;-0.604984;-0.814326;-1.82636;0.427181;-0.159614;-1.00204;1.52346;-3.85196;-1.01996;477;183;10.5965;476.635;180.669;0;96;1;-0.253746;-0.867111;-2.17792;-0.284054;-0.856719;-2.18836;0.719625;-0.0866499;-0.529876;1.65153;-0.40767;0.941568;1;-0.351238;0.0427851;-0.00427258;-0.253746;-0.857111;-1.82208;-15.0658;1.99133;-15.0658;750;885;673;873;1024;204;1024;1024;1024;1;3;0;1900;50;35;0.0166836;0;0;0;-0.667352;0.0812917;-0.0081179; 
1231;1250;2019/06/20 10:35:02;542.093;171.488;10.5014;543.656;170.563;0;171;1;-0.565349;-0.829196;-1.86854;-0.593094;-0.818787;-1.83901;0.465321;-0.199261;-0.987778;1.4709;-3.77921;-1.20416;472.667;184.667;10.4997;474.244;182.468;0;97;1;-0.235491;-0.881731;-2.16546;-0.269485;-0.864223;-2.18149;0.750986;-0.116672;-0.468366;1.71818;-0.562856;1.32624;1;-0.357602;0.0529443;-0.00447011;-0.235491;-0.871731;-1.83454;-15.0733;2.14995;-15.0733;750;872;670;850;1024;204;1024;1024;1024;1;3;0;1900;50;35;0.0166836;0;0;0;-0.679445;0.100594;-0.00849321; 
1232;1251;2019/06/20 10:35:02;539.171;171.805;10.4861;539.561;170.718;0;172;1;-0.552267;-0.831666;-1.87044;-0.580846;-0.82265;-1.84844;0.514029;-0.223683;-0.939616;1.56871;-3.54185;-0.977984;470;186;10.5132;469.857;184.322;0;98;1;-0.222532;-0.885894;-2.17128;-0.255399;-0.870724;-2.17843;0.780074;-0.162596;-0.414262;1.75703;-0.844755;1.69419;1;-0.358314;0.0532431;-0.0197219;-0.222532;-0.875894;-1.82872;-14.8679;2.34102;-14.8679;750;843;676;836;1024;204;1024;1024;1024;1;3;0;1900;50;35;0.0166836;0;0;0;-0.680797;0.101162;-0.0374715; 
1233;1252;2019/06/20 10:35:03;535.571;171.762;10.4181;536.52;171.18;0;173;1;-0.538632;-0.836922;-1.88276;-0.568182;-0.826932;-1.85874;0.563916;-0.24122;-0.882409;1.74969;-3.19606;-0.470675;466.4;187.2;10.5054;467.102;185.879;0;99;1;-0.205597;-0.89132;-2.17305;-0.240459;-0.876903;-2.17681;0.80441;-0.21097;-0.357439;1.75841;-1.2202;2.032;1;-0.362584;0.054388;-0.0317833;-0.205597;-0.88132;-1.82695;-14.6757;2.58068;-14.6757;750;805;684;830;1024;204;1024;1024;1024;1;3;0;1900;50;35;0.0166836;0;0;0;-0.688911;0.103337;-0.0603884; 
1234;1253;2019/06/20 10:35:03;531.789;171.684;10.2863;532.827;171.279;0;174;1;-0.527184;-0.847325;-1.90708;-0.555882;-0.83305;-1.87324;0.609297;-0.257884;-0.838138;1.95872;-2.78428;0.168822;465;188;10.3795;463.439;187.316;0;100;1;-0.201361;-0.905351;-2.15299;-0.228729;-0.885437;-2.16967;0.813003;-0.266649;-0.325842;1.67339;-1.59815;2.3158;1;-0.354522;0.0623013;-0.026229;-0.201361;-0.895351;-1.84701;-14.0987;3.08352;-14.0987;750;751;704;841;1024;204;1024;1024;1024;1;3;0;1900;50;35;0.0166836;0;0;0;-0.673591;0.118373;-0.0498351; 
1235;1254;2019/06/20 10:35:03;528.222;172.5;10.1962;528.974;171.322;0;175;1;-0.514386;-0.858156;-1.92175;-0.543434;-0.840582;-1.8878;0.653819;-0.27524;-0.798384;2.19589;-2.33521;0.892569;461;189;10.4536;462.048;188.334;0;101;1;-0.180839;-0.902924;-2.1687;-0.214362;-0.890683;-2.16938;0.81819;-0.313503;-0.28926;1.49539;-1.96832;2.49255;1;-0.362595;0.052342;-0.0564979;-0.180839;-0.892924;-1.8313;-13.8742;2.95625;-13.8742;750;721;718;831;1024;204;1024;1024;1024;1;3;0;1900;50;35;0.0166836;0;0;0;-0.68893;0.0994498;-0.107346; 
1236;1255;2019/06/20 10:35:03;524.667;172.833;10.1215;525.324;172.246;0;176;1;-0.500657;-0.865869;-1.93505;-0.530601;-0.848168;-1.90197;0.689525;-0.300376;-0.781185;2.36585;-1.9636;1.41806;459;190;10.4186;458.024;189.537;0;102;1;-0.171867;-0.909962;-2.16518;-0.201614;-0.896467;-2.16812;0.820341;-0.346931;-0.254455;1.29969;-2.22106;2.59609;1;-0.358733;0.0517941;-0.0671495;-0.171867;-0.899962;-1.83482;-13.4171;3.01544;-13.4171;750;689;736;827;1024;204;1024;1024;1024;1;3;0;1900;50;35;0.0166836;0;0;0;-0.681594;0.0984087;-0.127584; 
1237;1256;2019/06/20 10:35:03;520.457;173.429;10.0517;521.694;172.681;0;177;1;-0.483234;-0.874351;-1.94686;-0.516391;-0.856023;-1.91544;0.720211;-0.329015;-0.7741;2.43802;-1.69664;1.70466;457;190;10.3131;456.037;190.691;0;103;1;-0.16395;-0.919278;-2.14639;-0.190314;-0.90331;-2.1616;0.80856;-0.364346;-0.232156;1.00987;-2.32231;2.50152;1;-0.352441;0.0532554;-0.0618311;-0.16395;-0.909278;-1.85361;-12.8598;3.00945;-12.8598;750;667;756;836;1024;204;1024;1024;1024;1;3;0;1900;50;35;0.0166855;0;0;0;-0.669638;0.101185;-0.117479; 
1238;1257;2019/06/20 10:35:03;516.788;173.939;9.91927;517.422;173.371;0;178;1;-0.471227;-0.888174;-1.97144;-0.502841;-0.865668;-1.93224;0.743828;-0.369305;-0.799315;2.38108;-1.59988;1.58343;456;190;10.3863;454.116;190.772;0;104;1;-0.157989;-0.912795;-2.15947;-0.180617;-0.906156;-2.16096;0.783962;-0.36019;-0.209096;0.621459;-2.18296;2.32075;1;-0.344852;0.0371269;-0.0917056;-0.157989;-0.902795;-1.84053;-12.1504;2.14548;-12.1504;750;692;779;799;1024;204;1024;1024;1024;1;3;0;1900;50;35;0.0166817;0;0;0;-0.655219;0.0705411;-0.174241; 
1239;1258;2019/06/20 10:35:03;513;174.588;9.9076;513.708;173.967;0;179;1;-0.452704;-0.891954;-1.97198;-0.4878;-0.873554;-1.94416;0.767491;-0.407878;-0.820928;2.24211;-1.62588;1.19573;454;191;10.3808;453.189;190.8;0;105;1;-0.148458;-0.917297;-2.16113;-0.170969;-0.909498;-2.16101;0.748047;-0.34636;-0.188601;0.147658;-1.85078;2.0671;1;-0.339342;0.0337428;-0.105292;-0.148458;-0.907297;-1.83887;-11.3959;1.71572;-11.3959;750;724;803;779;1024;204;1024;1024;1024;1;3;0;1900;50;35;0.0166855;0;0;0;-0.64475;0.0641114;-0.200054; 
1240;1259;2019/06/20 10:35:03;508.545;175.697;9.8189;509.845;174.699;0;180;1;-0.434155;-0.904725;-1.9867;-0.471707;-0.882905;-1.95692;0.79685;-0.443943;-0.82694;2.0947;-1.71899;0.762181;452;190.5;10.4633;451.326;191.786;0;106;1;-0.137751;-0.908075;-2.17431;-0.161004;-0.909071;-2.165;0.719451;-0.302253;-0.131799;-0.285226;-1.25274;2.01563;1;-0.333956;0.0151697;-0.131235;-0.137751;-0.898075;-1.82569;-10.6122;0.503208;-10.6122;750;806;826;734;1024;204;1024;1024;1024;1;3;0;1900;50;35;0.0166836;0;0;0;-0.634516;0.0288225;-0.249347; 
1241;1260;2019/06/20 10:35:03;504.581;176.452;9.74822;505.338;175.899;0;181;1;-0.417008;-0.914518;-1.99899;-0.455297;-0.892389;-1.96954;0.830293;-0.473382;-0.822823;1.96199;-1.82315;0.359654;451;189;10.2936;449.426;191.244;0;107;1;-0.135174;-0.916964;-2.14023;-0.153255;-0.911439;-2.15757;0.675848;-0.264289;-0.126263;-0.739915;-0.554991;1.86069;1;-0.320123;0.0145749;-0.10977;-0.135174;-0.906964;-1.85977;-9.65257;0.0361466;-9.65257;750;847;855;742;1024;204;1024;1024;1024;1;3;0;1900;50;35;0.0166836;0;0;0;-0.608233;0.0276923;-0.208564; 
1242;1261;2019/06/20 10:35:03;500.312;177.75;9.64727;501.309;176.74;0;182;1;-0.399295;-0.929707;-2.01623;-0.438496;-0.903584;-1.98355;0.866212;-0.505466;-0.819675;1.88321;-1.9134;0.0619919;449.333;189.333;10.2477;448.625;189.626;0;108;1;-0.127664;-0.922427;-2.13279;-0.145578;-0.914735;-2.15013;0.629422;-0.231572;-0.147612;-1.20684;0.127964;1.54334;1;-0.310833;0.00884253;-0.116341;-0.127664;-0.912427;-1.86721;-8.57743;-0.680569;-8.57743;750;901;887;739;1024;204;1024;1024;1024;1;3;0;1900;50;35;0.0166836;0;0;0;-0.590582;0.0168008;-0.221047; 
1243;1262;2019/06/20 10:35:03;496.286;179.071;9.60874;496.982;178.124;0;183;1;-0.379984;-0.939176;-2.02056;-0.420943;-0.914262;-1.99465;0.901131;-0.536;-0.808348;1.85287;-1.97514;-0.0996556;447;189;10.1718;447.131;189.823;0;109;1;-0.11717;-0.927944;-2.11796;-0.137055;-0.918698;-2.14048;0.590474;-0.200432;-0.172956;-1.59556;0.731773;1.16256;1;-0.303773;0.00368214;-0.11261;-0.11717;-0.917944;-1.88204;-7.75084;-1.25438;-7.75084;750;940;913;754;1024;204;1024;1024;1024;1;3;0;1900;50;35;0.0166836;0;0;0;-0.577168;0.00699606;-0.213959; 
1244;1263;2019/06/20 10:35:03;492.214;180.429;9.54495;492.882;179.539;0;184;1;-0.361239;-0.951389;-2.03018;-0.403032;-0.9254;-2.00531;0.939505;-0.560282;-0.77699;1.89362;-1.9482;0.029415;445.333;188.667;10.2607;444.949;189.353;0;110;1;-0.108049;-0.918544;-2.13338;-0.128353;-0.918652;-2.13835;0.563122;-0.170193;-0.194114;-1.83979;1.19827;0.757405;1;-0.294982;-0.0168556;-0.138692;-0.108049;-0.908544;-1.86662;-6.76009;-2.33309;-6.76009;750;993;941;754;1024;204;1024;1024;1024;1;3;0;1900;50;35;0.0166836;0;0;0;-0.560467;-0.0320256;-0.263516; 
1245;1264;2019/06/20 10:35:03;488.071;182.143;9.54353;488.748;180.996;0;185;1;-0.339631;-0.95903;-2.02557;-0.384011;-0.935489;-2.01139;0.978437;-0.583658;-0.734831;1.9791;-1.87133;0.361689;445;187;10.0365;443.362;188.898;0;111;1;-0.108805;-0.932125;-2.08716;-0.122489;-0.922694;-2.12299;0.531598;-0.154846;-0.268386;-1.96879;1.48424;0.135627;1;-0.275207;-0.013364;-0.0985452;-0.108805;-0.922125;-1.91284;-5.94612;-2.31994;-5.94612;750;977;964;831;1024;204;1024;1024;1024;1;3;0;1900;50;35;0.0166836;0;0;0;-0.522893;-0.0253916;-0.187236; 
1246;1265;2019/06/20 10:35:03;483.867;183.867;9.52188;484.522;182.824;0;186;1;-0.318368;-0.968768;-2.02523;-0.364318;-0.945473;-2.01554;1.01618;-0.600211;-0.675125;2.06389;-1.74723;0.823659;442.667;186.667;9.93347;443.169;187.073;0;112;1;-0.0982125;-0.940396;-2.06639;-0.115206;-0.928005;-2.10601;0.501964;-0.168565;-0.396748;-2.05034;1.42475;-0.977344;1;-0.266106;-0.0150766;-0.0819306;-0.0982125;-0.930396;-1.93361;-5.21915;-2.30146;-5.21915;750;941;983;921;1024;204;1024;1024;1024;1;3;0;1900;50;35;0.0166836;0;0;0;-0.505601;-0.0286456;-0.155668; 
1247;1266;2019/06/20 10:35:03;480.069;185.793;9.50551;480.253;184.664;0;187;1;-0.29898;-0.978899;-2.02318;-0.344717;-0.9555;-2.01783;1.05158;-0.612316;-0.598024;2.12259;-1.60351;1.39248;440;186;9.93215;440.942;186.594;0;113;1;-0.0848281;-0.937719;-2.0643;-0.106093;-0.930919;-2.0935;0.489636;-0.178979;-0.494069;-1.97429;1.19575;-2.05614;1;-0.259889;-0.0277818;-0.0821307;-0.0848281;-0.927719;-1.9357;-4.70162;-2.70613;-4.70162;750;919;994;995;1024;204;1024;1024;1024;1;3;0;1900;50;35;0.0166836;0;0;0;-0.493789;-0.0527855;-0.156048; 
1248;1267;2019/06/20 10:35:03;476.214;187.643;9.48833;476.397;186.718;0;188;1;-0.279249;-0.98881;-2.02151;-0.325077;-0.965493;-2.01894;1.08416;-0.61477;-0.500204;2.14444;-1.39887;2.11205;437.6;184.8;10.0778;438.315;185.819;0;114;1;-0.0717184;-0.919191;-2.08903;-0.0957804;-0.927401;-2.09216;0.492765;-0.157996;-0.528111;-1.73064;1.01145;-2.7541;1;-0.253358;-0.056302;-0.107964;-0.0717184;-0.909191;-1.91097;-4.15184;-3.89489;-4.15184;750;941;1001;1029;1024;204;1024;1024;1024;1;3;0;1900;50;35;0.0166855;0;0;0;-0.481381;-0.106974;-0.205132; 
1249;1268;2019/06/20 10:35:03;471.923;189.385;9.48285;472.5;188.699;0;189;1;-0.25683;-0.99705;-2.01766;-0.304603;-0.97496;-2.01855;1.11538;-0.611409;-0.395621;2.1428;-1.14065;2.91646;436.667;183.333;10.0339;435.888;184.507;0;115;1;-0.0673908;-0.917114;-2.07667;-0.0872635;-0.924315;-2.08751;0.494624;-0.117241;-0.528537;-1.42139;0.939294;-3.07334;1;-0.237212;-0.0678462;-0.0952179;-0.0673908;-0.907114;-1.92333;-3.64647;-4.53155;-3.64647;750;974;1006;1085;1024;204;1024;1024;1024;1;3;0;1900;50;35;0.0166817;0;0;0;-0.450703;-0.128908;-0.180914; 
1250;1269;2019/06/20 10:35:03;468.214;191.643;9.47093;468.167;190.568;0;190;1;-0.237613;-1.00826;-2.01368;-0.284506;-0.98495;-2.01709;1.14285;-0.604805;-0.28445;2.09825;-0.862304;3.71804;433;183;9.85779;434.962;182.924;0;116;1;-0.0500343;-0.932086;-2.04138;-0.0760947;-0.926646;-2.07367;0.505597;-0.102289;-0.57558;-1.0827;0.834916;-3.36832;1;-0.234471;-0.0628639;-0.0584733;-0.0500343;-0.922086;-1.95862;-3.79717;-4.39494;-3.79717;750;990;994;1180;1024;204;1024;1024;1024;1;3;0;1900;50;35;0.0166836;0;0;0;-0.445496;-0.119441;-0.111099; 
1251;1270;2019/06/20 10:35:03;464.692;193.692;9.44912;464.424;192.954;0;191;1;-0.219562;-1.01964;-2.0124;-0.265023;-0.995358;-2.01569;1.16118;-0.602111;-0.187841;1.98915;-0.591118;4.41653;431.333;181.333;9.87336;431.301;182.487;0;117;1;-0.0415321;-0.923569;-2.03986;-0.065726;-0.925723;-2.06353;0.530176;-0.0734774;-0.582967;-0.655306;0.826089;-3.27802;1;-0.22349;-0.0817889;-0.0555422;-0.0415321;-0.913569;-1.96014;-3.6921;-5.3707;-3.6921;750;1030;984;1217;1024;204;1024;1024;1024;1;3;0;1900;50;35;0.0166855;0;0;0;-0.424632;-0.155399;-0.10553; 
1252;1271;2019/06/20 10:35:03;460.692;195.692;9.43362;460.891;195.123;0;192;1;-0.198764;-1.03017;-2.00991;-0.245145;-1.0058;-2.01395;1.17291;-0.60233;-0.106369;1.81975;-0.363139;4.92259;429;181;9.95165;429.559;180.73;0;118;1;-0.0295055;-0.914905;-2.05436;-0.0548598;-0.922477;-2.06078;0.559241;-0.0220012;-0.530533;-0.164315;1.0813;-2.5014;1;-0.21564;-0.100896;-0.068316;-0.0295055;-0.904905;-1.94564;-3.54983;-6.57948;-3.54983;750;1072;973;1203;1024;204;1024;1024;1024;1;3;0;1900;50;35;0.0166836;0;0;0;-0.409715;-0.191703;-0.1298; 
1253;1272;2019/06/20 10:35:03;457.333;197.704;9.37815;456.892;197.232;0;193;1;-0.182067;-1.04522;-2.01594;-0.226222;-1.01763;-2.01455;1.17723;-0.609642;-0.0507154;1.59395;-0.207196;5.14053;427;181;9.75338;427.127;180.311;0;119;1;-0.019873;-0.933504;-2.01481;-0.0443638;-0.925785;-2.04699;0.582205;0.0073114;-0.504175;0.271302;1.39317;-1.54122;1;-0.206349;-0.0941219;-0.0293599;-0.019873;-0.923504;-1.98519;-3.85052;-6.706;-3.85052;750;1096;952;1230;1024;204;1024;1024;1024;1;3;0;1900;50;35;0.0166836;0;0;0;-0.392063;-0.178832;-0.0557839; 
1254;1273;2019/06/20 10:35:03;453.929;199.571;9.36633;453.561;199.33;0;194;1;-0.164158;-1.05486;-2.01304;-0.207603;-1.0288;-2.0141;1.17576;-0.61874;-0.011096;1.32241;-0.140183;5.03877;425;181;9.85012;425.097;180.275;0;120;1;-0.00954603;-0.924335;-2.03431;-0.0339185;-0.92535;-2.04318;0.59652;0.0125792;-0.498205;0.57738;1.51751;-0.805234;1;-0.198057;-0.114461;-0.0484037;-0.00954603;-0.914335;-1.96569;-3.60815;-7.68079;-3.60815;750;1126;944;1198;1024;204;1024;1024;1024;1;3;0;1900;50;35;0.0166836;0;0;0;-0.376308;-0.217476;-0.0919671; 
1255;1274;2019/06/20 10:35:03;450.357;201.357;9.34119;450.181;201.273;0;195;1;-0.145522;-1.06568;-2.01323;-0.188978;-1.03986;-2.01384;1.16748;-0.630581;0.0121876;1.0016;-0.160716;4.65281;423;181;9.68983;423.038;180.26;0;121;1;0.000595466;-0.939626;-2.00179;-0.0235643;-0.929633;-2.03076;0.612445;-0.0137044;-0.525669;0.817227;1.32423;-0.471681;1;-0.189574;-0.110235;-0.0156257;0.000595466;-0.929626;-1.99821;-3.92842;-7.44891;-3.92842;750;1128;923;1232;1024;204;1024;1024;1024;1;3;0;1900;50;35;0.0166836;0;0;0;-0.36019;-0.209447;-0.0296889; 
1256;1275;2019/06/20 10:35:03;447.481;203.185;9.32086;446.657;203.117;0;196;1;-0.130444;-1.07619;-2.01226;-0.171418;-1.05076;-2.01336;1.15237;-0.64132;0.0222098;0.63898;-0.242338;4.01706;420;182;9.639;421.025;180.312;0;122;1;0.0161292;-0.948912;-1.99409;-0.0116562;-0.935417;-2.01976;0.624955;-0.043269;-0.530817;0.967273;1.03037;-0.104141;1;-0.187547;-0.111849;-0.00745201;0.0161292;-0.938912;-2.00591;-4.18261;-7.36203;-4.18261;750;1119;904;1224;1024;204;1024;1024;1024;1;3;0;1900;50;35;0.0166836;0;0;0;-0.35634;-0.212513;-0.0141588; 
1257;1276;2019/06/20 10:35:03;444;205.6;9.27044;443.843;204.981;0;197;1;-0.112414;-1.09292;-2.01609;-0.153717;-1.06341;-2.01418;1.13619;-0.656722;0.0193403;0.283558;-0.363625;3.23812;418;183;9.56821;418.006;181.392;0;123;1;0.0266788;-0.960296;-1.9821;-0.000155713;-0.942881;-2.00846;0.636988;-0.0945223;-0.538517;1.00718;0.53413;0.115134;1;-0.180396;-0.113113;0.00371623;0.0266788;-0.950296;-2.0179;-4.27645;-7.31296;-4.27645;750;1107;892;1215;1024;204;1024;1024;1024;1;3;0;1900;50;35;0.0166836;0;0;0;-0.342752;-0.214915;0.00706084; 
1258;1277;2019/06/20 10:35:03;441.538;207;9.28658;440.439;207.418;0;198;1;-0.0989916;-1.09732;-2.00846;-0.137299;-1.07358;-2.01246;1.11266;-0.66488;0.0175567;-0.0705981;-0.468122;2.43807;416;184;9.55092;415.991;182.531;0;124;1;0.0371763;-0.966406;-1.98131;0.0110439;-0.949938;-2.00032;0.645541;-0.166445;-0.5647;0.949159;-0.256711;-0.0674463;1;-0.174476;-0.117175;0.00622344;0.0371763;-0.956406;-2.01869;-4.47933;-6.82827;-4.47933;750;1070;881;1216;1024;204;1024;1024;1024;1;3;0;1900;50;35;0.0166836;0;0;0;-0.331504;-0.222633;0.0118245; 
1259;1278;2019/06/20 10:35:03;438;208.769;9.2485;438.049;208.837;0;199;1;-0.0803077;-1.10982;-2.0115;-0.120202;-1.08445;-2.01218;1.09125;-0.665967;0.0200239;-0.385959;-0.505947;1.74551;414;185;9.52886;413.979;183.7;0;125;1;0.0477358;-0.973025;-1.97951;0.0220515;-0.956864;-1.99407;0.652716;-0.224056;-0.550253;0.851255;-1.07856;-0.224594;1;-0.167938;-0.121428;0.00831819;0.0477358;-0.963025;-2.02049;-4.55902;-6.70371;-4.55902;750;1037;873;1202;1024;204;1024;1024;1024;1;3;0;1900;50;35;0.0166836;0;0;0;-0.319081;-0.230713;0.0158046; 
1260;1279;2019/06/20 10:35:03;435.667;209.583;9.22106;434.6;210.601;0;200;1;-0.0679199;-1.11681;-2.01508;-0.104517;-1.09416;-2.01305;1.06667;-0.66077;0.0162129;-0.667483;-0.471518;1.15643;412;187;9.46655;411.971;184.882;0;126;1;0.0585923;-0.988249;-1.97198;0.0330137;-0.96628;-1.98745;0.659087;-0.297985;-0.552869;0.760769;-1.88813;-0.35319;1;-0.16311;-0.115911;0.0149717;0.0585923;-0.978249;-2.02802;-4.84702;-5.71592;-4.84702;750;976;860;1198;1024;204;1024;1024;1024;1;3;0;1900;50;35;0.0166836;0;0;0;-0.309908;-0.22023;0.0284463; 
1261;1280;2019/06/20 10:35:03;432.5;210.833;9.2127;432.358;211.388;0;201;1;-0.0508296;-1.12349;-2.0132;-0.0884109;-1.10296;-2.01309;1.04187;-0.648595;0.012704;-0.902422;-0.354897;0.695924;409;189;9.49654;409.977;187.081;0;127;1;0.0741709;-0.993921;-1.98414;0.0453609;-0.974572;-1.98646;0.670873;-0.358366;-0.508779;0.689936;-2.51013;-0.144424;1;-0.162582;-0.119037;0.00276637;0.0741709;-0.983921;-2.01586;-5.21676;-5.23585;-5.21676;750;928;848;1158;1024;204;1024;1024;1024;1;3;0;1900;50;35;0.0166836;0;0;0;-0.308905;-0.226171;0.0052561; 
1262;1281;2019/06/20 10:35:03;429.913;212.348;9.12602;429.279;212.595;0;202;1;-0.0371671;-1.14109;-2.02778;-0.0730378;-1.1144;-2.0175;1.01823;-0.643439;-0.00890008;-1.07744;-0.221407;0.293244;407.333;190.667;9.47978;406.947;189.307;0;128;1;0.083075;-1.00302;-1.98538;0.0566751;-0.983106;-1.98613;0.675567;-0.405581;-0.439642;0.616201;-2.95383;0.27767;1;-0.156113;-0.121378;-0.00288105;0.083075;-0.993019;-2.01462;-5.22874;-5.18878;-5.22874;750;910;844;1101;1024;204;1024;1024;1024;1;3;0;1900;50;35;0.0166855;0;0;0;-0.296614;-0.230619;-0.005474; 
1263;1282;2019/06/20 10:35:03;427.76;213.12;9.05888;426.8;214.043;0;203;1;-0.025583;-1.1531;-2.04048;-0.0588014;-1.12601;-2.02439;0.990217;-0.636209;-0.0461521;-1.22978;-0.0508768;-0.085758;407;191;9.3242;405.273;191.197;0;129;1;0.086245;-1.02125;-1.95274;0.0655461;-0.994549;-1.97612;0.667881;-0.449811;-0.393044;0.493167;-3.19201;0.747905;1;-0.145046;-0.114762;0.0228617;0.086245;-1.01125;-2.04726;-5.29319;-4.54839;-5.29319;750;876;841;1096;1024;204;1024;1024;1024;1;3;0;1900;50;35;0.0166817;0;0;0;-0.275588;-0.218047;0.0434373; 
1264;1283;2019/06/20 10:35:03;424.952;214.19;9.07823;424.759;214.726;0;204;1;-0.010096;-1.15557;-2.03291;-0.0441897;-1.13488;-2.02695;0.966191;-0.62666;-0.0855692;-1.32316;0.1222;-0.46354;405;193;9.42427;404.996;191.709;0;130;1;0.0959189;-1.01926;-1.98028;0.0746579;-1.00196;-1.97737;0.654927;-0.477775;-0.327541;0.333408;-3.15927;1.39642;1;-0.140109;-0.125613;-0.00723124;0.0959189;-1.00926;-2.01972;-5.18689;-4.64481;-5.18689;750;876;844;1015;1024;204;1024;1024;1024;1;3;0;1900;50;35;0.0166836;0;0;0;-0.266206;-0.238665;-0.0137393; 
1265;1284;2019/06/20 10:35:03;422.083;214.75;9.00667;422.026;215.713;0;205;1;0.00571919;-1.16734;-2.04736;-0.0292171;-1.14462;-2.03307;0.943277;-0.616402;-0.134844;-1.38517;0.271377;-0.896955;403;194;9.22622;403.018;193.88;0;131;1;0.108795;-1.04567;-1.93989;0.084899;-1.01507;-1.96612;0.644087;-0.519267;-0.308215;0.165563;-3.07519;1.805;1;-0.138012;-0.108948;0.0270381;0.108795;-1.03567;-2.06011;-5.45938;-3.41365;-5.45938;750;834;839;1026;1024;204;1024;1024;1024;1;3;0;1900;50;35;0.0166855;0;0;0;-0.262223;-0.207001;0.0513724; 
1266;1285;2019/06/20 10:35:03;420.174;215.13;8.99244;419.258;216.158;0;206;1;0.0163238;-1.17096;-2.04945;-0.0155548;-1.15252;-2.03799;0.921448;-0.603036;-0.180561;-1.4114;0.393527;-1.32446;403;194;8.91937;401.102;194.999;0;132;1;0.112538;-1.08164;-1.86902;0.0931906;-1.03505;-1.93699;0.626911;-0.586338;-0.386544;-0.0292336;-2.99733;1.74762;1;-0.128092;-0.0808768;0.092998;0.112538;-1.07164;-2.13098;-4.04947;-0.957703;-4.04947;750;736;873;1123;1024;204;1024;1024;1024;1;3;0;1900;50;35;0.0166836;0;0;0;-0.243376;-0.153666;0.176696; 
1267;1286;2019/06/20 10:35:03;417;216.364;8.97949;417.426;216.432;0;207;1;0.033985;-1.17838;-2.04865;-0.000692852;-1.16028;-2.04118;0.903379;-0.590858;-0.220593;-1.40021;0.466825;-1.7269;402.667;194.667;9.04116;401.231;195.038;0;133;1;0.112861;-1.07015;-1.89974;0.0990919;-1.04558;-1.92582;0.590849;-0.635526;-0.474237;-0.337308;-2.90589;1.1866;1;-0.113554;-0.100127;0.059078;0.112861;-1.06015;-2.10026;-4.03386;-1.58204;-4.03386;750;757;880;1110;1024;204;1024;1024;1024;1;3;0;1900;50;35;0.0166836;0;0;0;-0.215753;-0.190241;0.112248; 
1268;1287;2019/06/20 10:35:03;414.636;216.727;8.89814;414.322;217.568;0;208;1;0.0475508;-1.19086;-2.06626;0.0137803;-1.16945;-2.04871;0.888948;-0.57451;-0.257069;-1.35675;0.55553;-2.02781;401;195;8.71201;401;195.727;0;134;1;0.126672;-1.11218;-1.82143;0.107366;-1.06556;-1.8945;0.557067;-0.710786;-0.650705;-0.675906;-2.96312;-0.131439;1;-0.112891;-0.0672722;0.12986;0.126672;-1.10218;-2.17857;-2.24089;0.803792;-2.24089;750;699;927;1228;1024;204;1024;1024;1024;1;3;0;1900;50;35;0.0166836;0;0;0;-0.214494;-0.127817;0.246733; 
1269;1288;2019/06/20 10:35:03;412.696;217.043;8.86159;412.036;217.823;0;209;1;0.0586751;-1.19726;-2.07381;0.0272487;-1.17779;-2.05624;0.877213;-0.551634;-0.281492;-1.2656;0.671271;-2.15707;400;196;8.8531;399.53;195.981;0;135;1;0.130289;-1.09917;-1.85924;0.114243;-1.07564;-1.88392;0.528826;-0.750507;-0.758821;-0.96119;-2.97942;-1.54046;1;-0.103041;-0.0886246;0.0845206;0.130289;-1.08917;-2.14076;-2.85605;0.337352;-2.85605;750;714;921;1240;1024;204;1024;1024;1024;1;3;0;1900;50;35;0.0166836;0;0;0;-0.195777;-0.168387;0.160589; 
1270;1289;2019/06/20 10:35:03;409.917;217.583;8.81927;410.148;218.039;0;210;1;0.0746803;-1.20556;-2.08209;0.0414782;-1.18612;-2.06399;0.868646;-0.535759;-0.316923;-1.14913;0.765989;-2.21871;400;196;8.78961;398.615;196.948;0;136;1;0.13123;-1.10711;-1.84378;0.119339;-1.08508;-1.87188;0.495836;-0.782436;-0.876811;-1.21242;-3.00504;-3.11909;1;-0.0897523;-0.0890142;0.0922308;0.13123;-1.09711;-2.15622;-1.6156;0.700145;-1.6156;750;720;955;1311;1024;204;1024;1024;1024;1;3;0;1900;50;35;0.0166836;0;0;0;-0.170529;-0.169127;0.175239; 
1271;1290;2019/06/20 10:35:03;407;218.364;8.84861;407.419;218.479;0;211;1;0.0908805;-1.20525;-2.07278;0.0562989;-1.19186;-2.06663;0.862905;-0.510241;-0.324239;-1.01065;0.883807;-2.08804;398.667;195.333;8.88266;398.74;196.866;0;137;1;0.137346;-1.09238;-1.86431;0.124741;-1.08727;-1.86961;0.456709;-0.757954;-0.911755;-1.4762;-2.7568;-4.28317;1;-0.0810471;-0.109482;0.0690594;0.137346;-1.08238;-2.13569;-0.995276;-0.461636;-0.995276;750;773;978;1335;1024;204;1024;1024;1024;1;3;0;1900;50;35;0.0166836;0;0;0;-0.153989;-0.208016;0.131213; 
1272;1291;2019/06/20 10:35:03;404.857;218.857;8.76533;404.521;219.184;0;212;1;0.103943;-1.21905;-2.09093;0.0705921;-1.20002;-2.07392;0.861981;-0.495943;-0.33813;-0.844016;0.958221;-1.88246;397.333;195.333;8.78757;397.522;196.102;0;138;1;0.146403;-1.1042;-1.8412;0.13124;-1.09235;-1.86109;0.426068;-0.683758;-0.850364;-1.68828;-2.04337;-4.4233;1;-0.0758113;-0.105817;0.0848787;0.146403;-1.0942;-2.1588;-0.210224;-0.981201;-0.210224;750;815;1001;1339;1024;204;1024;1024;1024;1;3;0;1900;50;35;0.0166836;0;0;0;-0.144041;-0.201053;0.16127; 
1273;1292;2019/06/20 10:35:03;402.455;219.182;8.74419;402.413;219.611;0;213;1;0.117905;-1.22354;-2.09497;0.084786;-1.20708;-2.08023;0.858757;-0.484568;-0.358916;-0.684715;0.999664;-1.6822;396.4;194.8;9.33139;396.284;195.982;0;139;1;0.142862;-1.03746;-1.96545;0.134727;-1.07588;-1.8924;0.398035;-0.531359;-0.643758;-1.78344;-0.809772;-3.33138;1;-0.0580763;-0.179613;-0.0456862;0.142862;-1.02746;-2.03455;2.11844;-6.17843;2.11844;750;963;1058;1031;1024;204;1024;1024;1024;1;3;0;1900;50;35;0.0166836;0;0;0;-0.110345;-0.341265;-0.0868039; 
1274;1293;2019/06/20 10:35:03;400;219.368;8.6915;400.036;219.873;0;214;1;0.132712;-1.23186;-2.10708;0.0991637;-1.21451;-2.08829;0.856442;-0.470792;-0.373511;-0.54072;1.01425;-1.47462;396;194;9.2;395.329;195.364;0;140;1;0.147072;-1.04865;-1.93402;0.13843;-1.06771;-1.90488;0.362953;-0.327428;-0.344767;-1.84574;1.04602;-0.776313;1;-0.0479085;-0.175861;-0.0223067;0.147072;-1.03865;-2.06598;3.10716;-8.073;3.10716;750;1108;1085;937;1024;204;1024;1024;1024;1;3;0;1900;50;35;0.0166836;0;0;0;-0.0910261;-0.334137;-0.0423827; 
1275;1294;2019/06/20 10:35:03;397.1;220.7;8.63982;397.613;219.999;0;215;1;0.150255;-1.24566;-2.11547;0.114491;-1.22386;-2.09644;0.862481;-0.466532;-0.384764;-0.383303;0.948613;-1.29744;395;194;9.17948;394.98;194.419;0;141;1;0.152837;-1.05099;-1.9294;0.142752;-1.0627;-1.91224;0.331693;-0.144732;-0.0937107;-1.89517;3.04826;2.19196;1;-0.0383459;-0.182863;-0.0258453;0.152837;-1.04099;-2.0706;4.43146;-9.68998;4.43146;750;1279;1117;818;1024;204;1024;1024;1024;1;3;0;1900;50;35;0.0166836;0;0;0;-0.0728571;-0.34744;-0.0491061; 
1276;1295;2019/06/20 10:35:03;395.1;220.7;8.58989;394.723;221.295;0;216;1;0.162746;-1.2529;-2.12777;0.128968;-1.23257;-2.10584;0.867085;-0.465507;-0.39808;-0.236221;0.849885;-1.10276;394.667;193.333;9;394.016;194.267;0;142;1;0.157733;-1.06886;-1.88608;0.147246;-1.06455;-1.90439;0.31053;-0.00477763;0.0736938;-1.87756;4.93638;5.11327;1;-0.0287654;-0.17371;0.00807428;0.157733;-1.05886;-2.11392;5.37153;-11.0541;5.37153;750;1419;1141;768;1024;204;1024;1024;1024;1;3;0;1900;50;35;0.0166855;0;0;0;-0.0546543;-0.330049;0.0153411; 
1277;1296;2019/06/20 10:35:03;392.947;221.474;8.59115;392.733;221.27;0;217;1;0.175225;-1.25648;-2.125;0.142845;-1.23974;-2.11159;0.866077;-0.470631;-0.418506;-0.129054;0.668204;-1.03833;394;192;8.95511;393.721;193.447;0;143;1;0.162238;-1.068;-1.87142;0.151744;-1.06558;-1.8945;0.294218;0.0838001;0.143678;-1.77583;6.32536;7.28533;1;-0.0193935;-0.181741;0.016993;0.162238;-1.058;-2.12858;6.22078;-11.9432;6.22078;750;1525;1160;733;1024;204;1024;1024;1024;1;3;0;1900;50;35;0.0166836;0;0;0;-0.0368476;-0.345309;0.0322868; 
1278;1297;2019/06/20 10:35:03;389.895;222.421;8.54914;390.596;222.023;0;218;1;0.193904;-1.26728;-2.13241;0.158163;-1.248;-2.11784;0.869574;-0.47413;-0.426596;-0.0470918;0.488083;-0.976508;393;191;8.82741;393.085;191.968;0;144;1;0.170238;-1.07872;-1.83753;0.157292;-1.06952;-1.87741;0.280635;0.141491;0.151428;-1.64664;7.09287;8.37431;1;-0.0120754;-0.179282;0.0446339;0.170238;-1.06872;-2.16247;7.13191;-12.0565;7.13191;750;1562;1179;754;1024;204;1024;1024;1024;1;3;0;1900;50;35;0.0166817;0;0;0;-0.0229433;-0.340636;0.0848043; 
1279;1298;2019/06/20 10:35:03;387.238;222.857;8.54328;387.559;222.961;0;219;1;0.209554;-1.27028;-2.13248;0.17358;-1.25469;-2.12223;0.876554;-0.474726;-0.423766;0.0428601;0.332177;-0.845038;393;191;8.80074;392.129;190.825;0;145;1;0.170754;-1.08199;-1.83098;0.161331;-1.07326;-1.86348;0.274688;0.0953622;-0.0246938;-1.48086;6.76002;7.49829;1;0.00282604;-0.182696;0.0467951;0.170754;-1.07199;-2.16902;8.32969;-11.4469;8.32969;750;1524;1203;823;1024;204;1024;1024;1024;1;3;0;1900;50;35;0.0166855;0;0;0;0.00536947;-0.347122;0.0889107; 
1280;1299;2019/06/20 10:35:03;385.4;223.3;8.60149;384.895;223.4;0;220;1;0.218799;-1.26383;-2.11664;0.187146;-1.25743;-2.12055;0.877498;-0.456338;-0.383183;0.109854;0.257059;-0.545671;391.333;189.333;8.74132;392.186;190.715;0;146;1;0.181429;-1.08139;-1.81102;0.16736;-1.0757;-1.84774;0.280414;0.0253013;-0.243147;-1.21833;5.46547;4.90503;1;0.00571692;-0.186045;0.0684273;0.181429;-1.07139;-2.18898;8.01451;-10.0963;8.01451;750;1436;1192;987;1024;204;1024;1024;1024;1;3;0;1900;50;35;0.0166836;0;0;0;0.0108621;-0.353485;0.130012; 
1281;1300;2019/06/20 10:35:03;383.294;223.882;8.52674;383.034;223.86;0;221;1;0.233041;-1.27776;-2.13333;0.200915;-1.26353;-2.12439;0.871836;-0.432338;-0.341561;0.103297;0.290871;-0.154768;391;189;8.72075;390.557;188.95;0;147;1;0.183764;-1.08234;-1.80481;0.172281;-1.07769;-1.83486;0.286243;-0.0447386;-0.455071;-0.912612;3.67884;1.49907;1;0.0171503;-0.19119;0.070801;0.183764;-1.07234;-2.19519;8.56739;-9.70262;8.56739;750;1367;1197;1110;1024;204;1024;1024;1024;1;3;0;1900;50;35;0.0166836;0;0;0;0.0325856;-0.363262;0.134522; 
1282;1301;2019/06/20 10:35:03;380.737;224.526;8.51083;380.959;224.437;0;222;1;0.248471;-1.28331;-2.13525;0.215181;-1.26946;-2.12765;0.867608;-0.406834;-0.292061;0.064069;0.408976;0.330788;390.667;187.333;8.67994;390.258;188.529;0;148;1;0.186545;-1.07941;-1.78924;0.17656;-1.07821;-1.82118;0.288883;-0.0814386;-0.605565;-0.634068;1.90097;-1.81484;1;0.0286368;-0.200052;0.0831106;0.186545;-1.06941;-2.21076;8.93718;-9.1416;8.93718;750;1289;1198;1246;1024;204;1024;1024;1024;1;3;0;1900;50;35;0.0166836;0;0;0;0.0544099;-0.3801;0.15791; 
1283;1302;2019/06/20 10:35:03;378.706;224.353;8.5;378.41;225.089;0;223;1;0.26071;-1.28409;-2.13853;0.22884;-1.27385;-2.13091;0.864196;-0.380408;-0.252443;0.030925;0.605914;0.862053;390;186;8.72075;389.954;186.773;0;149;1;0.189486;-1.06798;-1.79541;0.180438;-1.07514;-1.81345;0.28799;-0.087052;-0.687221;-0.405327;0.457868;-4.40913;1;0.0393538;-0.215876;0.0736783;0.189486;-1.05798;-2.20459;9.33252;-9.30971;9.33252;750;1270;1202;1325;1024;204;1024;1024;1024;1;3;0;1900;50;35;0.0166836;0;0;0;0.0747722;-0.410165;0.139989; 
1284;1303;2019/06/20 10:35:03;376.667;223.867;8.49664;376.384;224.909;0;224;1;0.272789;-1.28221;-2.14094;0.242025;-1.27636;-2.13392;0.85362;-0.34156;-0.215728;-0.0451959;0.893284;1.35983;389;185;9.12438;389.306;185.353;0;150;1;0.186573;-1.01616;-1.88994;0.182279;-1.05744;-1.8364;0.272636;-0.0039646;-0.576217;-0.27516;-0.3065;-5.55305;1;0.055452;-0.270203;-0.023859;0.186573;-1.00616;-2.11006;9.59131;-11.011;9.59131;750;1272;1204;1226;1024;204;1024;1024;1024;1;3;0;1900;50;35;0.0166836;0;0;0;0.105359;-0.513387;-0.0453321; 
1285;1304;2019/06/20 10:35:03;374.471;223.412;8.49327;374.364;224.383;0;225;1;0.2858;-1.28049;-2.14325;0.255157;-1.2776;-2.13672;0.83815;-0.296492;-0.187334;-0.180581;1.24818;1.76067;389;185;9.12438;388.29;184.245;1;0;1;0.186573;-1.01616;-1.88994;0.182279;-1.05744;-1.8364;0.272636;-0.0039646;-0.576217;-0.27516;-0.3065;-5.55305;1;0.0685846;-0.271441;-0.0266588;0.186573;-1.00616;-2.11006;10.0144;-10.515;10.0144;750;1251;1210;1239;1024;204;1024;1024;1024;1;3;0;1900;50;35;0.0166836;0;0;0;0.130311;-0.515737;-0.0506517; 
1286;1305;2019/06/20 10:35:03;373.444;222.778;8.473;372.202;223.861;0;226;1;0.292527;-1.28043;-2.15042;0.266368;-1.27845;-2.14083;0.819458;-0.261875;-0.193427;-0.340276;1.52597;1.81465;390;182;8.52755;388.29;184.245;0;1;1;0.193779;-1.07259;-1.73264;0.185729;-1.06199;-1.80527;0.247147;0.0362406;-0.545101;-0.259428;-0.386397;-5.11428;1;0.072589;-0.215856;0.126526;0.193779;-1.06259;-2.26736;10.2669;-8.43061;10.2669;750;1217;1213;1390;1024;204;1024;1024;1024;1;3;0;1900;50;35;0.0166836;0;0;0;0.137919;-0.410127;0.240399; 
1287;1306;2019/06/20 10:35:03;372;222;8.47946;371.231;223.134;0;227;1;0.300804;-1.27562;-2.15129;0.276699;-1.2776;-2.14397;0.794505;-0.213341;-0.194306;-0.513179;1.79069;1.67722;390.8;180.4;8.53726;389.395;181.238;0;2;1;0.188883;-1.06355;-1.7301;0.186675;-1.06246;-1.78272;0.214443;0.0671089;-0.549767;-0.381613;-0.0886431;-4.11877;1;0.087816;-0.224053;0.125931;0.188883;-1.05355;-2.2699;10.8628;-8.36784;10.8628;750;1212;1226;1363;1024;204;1024;1024;1024;1;3;0;1900;50;35;0.0166836;0;0;0;0.16685;-0.4257;0.239268; 
1288;1307;2019/06/20 10:35:03;371;221;8.50013;369.849;222.239;0;228;1;0.305943;-1.26761;-2.14928;0.285472;-1.2746;-2.14556;0.757576;-0.148528;-0.188171;-0.747581;2.10657;1.42146;392;180;8.36719;390.282;179.556;0;3;1;0.185566;-1.08317;-1.68266;0.186342;-1.06867;-1.7527;0.176824;0.0711701;-0.611267;-0.603733;0.343806;-3.00624;1;0.0999067;-0.201434;0.171781;0.185566;-1.07317;-2.31734;10.9401;-6.63441;10.9401;750;1168;1227;1388;1024;204;1024;1024;1024;1;3;0;1900;50;35;0.0166855;0;0;0;0.189823;-0.382725;0.326384; 
1289;1308;2019/06/20 10:35:03;370.125;220.25;8.50895;368.936;221.092;0;229;1;0.310757;-1.26261;-2.14946;0.293058;-1.271;-2.14673;0.711156;-0.0777316;-0.176115;-1.06009;2.47342;1.15788;392.8;178.4;8.42684;391.604;179.09;0;4;1;0.179515;-1.06757;-1.69387;0.184294;-1.06834;-1.73505;0.132583;0.0765018;-0.661745;-0.897584;0.747245;-1.99616;1;0.113543;-0.213432;0.159398;0.179515;-1.05757;-2.30613;11.4367;-6.502;11.4367;750;1159;1239;1363;1024;204;1024;1024;1024;1;3;0;1900;50;35;0.0166817;0;0;0;0.215732;-0.405521;0.302856; 
1290;1309;2019/06/20 10:35:03;369.059;218.235;8.50514;368.174;220.187;0;230;1;0.317152;-1.25329;-2.1569;0.300286;-1.26569;-2.14978;0.659498;-0.00399658;-0.169047;-1.41174;2.83291;0.881259;395;177;8.3278;392.531;177.415;0;5;1;0.168467;-1.07325;-1.66185;0.179546;-1.06981;-1.71309;0.0764937;0.0641434;-0.740767;-1.26293;0.966197;-1.3811;1;0.131819;-0.20244;0.188368;0.168467;-1.06325;-2.33815;11.9359;-5.17309;11.9359;750;1116;1251;1380;1024;204;1024;1024;1024;1;3;0;1900;50;35;0.0166855;0;0;0;0.250456;-0.384636;0.357899; 
1291;1310;2019/06/20 10:35:03;368;217;8.50919;367.239;218.004;0;231;1;0.32321;-1.24663;-2.15984;0.307163;-1.25997;-2.1528;0.603508;0.0680349;-0.165674;-1.78464;3.15635;0.615307;396;176;7.79061;394.895;175.971;0;6;1;0.173679;-1.1419;-1.49712;0.177786;-1.09144;-1.6483;0.0305086;-0.0779426;-1.08869;-1.58706;0.326341;-2.58391;1;0.133484;-0.128076;0.350085;0.173679;-1.1319;-2.50288;10.6635;-0.839657;10.6635;750;993;1223;1568;1024;204;1024;1024;1024;1;3;0;1900;50;35;0.0166836;0;0;0;0.25362;-0.243344;0.665162; 
1292;1311;2019/06/20 10:35:03;367.625;215;8.4895;366.323;216.597;0;232;1;0.326164;-1.23969;-2.17128;0.312864;-1.25389;-2.15834;0.547894;0.13896;-0.169381;-2.15592;3.49549;0.465269;397;174;8.37581;396.079;175.003;0;7;1;0.155587;-1.05214;-1.66547;0.171126;-1.07965;-1.65345;-0.0400454;-0.117339;-1.25987;-2.09981;-0.417881;-4.40647;1;0.157277;-0.211742;0.176192;0.155587;-1.04214;-2.33453;12.932;-2.83678;12.932;750;1016;1277;1535;1024;204;1024;1024;1024;1;3;0;1900;50;35;0.0166836;0;0;0;0.298826;-0.40231;0.334765; 
1293;1312;2019/06/20 10:35:04;367.143;213.429;8.5006;366.096;214.419;0;233;1;0.328568;-1.23035;-2.1735;0.317575;-1.24683;-2.16289;0.492072;0.20634;-0.177236;-2.50203;3.77429;0.347371;398.667;172.667;8.16866;397.302;172.845;0;8;1;0.149351;-1.07201;-1.6018;0.164594;-1.07736;-1.63795;-0.112262;-0.129954;-1.33438;-2.56536;-1.03817;-5.77911;1;0.168224;-0.184813;0.23531;0.149351;-1.06201;-2.3982;12.9061;-1.07361;12.9061;750;949;1280;1616;1024;204;1024;1024;1024;1;3;0;1900;50;35;0.0166836;0;0;0;0.319625;-0.351146;0.447088; 
1294;1313;2019/06/20 10:35:04;366.833;211.667;8.49026;365.759;212.669;0;234;1;0.330788;-1.22318;-2.18182;0.321539;-1.23973;-2.16857;0.439363;0.263133;-0.19828;-2.77278;3.90955;0.168027;401;171;7.9668;399.156;171.499;0;9;1;0.13852;-1.09044;-1.53532;0.156772;-1.08128;-1.60716;-0.185519;-0.128378;-1.38219;-2.98712;-1.42028;-6.54802;1;0.183018;-0.159294;0.296112;0.13852;-1.08044;-2.46468;13.0837;0.253365;13.0837;750;901;1288;1667;1024;204;1024;1024;1024;1;3;0;1900;50;35;0.0166836;0;0;0;0.347735;-0.302658;0.562613; 
