ID;RS_ID;time;imLx_drone; imLy_drone; disparity_drone; imLx_pred_drone; imLy_pred_drone; n_frames_lost_drone; n_frames_tracking_drone; foundL_drone; posX_drone; posY_drone; posZ_drone; sposX_drone; sposY_drone; sposZ_drone; svelX_drone; svelY_drone; svelZ_drone; saccX_drone; saccY_drone; saccZ_drone; imLx_insect; imLy_insect; disparity_insect; imLx_pred_insect; imLy_pred_insect; n_frames_lost_insect; n_frames_tracking_insect; foundL_insect; posX_insect; posY_insect; posZ_insect; sposX_insect; sposY_insect; sposZ_insect; svelX_insect; svelY_insect; svelZ_insect; saccX_insect; saccY_insect; saccZ_insect; valid; posErrX; posErrY; posErrZ; velX; velY; velZ; accX; accY; accZ; hoverthrottle; autoThrottle; autoRoll; autoPitch; autoYaw; joyThrottle; joyRoll; joyPitch; joyYaw; joyArmSwitch; joyModeSwitch; joyTakeoffSwitch; throttleP; throttleI; throttleD; dt; dx; dy; dz; velx_sp; vely_sp; velz_sp;
11685;11687;2019/05/25 18:03:55;-1; -1; -1; -1; -1; 100; 0; 0; 0; 0; 0;0; 0; 0;0; 0; 0;0; 0; 0;-1; -1; -1; -1; -1; 1001; 0; 0; 0; 0; 0;0; 0; 0;0; 0; 0;0; 0; 0;0; 0; 0; 0; 0; 0; 0; 0; 0; 0; 200; 228; 1024; 1024; 1024; 228; 1024; 1024; 1024; 1; 4; 0; 1900; 50; 35; 0; 0; 0; 0; 0; 0; 0; 
11686;11688;2019/05/25 18:03:55;-1; -1; -1; -1; -1; 100; 0; 0; 0; 0; 0;0; 0; 0;0; 0; 0;0; 0; 0;-1; -1; -1; -1; -1; 1002; 0; 0; 0; 0; 0;0; 0; 0;0; 0; 0;0; 0; 0;0; 0; 0; 0; 0; 0; 0; 0; 0; 0; 200; 228; 1024; 1024; 1024; 228; 1024; 1024; 1024; 1; 4; 0; 1900; 50; 35; 0; 0; 0; 0; 0; 0; 0; 
11687;11689;2019/05/25 18:03:55;-1; -1; -1; -1; -1; 100; 0; 0; 0; 0; 0;0; 0; 0;0; 0; 0;0; 0; 0;320; 236; 12.0783; -1; -1; 0; 1; 1; 0.446102; -1.06003; -1.41952;0.446102; -1.06003; -1.41952;0; 0; 0;0; 0; 0;0; 0; 0; 0; 0; 0; 0; 0; 0; 0; 200; 228; 1024; 1024; 1024; 228; 1024; 1024; 1024; 1; 4; 0; 1900; 50; 35; 0; 0; 0; 0; 0; 0; 0; 
11688;11690;2019/05/25 18:03:55;-1; -1; -1; -1; -1; 100; 0; 0; 0; 0; 0;0; 0; 0;0; 0; 0;0; 0; 0;320; 236; 12.0783; 320; 236; 1; 0; 1; 0.446102; -1.06003; -1.41952;0.446102; -1.06003; -1.41952;0; 0; 0;0; 0; 0;0; 0; 0; 0; 0; 0; 0; 0; 0; 0; 200; 228; 1024; 1024; 1024; 228; 1024; 1024; 1024; 1; 4; 0; 1900; 50; 35; 0; 0; 0; 0; 0; 0; 0; 
11689;11691;2019/05/25 18:03:55;-1; -1; -1; -1; -1; 100; 0; 0; 0; 0; 0;0; 0; 0;0; 0; 0;0; 0; 0;300; 249; 12.717; 320; 236; 0; 1; 1; 0.502208; -1.04771; -1.31773;0.462934; -1.05633; -1.38898;0; 0; 0;0; 0; 0;0; 0; 0; 0; 0; 0; 0; 0; 0; 0; 200; 228; 1024; 1024; 1024; 228; 1024; 1024; 1024; 1; 4; 0; 1900; 50; 35; 0; 0; 0; 0; 0; 0; 0; 
11690;11692;2019/05/25 18:03:55;-1; -1; -1; -1; -1; 100; 0; 0; 0; 0; 0;0; 0; 0;0; 0; 0;0; 0; 0;300; 249; 12.717; 316.785; 238.09; 1; 0; 1; 0.502208; -1.04771; -1.31773;0.462934; -1.05633; -1.38898;0; 0; 0;0; 0; 0;0; 0; 0; 0; 0; 0; 0; 0; 0; 0; 200; 228; 1024; 1024; 1024; 228; 1024; 1024; 1024; 1; 4; 0; 1900; 50; 35; 0; 0; 0; 0; 0; 0; 0; 
11691;11693;2019/05/25 18:03:55;-1; -1; -1; -1; -1; 100; 0; 0; 0; 0; 0;0; 0; 0;0; 0; 0;0; 0; 0;300; 249; 12.717; 316.781; 238.093; 2; 0; 1; 0.502208; -1.04771; -1.31773;0.462934; -1.05633; -1.38898;0; 0; 0;0; 0; 0;0; 0; 0; 0; 0; 0; 0; 0; 0; 0; 200; 228; 1024; 1024; 1024; 228; 1024; 1024; 1024; 1; 4; 0; 1900; 50; 35; 0; 0; 0; 0; 0; 0; 0; 
11692;11694;2019/05/25 18:03:55;-1; -1; -1; -1; -1; 100; 0; 0; 0; 0; 0;0; 0; 0;0; 0; 0;0; 0; 0;269.333; 267.333; 14.4534; 316.776; 238.096; 0; 1; 1; 0.54779; -0.972591; -1.12156;0.488391; -1.03121; -1.30875;0; 0; 0;0; 0; 0;0; 0; 0; 0; 0; 0; 0; 0; 0; 0; 200; 228; 1024; 1024; 1024; 228; 1024; 1024; 1024; 1; 4; 0; 1900; 50; 35; 0; 0; 0; 0; 0; 0; 0; 
11693;11695;2019/05/25 18:03:55;-1; -1; -1; -1; -1; 100; 0; 0; 0; 0; 0;0; 0; 0;0; 0; 0;0; 0; 0;257; 276; 15.1526; 304.665; 245.56; 0; 2; 1; 0.563144; -0.9506; -1.05274;0.510817; -1.00703; -1.23195;0; 0; 0;0; 0; 0;0; 0; 0; 0; 0; 0; 0; 0; 0; 0; 200; 228; 1024; 1024; 1024; 228; 1024; 1024; 1024; 1; 4; 0; 1900; 50; 35; 0; 0; 0; 0; 0; 0; 0; 
11694;11696;2019/05/25 18:03:55;-1; -1; -1; -1; -1; 100; 0; 0; 0; 0; 0;0; 0; 0;0; 0; 0;0; 0; 0;248.667; 280.667; 15.0653; 291.903; 253.708; 0; 3; 1; 0.594021; -0.968505; -1.04959;0.535778; -0.99547; -1.17724;0; 0; 0;0; 0; 0;0; 0; 0; 0; 0; 0; 0; 0; 0; 0; 200; 228; 1024; 1024; 1024; 228; 1024; 1024; 1024; 1; 4; 0; 1900; 50; 35; 0; 0; 0; 0; 0; 0; 0; 
11695;11697;2019/05/25 18:03:55;-1; -1; -1; -1; -1; 100; 0; 0; 0; 0; 0;0; 0; 0;0; 0; 0;0; 0; 0;232.4; 291.2; 15.5756; 279.916; 261.183; 0; 4; 1; 0.626693; -0.963835; -0.995021;0.563052; -0.98598; -1.12258;0; 0; 0;0; 0; 0;0; 0; 0; 0; 0; 0; 0; 0; 0; 0; 200; 228; 1024; 1024; 1024; 228; 1024; 1024; 1024; 1; 4; 0; 1900; 50; 35; 0; 0; 0; 0; 0; 0; 0; 
11696;11698;2019/05/25 18:03:55;-1; -1; -1; -1; -1; 100; 0; 0; 0; 0; 0;0; 0; 0;0; 0; 0;0; 0; 0;225; 296; 16.2516; 266.412; 269.713; 0; 5; 1; 0.623358; -0.935566; -0.944822;0.581144; -0.970856; -1.06925;0; 0; 0;0; 0; 0;0; 0; 0; 0; 0; 0; 0; 0; 0; 0; 200; 228; 1024; 1024; 1024; 228; 1024; 1024; 1024; 1; 4; 0; 1900; 50; 35; 0; 0; 0; 0; 0; 0; 0; 
11697;11699;2019/05/25 18:03:55;-1; -1; -1; -1; -1; 100; 0; 0; 0; 0; 0;0; 0; 0;0; 0; 0;0; 0; 0;206.727; 308.909; 16.6642; 254.293; 277.403; 0; 6; 1; 0.662662; -0.943402; -0.89831;0.605599; -0.96262; -1.01797;0.967606; 0.63747; 2.51267;2.90187; 1.91178; 7.53554;0; 0; 0; 0; 0; 0; 0; 0; 0; 0; 200; 228; 1024; 1024; 1024; 228; 1024; 1024; 1024; 1; 4; 0; 1900; 50; 35; 0; 0; 0; 0; 0; 0; 0; 
11698;11700;2019/05/25 18:03:55;-1; -1; -1; -1; -1; 100; 0; 0; 0; 0; 0;0; 0; 0;0; 0; 0;0; 0; 0;192; 322; 17.3181; 240.131; 286.763; 0; 7; 1; 0.680093; -0.93803; -0.841832;0.627947; -0.955243; -0.965127;1.13808; 0.685963; 2.88035;6.2876; 3.88741; 16.028;0; 0; 0; 0; 0; 0; 0; 0; 0; 0; 200; 228; 1024; 1024; 1024; 228; 1024; 1024; 1024; 1; 4; 0; 1900; 50; 35; 0; 0; 0; 0; 0; 0; 0; 
11699;11701;2019/05/25 18:03:55;-1; -1; -1; -1; -1; 100; 0; 0; 0; 0; 0;0; 0; 0;0; 0; 0;0; 0; 0;181.6; 327.6; 17.5157; 225.467; 297.417; 0; 8; 1; 0.702057; -0.940237; -0.82279;0.65018; -0.950741; -0.922426;1.23959; 0.636435; 2.96471;8.72455; 4.87493; 21.4605;0; 0; 0; 0; 0; 0; 0; 0; 0; 0; 200; 228; 1024; 1024; 1024; 228; 1024; 1024; 1024; 1; 4; 0; 1900; 50; 35; 0; 0; 0; 0; 0; 0; 0; 
11700;11702;2019/05/25 18:03:55;-1; -1; -1; -1; -1; 100; 0; 0; 0; 0; 0;0; 0; 0;0; 0; 0;0; 0; 0;164.889; 339.778; 18.3262; 211.657; 306.887; 0; 9; 1; 0.71653; -0.925248; -0.766573;0.670085; -0.943093; -0.87567;1.28029; 0.591102; 2.98357;10.3493; 5.28634; 24.7953;0; 0; 0; 0; 0; 0; 0; 0; 0; 0; 200; 228; 1024; 1024; 1024; 228; 1024; 1024; 1024; 1; 4; 0; 1900; 50; 35; 0; 0; 0; 0; 0; 0; 0; 
11701;11703;2019/05/25 18:03:55;-1; -1; -1; -1; -1; 100; 0; 0; 0; 0; 0;0; 0; 0;0; 0; 0;0; 0; 0;139.6; 356.8; 18.4591; 196.657; 317.383; 0; 10; 1; 0.779759; -0.955486; -0.733532;0.702987; -0.946811; -0.833029;1.32728; 0.51116; 2.94702;11.5128; 5.21414; 26.652;0; 0; 0; 0; 0; 0; 0; 0; 0; 0; 200; 228; 1024; 1024; 1024; 228; 1024; 1024; 1024; 1; 4; 0; 1900; 50; 35; 0; 0; 0; 0; 0; 0; 0; 
11702;11704;2019/05/25 18:03:55;-1; -1; -1; -1; -1; 100; 0; 0; 0; 0; 0;0; 0; 0;0; 0; 0;0; 0; 0;130; 361; 19; 178.226; 330.084; 0; 11; 1; 0.782784; -0.937132; -0.706053;0.726927; -0.943907; -0.794936;1.37875; 0.414352; 2.86406;12.4156; 4.78377; 27.4328;0; 0; 0; 0; 0; 0; 0; 0; 0; 0; 200; 228; 1024; 1024; 1024; 228; 1024; 1024; 1024; 1; 4; 0; 1900; 50; 35; 0; 0; 0; 0; 0; 0; 0; 
11703;11705;2019/05/25 18:03:55;-1; -1; -1; -1; -1; 100; 0; 0; 0; 0; 0;0; 0; 0;0; 0; 0;0; 0; 0;104.889; 375.778; 19; 161.901; 340.622; 0; 12; 1; 0.84876; -0.968256; -0.682842;0.763476; -0.951212; -0.761308;1.45795; 0.294184; 2.74376;9.40824; 1.49888; 17.3828;0; 0; 0; 0; 0; 0; 0; 0; 0; 0; 200; 228; 1024; 1024; 1024; 228; 1024; 1024; 1024; 1; 4; 0; 1900; 50; 35; 0; 0; 0; 0; 0; 0; 0; 
11704;11706;2019/05/25 18:03:55;-1; -1; -1; -1; -1; 100; 0; 0; 0; 0; 0;0; 0; 0;0; 0; 0;0; 0; 0;73; 394; 18.0871; 142.495; 352.721; 0; 13; 1; 0.979609; -1.05744; -0.687239;0.828316; -0.98308; -0.739087;1.67534; 0.0652848; 2.5494;7.79159; -1.58059; 9.10738;0; 0; 0; 0; 0; 0; 0; 0; 0; 0; 200; 228; 1024; 1024; 1024; 228; 1024; 1024; 1024; 1; 4; 0; 1900; 50; 35; 0; 0; 0; 0; 0; 0; 0; 
11705;11707;2019/05/25 18:03:55;-1; -1; -1; -1; -1; 100; 0; 0; 0; 0; 0;0; 0; 0;0; 0; 0;0; 0; 0;61.3333; 395.333; 18.357; 118.814; 366.985; 0; 14; 1; 0.996933; -1.0448; -0.674968;0.878901; -1.0016; -0.719851;1.91892; -0.163991; 2.3389;7.3888; -4.14596; 2.96438;0; 0; 0; 0; 0; 0; 0; 0; 0; 0; 200; 228; 1024; 1024; 1024; 228; 1024; 1024; 1024; 1; 4; 0; 1900; 50; 35; 0; 0; 0; 0; 0; 0; 0; 
11706;11708;2019/05/25 18:03:55;-1; -1; -1; -1; -1; 100; 0; 0; 0; 0; 0;0; 0; 0;0; 0; 0;0; 0; 0;61.3333; 395.333; 18.357; 98.0101; 377.799; 1; 0; 1; 0.996933; -1.0448; -0.674968;0.878901; -1.0016; -0.719851;1.91892; -0.163991; 2.3389;7.3888; -4.14596; 2.96438;0; 0; 0; 0; 0; 0; 0; 0; 0; 0; 200; 228; 1024; 1024; 1024; 228; 1024; 1024; 1024; 1; 4; 0; 1900; 50; 35; 0; 0; 0; 0; 0; 0; 0; 
11707;11709;2019/05/25 18:03:55;-1; -1; -1; -1; -1; 100; 0; 0; 0; 0; 0;0; 0; 0;0; 0; 0;0; 0; 0;61.3333; 395.333; 18.357; 93.9995; 380.327; 2; 0; 1; 0.996933; -1.0448; -0.674968;0.878901; -1.0016; -0.719851;1.91892; -0.163991; 2.3389;7.3888; -4.14596; 2.96438;0; 0; 0; 0; 0; 0; 0; 0; 0; 0; 200; 228; 1024; 1024; 1024; 228; 1024; 1024; 1024; 1; 4; 0; 1900; 50; 35; 0; 0; 0; 0; 0; 0; 0; 
11708;11710;2019/05/25 18:03:55;-1; -1; -1; -1; -1; 100; 0; 0; 0; 0; 0;0; 0; 0;0; 0; 0;0; 0; 0;61.3333; 395.333; 18.357; 89.9556; 382.876; 3; 0; 1; 0.996933; -1.0448; -0.674968;0.878901; -1.0016; -0.719851;1.91892; -0.163991; 2.3389;7.3888; -4.14596; 2.96438;0; 0; 0; 0; 0; 0; 0; 0; 0; 0; 200; 228; 1024; 1024; 1024; 228; 1024; 1024; 1024; 1; 4; 0; 1900; 50; 35; 0; 0; 0; 0; 0; 0; 0; 
11709;11711;2019/05/25 18:03:55;-1; -1; -1; -1; -1; 100; 0; 0; 0; 0; 0;0; 0; 0;0; 0; 0;0; 0; 0;61.3333; 395.333; 18.357; 85.9449; 385.404; 4; 0; 1; 0.996933; -1.0448; -0.674968;0.878901; -1.0016; -0.719851;1.91892; -0.163991; 2.3389;7.3888; -4.14596; 2.96438;0; 0; 0; 0; 0; 0; 0; 0; 0; 0; 200; 228; 1024; 1024; 1024; 228; 1024; 1024; 1024; 1; 4; 0; 1900; 50; 35; 0; 0; 0; 0; 0; 0; 0; 
11710;11712;2019/05/25 18:03:55;-1; -1; -1; -1; -1; 100; 0; 0; 0; 0; 0;0; 0; 0;0; 0; 0;0; 0; 0;61.3333; 395.333; 18.357; 81.9306; 387.934; 5; 0; 1; 0.996933; -1.0448; -0.674968;0.878901; -1.0016; -0.719851;1.91892; -0.163991; 2.3389;7.3888; -4.14596; 2.96438;0; 0; 0; 0; 0; 0; 0; 0; 0; 0; 200; 228; 1024; 1024; 1024; 228; 1024; 1024; 1024; 1; 4; 0; 1900; 50; 35; 0; 0; 0; 0; 0; 0; 0; 
11711;11713;2019/05/25 18:03:55;-1; -1; -1; -1; -1; 100; 0; 0; 0; 0; 0;0; 0; 0;0; 0; 0;0; 0; 0;61.3333; 395.333; 18.357; 77.8868; 390.483; 6; 0; 1; 0.996933; -1.0448; -0.674968;0.878901; -1.0016; -0.719851;1.91892; -0.163991; 2.3389;7.3888; -4.14596; 2.96438;0; 0; 0; 0; 0; 0; 0; 0; 0; 0; 200; 228; 1024; 1024; 1024; 228; 1024; 1024; 1024; 1; 4; 0; 1900; 50; 35; 0; 0; 0; 0; 0; 0; 0; 
11712;11714;2019/05/25 18:03:55;-1; -1; -1; -1; -1; 100; 0; 0; 0; 0; 0;0; 0; 0;0; 0; 0;0; 0; 0;61.3333; 395.333; 18.357; 73.8761; 393.01; 7; 0; 1; 0.996933; -1.0448; -0.674968;0.878901; -1.0016; -0.719851;1.91892; -0.163991; 2.3389;7.3888; -4.14596; 2.96438;0; 0; 0; 0; 0; 0; 0; 0; 0; 0; 200; 228; 1024; 1024; 1024; 228; 1024; 1024; 1024; 1; 4; 0; 1900; 50; 35; 0; 0; 0; 0; 0; 0; 0; 
11713;11715;2019/05/25 18:03:55;-1; -1; -1; -1; -1; 100; 0; 0; 0; 0; 0;0; 0; 0;0; 0; 0;0; 0; 0;61.3333; 395.333; 18.357; 69.8323; 395.559; 8; 0; 1; 0.996933; -1.0448; -0.674968;0.878901; -1.0016; -0.719851;1.91892; -0.163991; 2.3389;7.3888; -4.14596; 2.96438;0; 0; 0; 0; 0; 0; 0; 0; 0; 0; 200; 228; 1024; 1024; 1024; 228; 1024; 1024; 1024; 1; 4; 0; 1900; 50; 35; 0; 0; 0; 0; 0; 0; 0; 
11714;11716;2019/05/25 18:03:55;-1; -1; -1; -1; -1; 100; 0; 0; 0; 0; 0;0; 0; 0;0; 0; 0;0; 0; 0;61.3333; 395.333; 18.357; 65.8179; 398.089; 9; 0; 1; 0.996933; -1.0448; -0.674968;0.878901; -1.0016; -0.719851;1.91892; -0.163991; 2.3389;7.3888; -4.14596; 2.96438;0; 0; 0; 0; 0; 0; 0; 0; 0; 0; 200; 228; 1024; 1024; 1024; 228; 1024; 1024; 1024; 1; 4; 0; 1900; 50; 35; 0; 0; 0; 0; 0; 0; 0; 
11715;11717;2019/05/25 18:03:55;-1; -1; -1; -1; -1; 100; 0; 0; 0; 0; 0;0; 0; 0;0; 0; 0;0; 0; 0;61.3333; 395.333; 18.357; 61.7778; 400.636; 10; 0; 0; 0; 0; 0;0; 0; 0;0; 0; 0;0; 0; 0;0; 0; 0; 0; 0; 0; 0; 0; 0; 0; 200; 228; 1024; 1024; 1024; 228; 1024; 1024; 1024; 1; 4; 0; 1900; 50; 35; 0; 0; 0; 0; 0; 0; 0; 
11716;11718;2019/05/25 18:03:55;-1; -1; -1; -1; -1; 100; 0; 0; 0; 0; 0;0; 0; 0;0; 0; 0;0; 0; 0;61.3333; 395.333; 18.357; -1; -1; 11; 0; 0; 0; 0; 0;0; 0; 0;0; 0; 0;0; 0; 0;0; 0; 0; 0; 0; 0; 0; 0; 0; 0; 200; 228; 1024; 1024; 1024; 228; 1024; 1024; 1024; 1; 4; 0; 1900; 50; 35; 0; 0; 0; 0; 0; 0; 0; 
11717;11719;2019/05/25 18:03:55;-1; -1; -1; -1; -1; 100; 0; 0; 0; 0; 0;0; 0; 0;0; 0; 0;0; 0; 0;61.3333; 395.333; 18.357; -1; -1; 12; 0; 0; 0; 0; 0;0; 0; 0;0; 0; 0;0; 0; 0;0; 0; 0; 0; 0; 0; 0; 0; 0; 0; 200; 228; 1024; 1024; 1024; 228; 1024; 1024; 1024; 1; 4; 0; 1900; 50; 35; 0; 0; 0; 0; 0; 0; 0; 
11718;11720;2019/05/25 18:03:55;-1; -1; -1; -1; -1; 100; 0; 0; 0; 0; 0;0; 0; 0;0; 0; 0;0; 0; 0;61.3333; 395.333; 18.357; -1; -1; 13; 0; 0; 0; 0; 0;0; 0; 0;0; 0; 0;0; 0; 0;0; 0; 0; 0; 0; 0; 0; 0; 0; 0; 200; 228; 1024; 1024; 1024; 228; 1024; 1024; 1024; 1; 4; 0; 1900; 50; 35; 0; 0; 0; 0; 0; 0; 0; 
11719;11721;2019/05/25 18:03:55;-1; -1; -1; -1; -1; 100; 0; 0; 0; 0; 0;0; 0; 0;0; 0; 0;0; 0; 0;61.3333; 395.333; 18.357; -1; -1; 14; 0; 0; 0; 0; 0;0; 0; 0;0; 0; 0;0; 0; 0;0; 0; 0; 0; 0; 0; 0; 0; 0; 0; 200; 228; 1024; 1024; 1024; 228; 1024; 1024; 1024; 1; 4; 0; 1900; 50; 35; 0; 0; 0; 0; 0; 0; 0; 
11720;11722;2019/05/25 18:03:55;-1; -1; -1; -1; -1; 100; 0; 0; 0; 0; 0;0; 0; 0;0; 0; 0;0; 0; 0;61.3333; 395.333; 18.357; -1; -1; 15; 0; 0; 0; 0; 0;0; 0; 0;0; 0; 0;0; 0; 0;0; 0; 0; 0; 0; 0; 0; 0; 0; 0; 200; 228; 1024; 1024; 1024; 228; 1024; 1024; 1024; 1; 4; 0; 1900; 50; 35; 0; 0; 0; 0; 0; 0; 0; 
11721;11723;2019/05/25 18:03:55;-1; -1; -1; -1; -1; 100; 0; 0; 0; 0; 0;0; 0; 0;0; 0; 0;0; 0; 0;61.3333; 395.333; 18.357; -1; -1; 16; 0; 0; 0; 0; 0;0; 0; 0;0; 0; 0;0; 0; 0;0; 0; 0; 0; 0; 0; 0; 0; 0; 0; 200; 228; 1024; 1024; 1024; 228; 1024; 1024; 1024; 1; 4; 0; 1900; 50; 35; 0; 0; 0; 0; 0; 0; 0; 
11722;11724;2019/05/25 18:03:55;-1; -1; -1; -1; -1; 100; 0; 0; 0; 0; 0;0; 0; 0;0; 0; 0;0; 0; 0;61.3333; 395.333; 18.357; -1; -1; 17; 0; 0; 0; 0; 0;0; 0; 0;0; 0; 0;0; 0; 0;0; 0; 0; 0; 0; 0; 0; 0; 0; 0; 200; 228; 1024; 1024; 1024; 228; 1024; 1024; 1024; 1; 4; 0; 1900; 50; 35; 0; 0; 0; 0; 0; 0; 0; 
11723;11725;2019/05/25 18:03:55;-1; -1; -1; -1; -1; 100; 0; 0; 0; 0; 0;0; 0; 0;0; 0; 0;0; 0; 0;61.3333; 395.333; 18.357; -1; -1; 18; 0; 0; 0; 0; 0;0; 0; 0;0; 0; 0;0; 0; 0;0; 0; 0; 0; 0; 0; 0; 0; 0; 0; 200; 228; 1024; 1024; 1024; 228; 1024; 1024; 1024; 1; 4; 0; 1900; 50; 35; 0; 0; 0; 0; 0; 0; 0; 
11724;11726;2019/05/25 18:03:56;-1; -1; -1; -1; -1; 100; 0; 0; 0; 0; 0;0; 0; 0;0; 0; 0;0; 0; 0;61.3333; 395.333; 18.357; -1; -1; 19; 0; 0; 0; 0; 0;0; 0; 0;0; 0; 0;0; 0; 0;0; 0; 0; 0; 0; 0; 0; 0; 0; 0; 200; 228; 1024; 1024; 1024; 228; 1024; 1024; 1024; 1; 4; 0; 1900; 50; 35; 0; 0; 0; 0; 0; 0; 0; 
11725;11727;2019/05/25 18:03:56;-1; -1; -1; -1; -1; 100; 0; 0; 0; 0; 0;0; 0; 0;0; 0; 0;0; 0; 0;61.3333; 395.333; 18.357; -1; -1; 20; 0; 0; 0; 0; 0;0; 0; 0;0; 0; 0;0; 0; 0;0; 0; 0; 0; 0; 0; 0; 0; 0; 0; 200; 228; 1024; 1024; 1024; 228; 1024; 1024; 1024; 1; 4; 0; 1900; 50; 35; 0; 0; 0; 0; 0; 0; 0; 
11726;11728;2019/05/25 18:03:56;-1; -1; -1; -1; -1; 100; 0; 0; 0; 0; 0;0; 0; 0;0; 0; 0;0; 0; 0;61.3333; 395.333; 18.357; -1; -1; 21; 0; 0; 0; 0; 0;0; 0; 0;0; 0; 0;0; 0; 0;0; 0; 0; 0; 0; 0; 0; 0; 0; 0; 200; 228; 1024; 1024; 1024; 228; 1024; 1024; 1024; 1; 4; 0; 1900; 50; 35; 0; 0; 0; 0; 0; 0; 0; 
11727;11729;2019/05/25 18:03:56;-1; -1; -1; -1; -1; 100; 0; 0; 0; 0; 0;0; 0; 0;0; 0; 0;0; 0; 0;61.3333; 395.333; 18.357; -1; -1; 22; 0; 0; 0; 0; 0;0; 0; 0;0; 0; 0;0; 0; 0;0; 0; 0; 0; 0; 0; 0; 0; 0; 0; 200; 228; 1024; 1024; 1024; 228; 1024; 1024; 1024; 1; 4; 0; 1900; 50; 35; 0; 0; 0; 0; 0; 0; 0; 
11728;11730;2019/05/25 18:03:56;-1; -1; -1; -1; -1; 100; 0; 0; 0; 0; 0;0; 0; 0;0; 0; 0;0; 0; 0;61.3333; 395.333; 18.357; -1; -1; 23; 0; 0; 0; 0; 0;0; 0; 0;0; 0; 0;0; 0; 0;0; 0; 0; 0; 0; 0; 0; 0; 0; 0; 200; 228; 1024; 1024; 1024; 228; 1024; 1024; 1024; 1; 4; 0; 1900; 50; 35; 0; 0; 0; 0; 0; 0; 0; 
11729;11731;2019/05/25 18:03:56;-1; -1; -1; -1; -1; 100; 0; 0; 0; 0; 0;0; 0; 0;0; 0; 0;0; 0; 0;61.3333; 395.333; 18.357; -1; -1; 24; 0; 0; 0; 0; 0;0; 0; 0;0; 0; 0;0; 0; 0;0; 0; 0; 0; 0; 0; 0; 0; 0; 0; 200; 228; 1024; 1024; 1024; 228; 1024; 1024; 1024; 1; 4; 0; 1900; 50; 35; 0; 0; 0; 0; 0; 0; 0; 
11730;11732;2019/05/25 18:03:56;-1; -1; -1; -1; -1; 100; 0; 0; 0; 0; 0;0; 0; 0;0; 0; 0;0; 0; 0;61.3333; 395.333; 18.357; -1; -1; 25; 0; 0; 0; 0; 0;0; 0; 0;0; 0; 0;0; 0; 0;0; 0; 0; 0; 0; 0; 0; 0; 0; 0; 200; 228; 1024; 1024; 1024; 228; 1024; 1024; 1024; 1; 4; 0; 1900; 50; 35; 0; 0; 0; 0; 0; 0; 0; 
11731;11733;2019/05/25 18:03:56;-1; -1; -1; -1; -1; 100; 0; 0; 0; 0; 0;0; 0; 0;0; 0; 0;0; 0; 0;61.3333; 395.333; 18.357; -1; -1; 26; 0; 0; 0; 0; 0;0; 0; 0;0; 0; 0;0; 0; 0;0; 0; 0; 0; 0; 0; 0; 0; 0; 0; 200; 228; 1024; 1024; 1024; 228; 1024; 1024; 1024; 1; 4; 0; 1900; 50; 35; 0; 0; 0; 0; 0; 0; 0; 
11732;11734;2019/05/25 18:03:56;-1; -1; -1; -1; -1; 100; 0; 0; 0; 0; 0;0; 0; 0;0; 0; 0;0; 0; 0;61.3333; 395.333; 18.357; -1; -1; 27; 0; 0; 0; 0; 0;0; 0; 0;0; 0; 0;0; 0; 0;0; 0; 0; 0; 0; 0; 0; 0; 0; 0; 200; 228; 1024; 1024; 1024; 228; 1024; 1024; 1024; 1; 4; 0; 1900; 50; 35; 0; 0; 0; 0; 0; 0; 0; 
11733;11735;2019/05/25 18:03:56;-1; -1; -1; -1; -1; 100; 0; 0; 0; 0; 0;0; 0; 0;0; 0; 0;0; 0; 0;61.3333; 395.333; 18.357; -1; -1; 28; 0; 0; 0; 0; 0;0; 0; 0;0; 0; 0;0; 0; 0;0; 0; 0; 0; 0; 0; 0; 0; 0; 0; 200; 228; 1024; 1024; 1024; 228; 1024; 1024; 1024; 1; 4; 0; 1900; 50; 35; 0; 0; 0; 0; 0; 0; 0; 
11734;11736;2019/05/25 18:03:56;-1; -1; -1; -1; -1; 100; 0; 0; 0; 0; 0;0; 0; 0;0; 0; 0;0; 0; 0;61.3333; 395.333; 18.357; -1; -1; 29; 0; 0; 0; 0; 0;0; 0; 0;0; 0; 0;0; 0; 0;0; 0; 0; 0; 0; 0; 0; 0; 0; 0; 200; 228; 1024; 1024; 1024; 228; 1024; 1024; 1024; 1; 4; 0; 1900; 50; 35; 0; 0; 0; 0; 0; 0; 0; 
11735;11737;2019/05/25 18:03:56;-1; -1; -1; -1; -1; 100; 0; 0; 0; 0; 0;0; 0; 0;0; 0; 0;0; 0; 0;61.3333; 395.333; 18.357; -1; -1; 30; 0; 0; 0; 0; 0;0; 0; 0;0; 0; 0;0; 0; 0;0; 0; 0; 0; 0; 0; 0; 0; 0; 0; 200; 228; 1024; 1024; 1024; 228; 1024; 1024; 1024; 1; 4; 0; 1900; 50; 35; 0; 0; 0; 0; 0; 0; 0; 
11736;11738;2019/05/25 18:03:56;-1; -1; -1; -1; -1; 100; 0; 0; 0; 0; 0;0; 0; 0;0; 0; 0;0; 0; 0;-1; -1; -1; -1; -1; 31; 0; 0; 0; 0; 0;0; 0; 0;0; 0; 0;0; 0; 0;0; 0; 0; 0; 0; 0; 0; 0; 0; 0; 200; 228; 1024; 1024; 1024; 228; 1024; 1024; 1024; 1; 4; 0; 1900; 50; 35; 0; 0; 0; 0; 0; 0; 0; 
11737;11739;2019/05/25 18:03:56;-1; -1; -1; -1; -1; 100; 0; 0; 0; 0; 0;0; 0; 0;0; 0; 0;0; 0; 0;-1; -1; -1; -1; -1; 32; 0; 0; 0; 0; 0;0; 0; 0;0; 0; 0;0; 0; 0;0; 0; 0; 0; 0; 0; 0; 0; 0; 0; 200; 228; 1024; 1024; 1024; 228; 1024; 1024; 1024; 1; 4; 0; 1900; 50; 35; 0; 0; 0; 0; 0; 0; 0; 
