ID;RS_ID;insect_log;imLx_drone;imLy_drone;disparity_drone;imLx_pred_drone;imLy_pred_drone;n_frames_lost_drone;n_frames_tracking_drone;foundL_drone;posX_drone;posY_drone;posZ_drone;sposX_drone;sposY_drone;sposZ_drone;svelX_drone;svelY_drone;svelZ_drone;saccX_drone;saccY_drone;saccZ_drone;imLx_insect;imLy_insect;disparity_insect;imLx_pred_insect;imLy_pred_insect;n_frames_lost_insect;n_frames_tracking_insect;foundL_insect;posX_insect;posY_insect;posZ_insect;sposX_insect;sposY_insect;sposZ_insect;svelX_insect;svelY_insect;svelZ_insect;saccX_insect;saccY_insect;saccZ_insect;valid;posErrX;posErrY;posErrZ;velX;velY;velZ;accX;accY;accZ;hoverthrottle;autoThrottle;autoRoll;autoPitch;autoYaw;joyThrottle;joyRoll;joyPitch;joyYaw;joyArmSwitch;joyModeSwitch;joyTakeoffSwitch;dt;velx_sp;vely_sp;velz_sp;Unnamed: 70;time
3250.0;3253.0;0.0;-1.0;-1.0;-1.0;-1.0;-1.0;100.0;0.0;0.0;0.0;0.0;0.0;0.0;0.0;0.0;0.0;0.0;0.0;0.0;0.0;0.0;196.0;54.0;6.47618;196.0;54.0;0.0;1.0;1.0;0.74995;-0.10094199999999999;-2.72339;0.74995;-0.10094199999999999;-2.72339;0.0;0.0;0.0;0.0;0.0;0.0;0.0;0.0;0.0;0.0;0.0;0.0;0.0;0.0;0.0;0.0;675.0;224.0;1024.0;1024.0;1024.0;224.0;1024.0;1024.0;1024.0;1.0;4.0;0.0;0.0;0.0;0.0;0.0;;1970-01-01 00:00:00.000
3251.0;3254.0;0.0;-1.0;-1.0;-1.0;-1.0;-1.0;100.0;0.0;0.0;0.0;0.0;0.0;0.0;0.0;0.0;0.0;0.0;0.0;0.0;0.0;0.0;196.0;55.0;6.30187;196.0;54.0909;0.0;2.0;1.0;0.7983600000000001;-0.124172;-2.81649;0.76447;-0.10791099999999999;-2.75132;0.0;0.0;0.0;0.0;0.0;0.0;0.0;0.0;0.0;0.0;0.0;0.0;0.0;0.0;0.0;0.0;675.0;224.0;1024.0;1024.0;1024.0;224.0;1024.0;1024.0;1024.0;1.0;4.0;0.0;0.0;0.0;0.0;0.0;;1970-01-01 00:00:00.011
3252.0;3255.0;0.0;-1.0;-1.0;-1.0;-1.0;-1.0;100.0;0.0;0.0;0.0;0.0;0.0;0.0;0.0;0.0;0.0;0.0;0.0;0.0;0.0;0.0;196.0;55.0;6.30187;196.0;54.0909;1.0;0.0;1.0;0.7983600000000001;-0.124172;-2.81649;0.76447;-0.10791099999999999;-2.75132;0.0;0.0;0.0;0.0;0.0;0.0;0.0;0.0;0.0;0.0;0.0;0.0;0.0;0.0;0.0;0.0;675.0;224.0;1024.0;1024.0;1024.0;224.0;1024.0;1024.0;1024.0;1.0;4.0;0.0;0.0;0.0;0.0;0.0;;1970-01-01 00:00:00.022
3252.0;3255.0;0.0;-1.0;-1.0;-1.0;-1.0;-1.0;100.0;0.0;0.0;0.0;0.0;0.0;0.0;0.0;0.0;0.0;0.0;0.0;0.0;0.0;0.0;196.0;55.0;6.30187;196.0;54.0909;1.0;0.0;1.0;0.7983600000000001;-0.124172;-2.81649;0.76447;-0.10791099999999999;-2.75132;0.0;0.0;0.0;0.0;0.0;0.0;0.0;0.0;0.0;0.0;0.0;0.0;0.0;0.0;0.0;0.0;675.0;224.0;1024.0;1024.0;1024.0;224.0;1024.0;1024.0;1024.0;1.0;4.0;0.0;0.0;0.0;0.0;0.0;;1970-01-01 00:00:00.033
3253.0;3256.0;0.0;-1.0;-1.0;-1.0;-1.0;-1.0;100.0;0.0;0.0;0.0;0.0;0.0;0.0;0.0;0.0;0.0;0.0;0.0;0.0;0.0;0.0;196.0;55.0;6.30187;196.0;54.0909;2.0;0.0;1.0;0.7983600000000001;-0.124172;-2.81649;0.76447;-0.10791099999999999;-2.75132;0.0;0.0;0.0;0.0;0.0;0.0;0.0;0.0;0.0;0.0;0.0;0.0;0.0;0.0;0.0;0.0;675.0;224.0;1024.0;1024.0;1024.0;224.0;1024.0;1024.0;1024.0;1.0;4.0;0.0;0.0;0.0;0.0;0.0;;1970-01-01 00:00:00.044
3254.0;3257.0;0.0;-1.0;-1.0;-1.0;-1.0;-1.0;100.0;0.0;0.0;0.0;0.0;0.0;0.0;0.0;0.0;0.0;0.0;0.0;0.0;0.0;0.0;196.0;57.0;6.74095;196.0;54.9178;0.0;1.0;1.0;0.6812199999999999;-0.095872;-2.5727700000000002;0.7395;-0.104299;-2.6977599999999997;0.0;0.0;0.0;0.0;0.0;0.0;0.0;0.0;0.0;0.0;0.0;0.0;0.0;0.0;0.0;0.0;675.0;224.0;1024.0;1024.0;1024.0;224.0;1024.0;1024.0;1024.0;1.0;4.0;0.0;0.0;0.0;0.0;0.0;;1970-01-01 00:00:00.055
3254.0;3257.0;0.0;-1.0;-1.0;-1.0;-1.0;-1.0;100.0;0.0;0.0;0.0;0.0;0.0;0.0;0.0;0.0;0.0;0.0;0.0;0.0;0.0;0.0;196.0;57.0;6.74095;196.0;54.9178;0.0;1.0;1.0;0.6812199999999999;-0.095872;-2.5727700000000002;0.7395;-0.104299;-2.6977599999999997;0.0;0.0;0.0;0.0;0.0;0.0;0.0;0.0;0.0;0.0;0.0;0.0;0.0;0.0;0.0;0.0;675.0;224.0;1024.0;1024.0;1024.0;224.0;1024.0;1024.0;1024.0;1.0;4.0;0.0;0.0;0.0;0.0;0.0;;1970-01-01 00:00:00.066
3255.0;3258.0;0.0;-1.0;-1.0;-1.0;-1.0;-1.0;100.0;0.0;0.0;0.0;0.0;0.0;0.0;0.0;0.0;0.0;0.0;0.0;0.0;0.0;0.0;196.0;57.0;6.74095;196.0;54.9213;1.0;0.0;1.0;0.6812199999999999;-0.095872;-2.5727700000000002;0.7395;-0.104299;-2.6977599999999997;0.0;0.0;0.0;0.0;0.0;0.0;0.0;0.0;0.0;0.0;0.0;0.0;0.0;0.0;0.0;0.0;675.0;224.0;1024.0;1024.0;1024.0;224.0;1024.0;1024.0;1024.0;1.0;4.0;0.0;0.0;0.0;0.0;0.0;;1970-01-01 00:00:00.077
3256.0;3259.0;0.0;-1.0;-1.0;-1.0;-1.0;-1.0;100.0;0.0;0.0;0.0;0.0;0.0;0.0;0.0;0.0;0.0;0.0;0.0;0.0;0.0;0.0;196.0;58.0;6.5145;196.0;55.9485;0.0;1.0;1.0;0.73966;-0.122976;-2.6857900000000003;0.73955;-0.109902;-2.69417;0.0;0.0;0.0;0.0;0.0;0.0;0.0;0.0;0.0;0.0;0.0;0.0;0.0;0.0;0.0;0.0;675.0;224.0;1024.0;1024.0;1024.0;224.0;1024.0;1024.0;1024.0;1.0;4.0;0.0;0.0;0.0;0.0;0.0;;1970-01-01 00:00:00.088
3256.0;3259.0;0.0;-1.0;-1.0;-1.0;-1.0;-1.0;100.0;0.0;0.0;0.0;0.0;0.0;0.0;0.0;0.0;0.0;0.0;0.0;0.0;0.0;0.0;196.0;58.0;6.5145;196.0;55.9485;0.0;1.0;1.0;0.73966;-0.122976;-2.6857900000000003;0.73955;-0.109902;-2.69417;0.0;0.0;0.0;0.0;0.0;0.0;0.0;0.0;0.0;0.0;0.0;0.0;0.0;0.0;0.0;0.0;675.0;224.0;1024.0;1024.0;1024.0;224.0;1024.0;1024.0;1024.0;1.0;4.0;0.0;0.0;0.0;0.0;0.0;;1970-01-01 00:00:00.099
3257.0;3260.0;0.0;-1.0;-1.0;-1.0;-1.0;-1.0;100.0;0.0;0.0;0.0;0.0;0.0;0.0;0.0;0.0;0.0;0.0;0.0;0.0;0.0;0.0;196.0;59.0;6.333130000000001;196.0;56.8959;0.0;2.0;1.0;0.7894800000000001;-0.147394;-2.7812799999999998;0.75453;-0.12115;-2.7203;0.0;0.0;0.0;0.0;0.0;0.0;0.0;0.0;0.0;0.0;0.0;0.0;0.0;0.0;0.0;0.0;675.0;224.0;1024.0;1024.0;1024.0;224.0;1024.0;1024.0;1024.0;1.0;4.0;0.0;0.0;0.0;0.0;0.0;;1970-01-01 00:00:00.110
3258.0;3261.0;0.0;-1.0;-1.0;-1.0;-1.0;-1.0;100.0;0.0;0.0;0.0;0.0;0.0;0.0;0.0;0.0;0.0;0.0;0.0;0.0;0.0;0.0;196.0;60.0;6.41245;196.0;57.8316;0.0;3.0;1.0;0.7673399999999999;-0.145879;-2.7326900000000003;0.75837;-0.12856800000000002;-2.72402;0.0;0.0;0.0;0.0;0.0;0.0;0.0;0.0;0.0;0.0;0.0;0.0;0.0;0.0;0.0;0.0;675.0;224.0;1024.0;1024.0;1024.0;224.0;1024.0;1024.0;1024.0;1.0;4.0;0.0;0.0;0.0;0.0;0.0;;1970-01-01 00:00:00.121
3258.0;3261.0;0.0;-1.0;-1.0;-1.0;-1.0;-1.0;100.0;0.0;0.0;0.0;0.0;0.0;0.0;0.0;0.0;0.0;0.0;0.0;0.0;0.0;0.0;196.0;60.0;6.41245;196.0;57.8316;0.0;3.0;1.0;0.7673399999999999;-0.145879;-2.7326900000000003;0.75837;-0.12856800000000002;-2.72402;0.0;0.0;0.0;0.0;0.0;0.0;0.0;0.0;0.0;0.0;0.0;0.0;0.0;0.0;0.0;0.0;675.0;224.0;1024.0;1024.0;1024.0;224.0;1024.0;1024.0;1024.0;1.0;4.0;0.0;0.0;0.0;0.0;0.0;;1970-01-01 00:00:00.132
3259.0;3262.0;0.0;-1.0;-1.0;-1.0;-1.0;-1.0;100.0;0.0;0.0;0.0;0.0;0.0;0.0;0.0;0.0;0.0;0.0;0.0;0.0;0.0;0.0;196.0;60.0;6.40875;196.0;58.49100000000001;0.0;4.0;1.0;0.76837;-0.146252;-2.73473;0.76137;-0.133874;-2.72723;0.0759772;-0.219146;-0.0255217;0.291189;-1.3847;0.261857;0.0;0.0;0.0;0.0;0.0;0.0;0.0;0.0;0.0;0.0;675.0;224.0;1024.0;1024.0;1024.0;224.0;1024.0;1024.0;1024.0;1.0;4.0;0.0;0.0;0.0;0.0;0.0;;1970-01-01 00:00:00.143
3260.0;3263.0;0.0;-1.0;-1.0;-1.0;-1.0;-1.0;100.0;0.0;0.0;0.0;0.0;0.0;0.0;0.0;0.0;0.0;0.0;0.0;0.0;0.0;0.0;197.0;61.0;6.4172400000000005;196.28900000000002;59.2541;0.0;5.0;1.0;0.75825;-0.151887;-2.7257700000000002;0.76043;-0.139277;-2.7267900000000003;0.0348341;-0.21498;0.0499838;-2.04754;-0.292035;4.74253;0.0;0.0;0.0;0.0;0.0;0.0;0.0;0.0;0.0;0.0;675.0;224.0;1024.0;1024.0;1024.0;224.0;1024.0;1024.0;1024.0;1.0;4.0;0.0;0.0;0.0;0.0;0.0;;1970-01-01 00:00:00.154
3260.0;3263.0;0.0;-1.0;-1.0;-1.0;-1.0;-1.0;100.0;0.0;0.0;0.0;0.0;0.0;0.0;0.0;0.0;0.0;0.0;0.0;0.0;0.0;0.0;197.0;61.0;6.4172400000000005;196.28900000000002;59.2541;0.0;5.0;1.0;0.75825;-0.151887;-2.7257700000000002;0.76043;-0.139277;-2.7267900000000003;0.0348341;-0.21498;0.0499838;-2.04754;-0.292035;4.74253;0.0;0.0;0.0;0.0;0.0;0.0;0.0;0.0;0.0;0.0;675.0;224.0;1024.0;1024.0;1024.0;224.0;1024.0;1024.0;1024.0;1.0;4.0;0.0;0.0;0.0;0.0;0.0;;1970-01-01 00:00:00.165
3261.0;3264.0;0.0;-1.0;-1.0;-1.0;-1.0;-1.0;100.0;0.0;0.0;0.0;0.0;0.0;0.0;0.0;0.0;0.0;0.0;0.0;0.0;0.0;0.0;197.0;61.0;6.27925;196.49900000000002;59.8091;0.0;6.0;1.0;0.79689;-0.166212;-2.80325;0.77137;-0.147358;-2.74973;0.129983;-0.276351;-0.147876;0.9227479999999999;-1.36776;-1.32026;0.0;0.0;0.0;0.0;0.0;0.0;0.0;0.0;0.0;0.0;675.0;224.0;1024.0;1024.0;1024.0;224.0;1024.0;1024.0;1024.0;1.0;4.0;0.0;0.0;0.0;0.0;0.0;;1970-01-01 00:00:00.176
3262.0;3265.0;0.0;-1.0;-1.0;-1.0;-1.0;-1.0;100.0;0.0;0.0;0.0;0.0;0.0;0.0;0.0;0.0;0.0;0.0;0.0;0.0;0.0;0.0;197.0;62.0;6.48458;196.65200000000002;60.5042;0.0;7.0;1.0;0.7399899999999999;-0.151538;-2.68491;0.7619600000000001;-0.148612;-2.73028;0.167525;-0.320461;-0.23302399999999998;1.21715;-1.43061;-2.15273;0.0;0.0;0.0;0.0;0.0;0.0;0.0;0.0;0.0;0.0;675.0;224.0;1024.0;1024.0;1024.0;224.0;1024.0;1024.0;1024.0;1.0;4.0;0.0;0.0;0.0;0.0;0.0;;1970-01-01 00:00:00.187
3263.0;3266.0;0.0;-1.0;-1.0;-1.0;-1.0;-1.0;100.0;0.0;0.0;0.0;0.0;0.0;0.0;0.0;0.0;0.0;0.0;0.0;0.0;0.0;0.0;196.571;62.0;6.79253;196.64;61.0131;0.0;8.0;1.0;0.66425;-0.122;-2.52692;0.73265;-0.140628;-2.66928;0.013099799999999998;-0.270097;0.0640359;-2.80198;0.753836;5.21742;0.0;0.0;0.0;0.0;0.0;0.0;0.0;0.0;0.0;0.0;675.0;224.0;1024.0;1024.0;1024.0;224.0;1024.0;1024.0;1024.0;1.0;4.0;0.0;0.0;0.0;0.0;0.0;;1970-01-01 00:00:00.198
3263.0;3266.0;0.0;-1.0;-1.0;-1.0;-1.0;-1.0;100.0;0.0;0.0;0.0;0.0;0.0;0.0;0.0;0.0;0.0;0.0;0.0;0.0;0.0;0.0;196.571;62.0;6.79253;196.64;61.0131;0.0;8.0;1.0;0.66425;-0.122;-2.52692;0.73265;-0.140628;-2.66928;0.013099799999999998;-0.270097;0.0640359;-2.80198;0.753836;5.21742;0.0;0.0;0.0;0.0;0.0;0.0;0.0;0.0;0.0;0.0;675.0;224.0;1024.0;1024.0;1024.0;224.0;1024.0;1024.0;1024.0;1.0;4.0;0.0;0.0;0.0;0.0;0.0;;1970-01-01 00:00:00.209
3264.0;3267.0;0.0;-1.0;-1.0;-1.0;-1.0;-1.0;100.0;0.0;0.0;0.0;0.0;0.0;0.0;0.0;0.0;0.0;0.0;0.0;0.0;0.0;0.0;197.0;63.0;6.50536;196.75599999999997;61.6786;0.0;9.0;1.0;0.73443;-0.155859;-2.6695599999999997;0.73318;-0.145198;-2.6693599999999997;-0.09277569999999999;-0.228494;0.256781;-2.97186;1.31445;5.0454300000000005;0.0;0.0;0.0;0.0;0.0;0.0;0.0;0.0;0.0;0.0;675.0;224.0;1024.0;1024.0;1024.0;224.0;1024.0;1024.0;1024.0;1.0;4.0;0.0;0.0;0.0;0.0;0.0;;1970-01-01 00:00:00.220
3265.0;3268.0;0.0;-1.0;-1.0;-1.0;-1.0;-1.0;100.0;0.0;0.0;0.0;0.0;0.0;0.0;0.0;0.0;0.0;0.0;0.0;0.0;0.0;0.0;198.0;64.0;6.51423;197.137;62.4605;0.0;10.0;1.0;0.72441;-0.161359;-2.6606099999999997;0.73055;-0.150046;-2.6667400000000003;-0.17879;-0.201707;0.395752;-2.80095;0.8583430000000001;4.710319999999999;0.0;0.0;0.0;0.0;0.0;0.0;0.0;0.0;0.0;0.0;675.0;224.0;1024.0;1024.0;1024.0;224.0;1024.0;1024.0;1024.0;1.0;4.0;0.0;0.0;0.0;0.0;0.0;;1970-01-01 00:00:00.231
3265.0;3268.0;0.0;-1.0;-1.0;-1.0;-1.0;-1.0;100.0;0.0;0.0;0.0;0.0;0.0;0.0;0.0;0.0;0.0;0.0;0.0;0.0;0.0;0.0;198.0;64.0;6.51423;197.137;62.4605;0.0;10.0;1.0;0.72441;-0.161359;-2.6606099999999997;0.73055;-0.150046;-2.6667400000000003;-0.17879;-0.201707;0.395752;-2.80095;0.8583430000000001;4.710319999999999;0.0;0.0;0.0;0.0;0.0;0.0;0.0;0.0;0.0;0.0;675.0;224.0;1024.0;1024.0;1024.0;224.0;1024.0;1024.0;1024.0;1.0;4.0;0.0;0.0;0.0;0.0;0.0;;1970-01-01 00:00:00.242
3266.0;3269.0;0.0;-1.0;-1.0;-1.0;-1.0;-1.0;100.0;0.0;0.0;0.0;0.0;0.0;0.0;0.0;0.0;0.0;0.0;0.0;0.0;0.0;0.0;198.0;64.0;6.51423;197.16;62.5744;1.0;0.0;1.0;0.72441;-0.161359;-2.6606099999999997;0.73055;-0.150046;-2.6667400000000003;-0.17879;-0.201707;0.395752;-2.80095;0.8583430000000001;4.710319999999999;0.0;0.0;0.0;0.0;0.0;0.0;0.0;0.0;0.0;0.0;675.0;224.0;1024.0;1024.0;1024.0;224.0;1024.0;1024.0;1024.0;1.0;4.0;0.0;0.0;0.0;0.0;0.0;;1970-01-01 00:00:00.253
3267.0;3270.0;0.0;-1.0;-1.0;-1.0;-1.0;-1.0;100.0;0.0;0.0;0.0;0.0;0.0;0.0;0.0;0.0;0.0;0.0;0.0;0.0;0.0;0.0;198.0;66.0;6.51379;197.483;63.9144;0.0;1.0;1.0;0.72453;-0.174189;-2.6524;0.7287399999999999;-0.157289;-2.66244;-0.215785;-0.182698;0.45781499999999997;-2.5387299999999997;0.625544;4.222659999999999;0.0;0.0;0.0;0.0;0.0;0.0;0.0;0.0;0.0;0.0;675.0;224.0;1024.0;1024.0;1024.0;224.0;1024.0;1024.0;1024.0;1.0;4.0;0.0;0.0;0.0;0.0;0.0;;1970-01-01 00:00:00.264
3267.0;3270.0;0.0;-1.0;-1.0;-1.0;-1.0;-1.0;100.0;0.0;0.0;0.0;0.0;0.0;0.0;0.0;0.0;0.0;0.0;0.0;0.0;0.0;0.0;198.0;66.0;6.51379;197.483;63.9144;0.0;1.0;1.0;0.72453;-0.174189;-2.6524;0.7287399999999999;-0.157289;-2.66244;-0.215785;-0.182698;0.45781499999999997;-2.5387299999999997;0.625544;4.222659999999999;0.0;0.0;0.0;0.0;0.0;0.0;0.0;0.0;0.0;0.0;675.0;224.0;1024.0;1024.0;1024.0;224.0;1024.0;1024.0;1024.0;1.0;4.0;0.0;0.0;0.0;0.0;0.0;;1970-01-01 00:00:00.275
3268.0;3271.0;0.0;-1.0;-1.0;-1.0;-1.0;-1.0;100.0;0.0;0.0;0.0;0.0;0.0;0.0;0.0;0.0;0.0;0.0;0.0;0.0;0.0;0.0;198.0;66.0;6.52385;197.685;64.7519;0.0;2.0;1.0;0.72187;-0.173149;-2.64708;0.72668;-0.162047;-2.65783;-0.282491;-0.159916;0.589364;-2.9356;0.774012;5.05799;0.0;0.0;0.0;0.0;0.0;0.0;0.0;0.0;0.0;0.0;675.0;224.0;1024.0;1024.0;1024.0;224.0;1024.0;1024.0;1024.0;1.0;4.0;0.0;0.0;0.0;0.0;0.0;;1970-01-01 00:00:00.286
3269.0;3272.0;0.0;-1.0;-1.0;-1.0;-1.0;-1.0;100.0;0.0;0.0;0.0;0.0;0.0;0.0;0.0;0.0;0.0;0.0;0.0;0.0;0.0;0.0;197.333;66.6667;6.5942;197.61;65.5282;0.0;3.0;1.0;0.70854;-0.170178;-2.60753;0.72124;-0.164486;-2.6427400000000003;-0.308843;-0.150278;0.653235;-3.3916800000000005;1.04684;6.0679300000000005;0.0;0.0;0.0;0.0;0.0;0.0;0.0;0.0;0.0;0.0;675.0;224.0;1024.0;1024.0;1024.0;224.0;1024.0;1024.0;1024.0;1.0;4.0;0.0;0.0;0.0;0.0;0.0;;1970-01-01 00:00:00.297
3269.0;3272.0;0.0;-1.0;-1.0;-1.0;-1.0;-1.0;100.0;0.0;0.0;0.0;0.0;0.0;0.0;0.0;0.0;0.0;0.0;0.0;0.0;0.0;0.0;197.333;66.6667;6.5942;197.61;65.5282;0.0;3.0;1.0;0.70854;-0.170178;-2.60753;0.72124;-0.164486;-2.6427400000000003;-0.308843;-0.150278;0.653235;-3.3916800000000005;1.04684;6.0679300000000005;0.0;0.0;0.0;0.0;0.0;0.0;0.0;0.0;0.0;0.0;675.0;224.0;1024.0;1024.0;1024.0;224.0;1024.0;1024.0;1024.0;1.0;4.0;0.0;0.0;0.0;0.0;0.0;;1970-01-01 00:00:00.308
3270.0;3273.0;0.0;-1.0;-1.0;-1.0;-1.0;-1.0;100.0;0.0;0.0;0.0;0.0;0.0;0.0;0.0;0.0;0.0;0.0;0.0;0.0;0.0;0.0;198.0;68.0;6.650410000000001;197.764;66.485;0.0;4.0;1.0;0.6891;-0.17286300000000002;-2.57321;0.7116;-0.166999;-2.62188;-0.257338;-0.180418;0.55414;-2.96055;0.935018;5.31808;0.0;0.0;0.0;0.0;0.0;0.0;0.0;0.0;0.0;0.0;675.0;224.0;1024.0;1024.0;1024.0;224.0;1024.0;1024.0;1024.0;1.0;4.0;0.0;0.0;0.0;0.0;0.0;;1970-01-01 00:00:00.319
3271.0;3274.0;0.0;-1.0;-1.0;-1.0;-1.0;-1.0;100.0;0.0;0.0;0.0;0.0;0.0;0.0;0.0;0.0;0.0;0.0;0.0;0.0;0.0;0.0;198.0;68.0;6.8166899999999995;197.873;67.1646;0.0;5.0;1.0;0.6479;-0.156449;-2.49093;0.6924899999999999;-0.16383399999999998;-2.5826;-0.293674;-0.172034;0.6294270000000001;-2.46388;0.7542399999999999;4.46619;0.0;0.0;0.0;0.0;0.0;0.0;0.0;0.0;0.0;0.0;675.0;224.0;1024.0;1024.0;1024.0;224.0;1024.0;1024.0;1024.0;1.0;4.0;0.0;0.0;0.0;0.0;0.0;;1970-01-01 00:00:00.330
3271.0;3274.0;0.0;-1.0;-1.0;-1.0;-1.0;-1.0;100.0;0.0;0.0;0.0;0.0;0.0;0.0;0.0;0.0;0.0;0.0;0.0;0.0;0.0;0.0;198.0;68.0;6.8166899999999995;197.873;67.1646;0.0;5.0;1.0;0.6479;-0.156449;-2.49093;0.6924899999999999;-0.16383399999999998;-2.5826;-0.293674;-0.172034;0.6294270000000001;-2.46388;0.7542399999999999;4.46619;0.0;0.0;0.0;0.0;0.0;0.0;0.0;0.0;0.0;0.0;675.0;224.0;1024.0;1024.0;1024.0;224.0;1024.0;1024.0;1024.0;1.0;4.0;0.0;0.0;0.0;0.0;0.0;;1970-01-01 00:00:00.341
3272.0;3275.0;0.0;-1.0;-1.0;-1.0;-1.0;-1.0;100.0;0.0;0.0;0.0;0.0;0.0;0.0;0.0;0.0;0.0;0.0;0.0;0.0;0.0;0.0;199.0;69.0;6.65013;198.26;67.9573;0.0;6.0;1.0;0.68167;-0.179153;-2.56922;0.68924;-0.16843;-2.57858;-0.317579;-0.16613699999999998;0.679346;-1.9533200000000002;0.574279;3.6502800000000004;0.0;0.0;0.0;0.0;0.0;0.0;0.0;0.0;0.0;0.0;675.0;224.0;1024.0;1024.0;1024.0;224.0;1024.0;1024.0;1024.0;1.0;4.0;0.0;0.0;0.0;0.0;0.0;;1970-01-01 00:00:00.352
3273.0;3276.0;0.0;-1.0;-1.0;-1.0;-1.0;-1.0;100.0;0.0;0.0;0.0;0.0;0.0;0.0;0.0;0.0;0.0;0.0;0.0;0.0;0.0;0.0;199.0;70.0;6.66447;198.53900000000002;68.8334;0.0;7.0;1.0;0.67805;-0.18394000000000002;-2.55785;0.68588;-0.173083;-2.5723599999999998;-0.36167699999999997;-0.162745;0.767255;-1.7545099999999998;0.424237;3.4257;0.0;0.0;0.0;0.0;0.0;0.0;0.0;0.0;0.0;0.0;675.0;224.0;1024.0;1024.0;1024.0;224.0;1024.0;1024.0;1024.0;1.0;4.0;0.0;0.0;0.0;0.0;0.0;;1970-01-01 00:00:00.363
3274.0;3277.0;0.0;-1.0;-1.0;-1.0;-1.0;-1.0;100.0;0.0;0.0;0.0;0.0;0.0;0.0;0.0;0.0;0.0;0.0;0.0;0.0;0.0;0.0;199.0;71.0;6.93043;198.74;69.771;0.0;8.0;1.0;0.61365;-0.163702;-2.42502;0.66422;-0.170269;-2.5281599999999997;-0.46642100000000003;-0.130474;0.9781;-1.7871;0.37209699999999996;3.6075699999999995;0.0;0.0;0.0;0.0;0.0;0.0;0.0;0.0;0.0;0.0;675.0;224.0;1024.0;1024.0;1024.0;224.0;1024.0;1024.0;1024.0;1.0;4.0;0.0;0.0;0.0;0.0;0.0;;1970-01-01 00:00:00.374
3274.0;3277.0;0.0;-1.0;-1.0;-1.0;-1.0;-1.0;100.0;0.0;0.0;0.0;0.0;0.0;0.0;0.0;0.0;0.0;0.0;0.0;0.0;0.0;0.0;199.0;71.0;6.93043;198.74;69.771;0.0;8.0;1.0;0.61365;-0.163702;-2.42502;0.66422;-0.170269;-2.5281599999999997;-0.46642100000000003;-0.130474;0.9781;-1.7871;0.37209699999999996;3.6075699999999995;0.0;0.0;0.0;0.0;0.0;0.0;0.0;0.0;0.0;0.0;675.0;224.0;1024.0;1024.0;1024.0;224.0;1024.0;1024.0;1024.0;1.0;4.0;0.0;0.0;0.0;0.0;0.0;;1970-01-01 00:00:00.385
3275.0;3278.0;0.0;-1.0;-1.0;-1.0;-1.0;-1.0;100.0;0.0;0.0;0.0;0.0;0.0;0.0;0.0;0.0;0.0;0.0;0.0;0.0;0.0;0.0;199.0;71.0;6.93043;198.804;70.0634;1.0;0.0;1.0;0.61365;-0.163702;-2.42502;0.66422;-0.170269;-2.5281599999999997;-0.46642100000000003;-0.130474;0.9781;-1.7871;0.37209699999999996;3.6075699999999995;0.0;0.0;0.0;0.0;0.0;0.0;0.0;0.0;0.0;0.0;675.0;224.0;1024.0;1024.0;1024.0;224.0;1024.0;1024.0;1024.0;1.0;4.0;0.0;0.0;0.0;0.0;0.0;;1970-01-01 00:00:00.396
3276.0;3279.0;0.0;-1.0;-1.0;-1.0;-1.0;-1.0;100.0;0.0;0.0;0.0;0.0;0.0;0.0;0.0;0.0;0.0;0.0;0.0;0.0;0.0;0.0;201.0;73.0;6.59691;199.68900000000002;71.4538;0.0;1.0;1.0;0.68011;-0.209882;-2.57973;0.66898;-0.182153;-2.54363;-0.458697;-0.138745;0.926042;-1.58512;0.262728;3.09819;0.0;0.0;0.0;0.0;0.0;0.0;0.0;0.0;0.0;0.0;675.0;224.0;1024.0;1024.0;1024.0;224.0;1024.0;1024.0;1024.0;1.0;4.0;0.0;0.0;0.0;0.0;0.0;;1970-01-01 00:00:00.407
3276.0;3279.0;0.0;-1.0;-1.0;-1.0;-1.0;-1.0;100.0;0.0;0.0;0.0;0.0;0.0;0.0;0.0;0.0;0.0;0.0;0.0;0.0;0.0;0.0;201.0;73.0;6.59691;199.68900000000002;71.4538;0.0;1.0;1.0;0.68011;-0.209882;-2.57973;0.66898;-0.182153;-2.54363;-0.458697;-0.138745;0.926042;-1.58512;0.262728;3.09819;0.0;0.0;0.0;0.0;0.0;0.0;0.0;0.0;0.0;0.0;675.0;224.0;1024.0;1024.0;1024.0;224.0;1024.0;1024.0;1024.0;1.0;4.0;0.0;0.0;0.0;0.0;0.0;;1970-01-01 00:00:00.418
3277.0;3280.0;0.0;-1.0;-1.0;-1.0;-1.0;-1.0;100.0;0.0;0.0;0.0;0.0;0.0;0.0;0.0;0.0;0.0;0.0;0.0;0.0;0.0;0.0;201.0;73.0;7.10002;200.233;72.317;0.0;2.0;1.0;0.56105;-0.15958;-2.34024;0.6366;-0.17538099999999998;-2.4826200000000003;-0.531879;-0.11193199999999999;1.03225;-1.8906599999999998;0.392025;3.4952099999999997;0.0;0.0;0.0;0.0;0.0;0.0;0.0;0.0;0.0;0.0;675.0;224.0;1024.0;1024.0;1024.0;224.0;1024.0;1024.0;1024.0;1.0;4.0;0.0;0.0;0.0;0.0;0.0;;1970-01-01 00:00:00.429
3278.0;3281.0;0.0;-1.0;-1.0;-1.0;-1.0;-1.0;100.0;0.0;0.0;0.0;0.0;0.0;0.0;0.0;0.0;0.0;0.0;0.0;0.0;0.0;0.0;202.0;74.0;6.853339999999999;200.924;73.2219;0.0;3.0;1.0;0.6099600000000001;-0.189397;-2.4492599999999998;0.62861;-0.179585;-2.47261;-0.537738;-0.12106600000000001;0.995767;-1.96967;0.409646;3.35088;0.0;0.0;0.0;0.0;0.0;0.0;0.0;0.0;0.0;0.0;675.0;224.0;1024.0;1024.0;1024.0;224.0;1024.0;1024.0;1024.0;1.0;4.0;0.0;0.0;0.0;0.0;0.0;;1970-01-01 00:00:00.440
3278.0;3281.0;0.0;-1.0;-1.0;-1.0;-1.0;-1.0;100.0;0.0;0.0;0.0;0.0;0.0;0.0;0.0;0.0;0.0;0.0;0.0;0.0;0.0;0.0;202.0;74.0;6.853339999999999;200.924;73.2219;0.0;3.0;1.0;0.6099600000000001;-0.189397;-2.4492599999999998;0.62861;-0.179585;-2.47261;-0.537738;-0.12106600000000001;0.995767;-1.96967;0.409646;3.35088;0.0;0.0;0.0;0.0;0.0;0.0;0.0;0.0;0.0;0.0;675.0;224.0;1024.0;1024.0;1024.0;224.0;1024.0;1024.0;1024.0;1.0;4.0;0.0;0.0;0.0;0.0;0.0;;1970-01-01 00:00:00.451
3279.0;3282.0;0.0;-1.0;-1.0;-1.0;-1.0;-1.0;100.0;0.0;0.0;0.0;0.0;0.0;0.0;0.0;0.0;0.0;0.0;0.0;0.0;0.0;0.0;202.667;75.3333;7.008039999999999;201.61599999999999;74.2729;0.0;4.0;1.0;0.56968;-0.182101;-2.3723099999999997;0.61093;-0.18034;-2.44252;-0.590657;-0.113402;1.06313;-2.11639;0.42626899999999995;3.324;0.0;0.0;0.0;0.0;0.0;0.0;0.0;0.0;0.0;0.0;675.0;224.0;1024.0;1024.0;1024.0;224.0;1024.0;1024.0;1024.0;1.0;4.0;0.0;0.0;0.0;0.0;0.0;;1970-01-01 00:00:00.462
3280.0;3283.0;0.0;-1.0;-1.0;-1.0;-1.0;-1.0;100.0;0.0;0.0;0.0;0.0;0.0;0.0;0.0;0.0;0.0;0.0;0.0;0.0;0.0;0.0;202.667;75.3333;7.008039999999999;201.77;74.6727;1.0;0.0;1.0;0.56968;-0.182101;-2.3723099999999997;0.61093;-0.18034;-2.44252;-0.590657;-0.113402;1.06313;-2.11639;0.42626899999999995;3.324;0.0;0.0;0.0;0.0;0.0;0.0;0.0;0.0;0.0;0.0;675.0;224.0;1024.0;1024.0;1024.0;224.0;1024.0;1024.0;1024.0;1.0;4.0;0.0;0.0;0.0;0.0;0.0;;1970-01-01 00:00:00.473
3280.0;3283.0;0.0;-1.0;-1.0;-1.0;-1.0;-1.0;100.0;0.0;0.0;0.0;0.0;0.0;0.0;0.0;0.0;0.0;0.0;0.0;0.0;0.0;0.0;202.667;75.3333;7.008039999999999;201.77;74.6727;1.0;0.0;1.0;0.56968;-0.182101;-2.3723099999999997;0.61093;-0.18034;-2.44252;-0.590657;-0.113402;1.06313;-2.11639;0.42626899999999995;3.324;0.0;0.0;0.0;0.0;0.0;0.0;0.0;0.0;0.0;0.0;675.0;224.0;1024.0;1024.0;1024.0;224.0;1024.0;1024.0;1024.0;1.0;4.0;0.0;0.0;0.0;0.0;0.0;;1970-01-01 00:00:00.484
3281.0;3284.0;0.0;-1.0;-1.0;-1.0;-1.0;-1.0;100.0;0.0;0.0;0.0;0.0;0.0;0.0;0.0;0.0;0.0;0.0;0.0;0.0;0.0;0.0;203.333;76.6667;6.73948;202.52200000000002;75.8344;0.0;1.0;1.0;0.62729;-0.217521;-2.49328;0.6158399999999999;-0.191494;-2.45775;-0.564154;-0.123176;0.981109;-1.8761700000000001;0.374253;2.6348;0.0;0.0;0.0;0.0;0.0;0.0;0.0;0.0;0.0;0.0;675.0;224.0;1024.0;1024.0;1024.0;224.0;1024.0;1024.0;1024.0;1.0;4.0;0.0;0.0;0.0;0.0;0.0;;1970-01-01 00:00:00.495
3282.0;3285.0;0.0;-1.0;-1.0;-1.0;-1.0;-1.0;100.0;0.0;0.0;0.0;0.0;0.0;0.0;0.0;0.0;0.0;0.0;0.0;0.0;0.0;0.0;204.0;78.0;6.72075;203.215;77.0183;0.0;2.0;1.0;0.6268699999999999;-0.227782;-2.497;0.61915;-0.202381;-2.46952;-0.473448;-0.170068;0.764259;-1.1467399999999999;0.105985;0.9405190000000001;0.0;0.0;0.0;0.0;0.0;0.0;0.0;0.0;0.0;0.0;675.0;224.0;1024.0;1024.0;1024.0;224.0;1024.0;1024.0;1024.0;1.0;4.0;0.0;0.0;0.0;0.0;0.0;;1970-01-01 00:00:00.506
3282.0;3285.0;0.0;-1.0;-1.0;-1.0;-1.0;-1.0;100.0;0.0;0.0;0.0;0.0;0.0;0.0;0.0;0.0;0.0;0.0;0.0;0.0;0.0;0.0;204.0;78.0;6.72075;203.215;77.0183;0.0;2.0;1.0;0.6268699999999999;-0.227782;-2.497;0.61915;-0.202381;-2.46952;-0.473448;-0.170068;0.764259;-1.1467399999999999;0.105985;0.9405190000000001;0.0;0.0;0.0;0.0;0.0;0.0;0.0;0.0;0.0;0.0;675.0;224.0;1024.0;1024.0;1024.0;224.0;1024.0;1024.0;1024.0;1.0;4.0;0.0;0.0;0.0;0.0;0.0;;1970-01-01 00:00:00.517
3283.0;3286.0;0.0;-1.0;-1.0;-1.0;-1.0;-1.0;100.0;0.0;0.0;0.0;0.0;0.0;0.0;0.0;0.0;0.0;0.0;0.0;0.0;0.0;0.0;204.0;78.0;6.62;203.674;77.8035;0.0;3.0;1.0;0.65163;-0.238858;-2.54718;0.62889;-0.21332399999999999;-2.49282;-0.42126800000000003;-0.208722;0.632455;-0.559951;-0.175897;-0.44046199999999996;0.0;0.0;0.0;0.0;0.0;0.0;0.0;0.0;0.0;0.0;675.0;224.0;1024.0;1024.0;1024.0;224.0;1024.0;1024.0;1024.0;1.0;4.0;0.0;0.0;0.0;0.0;0.0;;1970-01-01 00:00:00.528
3284.0;3287.0;0.0;-1.0;-1.0;-1.0;-1.0;-1.0;100.0;0.0;0.0;0.0;0.0;0.0;0.0;0.0;0.0;0.0;0.0;0.0;0.0;0.0;0.0;205.0;79.0;6.5071699999999995;204.312;78.6633;0.0;4.0;1.0;0.6726;-0.258069;-2.6009900000000004;0.6420100000000001;-0.22674699999999998;-2.52527;-0.234271;-0.301029;0.23348899999999997;0.682555;-0.7527010000000001;-2.9979400000000003;0.0;0.0;0.0;0.0;0.0;0.0;0.0;0.0;0.0;0.0;675.0;224.0;1024.0;1024.0;1024.0;224.0;1024.0;1024.0;1024.0;1.0;4.0;0.0;0.0;0.0;0.0;0.0;;1970-01-01 00:00:00.539
3285.0;3288.0;0.0;-1.0;-1.0;-1.0;-1.0;-1.0;100.0;0.0;0.0;0.0;0.0;0.0;0.0;0.0;0.0;0.0;0.0;0.0;0.0;0.0;0.0;206.0;80.0;6.6726600000000005;205.078;79.5789;0.0;5.0;1.0;0.62364;-0.245508;-2.51252;0.6365;-0.23237600000000003;-2.52145;-0.113574;-0.36128699999999997;-0.027047;1.8611900000000001;-1.27376;-5.29925;0.0;0.0;0.0;0.0;0.0;0.0;0.0;0.0;0.0;0.0;675.0;224.0;1024.0;1024.0;1024.0;224.0;1024.0;1024.0;1024.0;1.0;4.0;0.0;0.0;0.0;0.0;0.0;;1970-01-01 00:00:00.550
3285.0;3288.0;0.0;-1.0;-1.0;-1.0;-1.0;-1.0;100.0;0.0;0.0;0.0;0.0;0.0;0.0;0.0;0.0;0.0;0.0;0.0;0.0;0.0;0.0;206.0;80.0;6.6726600000000005;205.078;79.5789;0.0;5.0;1.0;0.62364;-0.245508;-2.51252;0.6365;-0.23237600000000003;-2.52145;-0.113574;-0.36128699999999997;-0.027047;1.8611900000000001;-1.27376;-5.29925;0.0;0.0;0.0;0.0;0.0;0.0;0.0;0.0;0.0;0.0;675.0;224.0;1024.0;1024.0;1024.0;224.0;1024.0;1024.0;1024.0;1.0;4.0;0.0;0.0;0.0;0.0;0.0;;1970-01-01 00:00:00.561
3286.0;3289.0;0.0;-1.0;-1.0;-1.0;-1.0;-1.0;100.0;0.0;0.0;0.0;0.0;0.0;0.0;0.0;0.0;0.0;0.0;0.0;0.0;0.0;0.0;206.0;80.0;6.6726600000000005;205.326;80.0843;1.0;0.0;1.0;0.62364;-0.245508;-2.51252;0.6365;-0.23237600000000003;-2.52145;-0.113574;-0.36128699999999997;-0.027047;1.8611900000000001;-1.27376;-5.29925;0.0;0.0;0.0;0.0;0.0;0.0;0.0;0.0;0.0;0.0;675.0;224.0;1024.0;1024.0;1024.0;224.0;1024.0;1024.0;1024.0;1.0;4.0;0.0;0.0;0.0;0.0;0.0;;1970-01-01 00:00:00.572
3287.0;3290.0;0.0;-1.0;-1.0;-1.0;-1.0;-1.0;100.0;0.0;0.0;0.0;0.0;0.0;0.0;0.0;0.0;0.0;0.0;0.0;0.0;0.0;0.0;207.333;81.3333;6.56113;206.34400000000002;81.069;0.0;1.0;1.0;0.6411;-0.266644;-2.56324;0.63788;-0.24265599999999998;-2.53399;0.012554000000000001;-0.403383;-0.290136;2.92308;-1.63263;-7.23203;0.0;0.0;0.0;0.0;0.0;0.0;0.0;0.0;0.0;0.0;675.0;224.0;1024.0;1024.0;1024.0;224.0;1024.0;1024.0;1024.0;1.0;4.0;0.0;0.0;0.0;0.0;0.0;;1970-01-01 00:00:00.583
3287.0;3290.0;0.0;-1.0;-1.0;-1.0;-1.0;-1.0;100.0;0.0;0.0;0.0;0.0;0.0;0.0;0.0;0.0;0.0;0.0;0.0;0.0;0.0;0.0;207.333;81.3333;6.56113;206.34400000000002;81.069;0.0;1.0;1.0;0.6411;-0.266644;-2.56324;0.63788;-0.24265599999999998;-2.53399;0.012554000000000001;-0.403383;-0.290136;2.92308;-1.63263;-7.23203;0.0;0.0;0.0;0.0;0.0;0.0;0.0;0.0;0.0;0.0;675.0;224.0;1024.0;1024.0;1024.0;224.0;1024.0;1024.0;1024.0;1.0;4.0;0.0;0.0;0.0;0.0;0.0;;1970-01-01 00:00:00.594
3288.0;3291.0;0.0;-1.0;-1.0;-1.0;-1.0;-1.0;100.0;0.0;0.0;0.0;0.0;0.0;0.0;0.0;0.0;0.0;0.0;0.0;0.0;0.0;0.0;208.0;82.0;6.879589999999999;207.204;81.9201;0.0;2.0;1.0;0.5603;-0.23519099999999998;-2.40489;0.6146;-0.24041700000000002;-2.49526;0.00331146;-0.40946;-0.302462;3.69593;-1.95935;-8.73208;0.0;0.0;0.0;0.0;0.0;0.0;0.0;0.0;0.0;0.0;675.0;224.0;1024.0;1024.0;1024.0;224.0;1024.0;1024.0;1024.0;1.0;4.0;0.0;0.0;0.0;0.0;0.0;;1970-01-01 00:00:00.605
3289.0;3292.0;0.0;-1.0;-1.0;-1.0;-1.0;-1.0;100.0;0.0;0.0;0.0;0.0;0.0;0.0;0.0;0.0;0.0;0.0;0.0;0.0;0.0;0.0;209.0;83.0;6.5772;208.106;82.8189;0.0;3.0;1.0;0.62445;-0.275323;-2.54806;0.61756;-0.250889;-2.5111;-0.0034601;-0.411689;-0.323766;3.82605;-2.00253;-8.96291;0.0;0.0;0.0;0.0;0.0;0.0;0.0;0.0;0.0;0.0;675.0;224.0;1024.0;1024.0;1024.0;224.0;1024.0;1024.0;1024.0;1.0;4.0;0.0;0.0;0.0;0.0;0.0;;1970-01-01 00:00:00.616
3289.0;3292.0;0.0;-1.0;-1.0;-1.0;-1.0;-1.0;100.0;0.0;0.0;0.0;0.0;0.0;0.0;0.0;0.0;0.0;0.0;0.0;0.0;0.0;0.0;209.0;83.0;6.5772;208.106;82.8189;0.0;3.0;1.0;0.62445;-0.275323;-2.54806;0.61756;-0.250889;-2.5111;-0.0034601;-0.411689;-0.323766;3.82605;-2.00253;-8.96291;0.0;0.0;0.0;0.0;0.0;0.0;0.0;0.0;0.0;0.0;675.0;224.0;1024.0;1024.0;1024.0;224.0;1024.0;1024.0;1024.0;1.0;4.0;0.0;0.0;0.0;0.0;0.0;;1970-01-01 00:00:00.627
3290.0;3293.0;0.0;-1.0;-1.0;-1.0;-1.0;-1.0;100.0;0.0;0.0;0.0;0.0;0.0;0.0;0.0;0.0;0.0;0.0;0.0;0.0;0.0;0.0;210.0;84.0;7.07092;209.051;83.7568;0.0;4.0;1.0;0.5039600000000001;-0.22707600000000003;-2.31039;0.58348;-0.243745;-2.4508900000000002;-0.157503;-0.351125;-0.050752099999999994;3.19833;-1.68888;-7.71594;0.0;0.0;0.0;0.0;0.0;0.0;0.0;0.0;0.0;0.0;675.0;224.0;1024.0;1024.0;1024.0;224.0;1024.0;1024.0;1024.0;1.0;4.0;0.0;0.0;0.0;0.0;0.0;;1970-01-01 00:00:00.638
3291.0;3294.0;0.0;-1.0;-1.0;-1.0;-1.0;-1.0;100.0;0.0;0.0;0.0;0.0;0.0;0.0;0.0;0.0;0.0;0.0;0.0;0.0;0.0;0.0;211.0;85.0;7.0;210.03099999999998;84.7258;0.0;5.0;1.0;0.51207;-0.240392;-2.33798;0.56206;-0.24273899999999998;-2.41702;-0.36812;-0.265404;0.340042;1.46091;-0.891401;-4.2649;0.0;0.0;0.0;0.0;0.0;0.0;0.0;0.0;0.0;0.0;675.0;224.0;1024.0;1024.0;1024.0;224.0;1024.0;1024.0;1024.0;1.0;4.0;0.0;0.0;0.0;0.0;0.0;;1970-01-01 00:00:00.649
3291.0;3294.0;0.0;-1.0;-1.0;-1.0;-1.0;-1.0;100.0;0.0;0.0;0.0;0.0;0.0;0.0;0.0;0.0;0.0;0.0;0.0;0.0;0.0;0.0;211.0;85.0;7.0;210.03099999999998;84.7258;0.0;5.0;1.0;0.51207;-0.240392;-2.33798;0.56206;-0.24273899999999998;-2.41702;-0.36812;-0.265404;0.340042;1.46091;-0.891401;-4.2649;0.0;0.0;0.0;0.0;0.0;0.0;0.0;0.0;0.0;0.0;675.0;224.0;1024.0;1024.0;1024.0;224.0;1024.0;1024.0;1024.0;1.0;4.0;0.0;0.0;0.0;0.0;0.0;;1970-01-01 00:00:00.660
3292.0;3295.0;0.0;-1.0;-1.0;-1.0;-1.0;-1.0;100.0;0.0;0.0;0.0;0.0;0.0;0.0;0.0;0.0;0.0;0.0;0.0;0.0;0.0;0.0;212.0;86.0;6.52818;211.041;85.719;0.0;6.0;1.0;0.6137100000000001;-0.300282;-2.5605700000000002;0.57755;-0.260002;-2.46008;-0.422596;-0.253789;0.41403900000000005;-0.181042;-0.166942;-1.04938;0.0;0.0;0.0;0.0;0.0;0.0;0.0;0.0;0.0;0.0;675.0;224.0;1024.0;1024.0;1024.0;224.0;1024.0;1024.0;1024.0;1.0;4.0;0.0;0.0;0.0;0.0;0.0;;1970-01-01 00:00:00.671
3293.0;3296.0;0.0;-1.0;-1.0;-1.0;-1.0;-1.0;100.0;0.0;0.0;0.0;0.0;0.0;0.0;0.0;0.0;0.0;0.0;0.0;0.0;0.0;0.0;213.0;87.0;6.5613;212.071;86.7304;0.0;7.0;1.0;0.59796;-0.302589;-2.5394099999999997;0.58368;-0.272778;-2.48388;-0.469973;-0.272544;0.448481;-2.03526;0.42224799999999996;2.3195200000000002;0.0;0.0;0.0;0.0;0.0;0.0;0.0;0.0;0.0;0.0;675.0;224.0;1024.0;1024.0;1024.0;224.0;1024.0;1024.0;1024.0;1.0;4.0;0.0;0.0;0.0;0.0;0.0;;1970-01-01 00:00:00.682
3293.0;3296.0;0.0;-1.0;-1.0;-1.0;-1.0;-1.0;100.0;0.0;0.0;0.0;0.0;0.0;0.0;0.0;0.0;0.0;0.0;0.0;0.0;0.0;0.0;213.0;87.0;6.5613;212.071;86.7304;0.0;7.0;1.0;0.59796;-0.302589;-2.5394099999999997;0.58368;-0.272778;-2.48388;-0.469973;-0.272544;0.448481;-2.03526;0.42224799999999996;2.3195200000000002;0.0;0.0;0.0;0.0;0.0;0.0;0.0;0.0;0.0;0.0;675.0;224.0;1024.0;1024.0;1024.0;224.0;1024.0;1024.0;1024.0;1.0;4.0;0.0;0.0;0.0;0.0;0.0;;1970-01-01 00:00:00.693
3294.0;3297.0;0.0;-1.0;-1.0;-1.0;-1.0;-1.0;100.0;0.0;0.0;0.0;0.0;0.0;0.0;0.0;0.0;0.0;0.0;0.0;0.0;0.0;0.0;213.0;87.0;6.5613;212.505;87.351;1.0;0.0;1.0;0.59796;-0.302589;-2.5394099999999997;0.58368;-0.272778;-2.48388;-0.469973;-0.272544;0.448481;-2.03526;0.42224799999999996;2.3195200000000002;0.0;0.0;0.0;0.0;0.0;0.0;0.0;0.0;0.0;0.0;675.0;224.0;1024.0;1024.0;1024.0;224.0;1024.0;1024.0;1024.0;1.0;4.0;0.0;0.0;0.0;0.0;0.0;;1970-01-01 00:00:00.704
3295.0;3298.0;0.0;-1.0;-1.0;-1.0;-1.0;-1.0;100.0;0.0;0.0;0.0;0.0;0.0;0.0;0.0;0.0;0.0;0.0;0.0;0.0;0.0;0.0;213.0;87.0;6.5613;212.938;87.9716;2.0;0.0;1.0;0.59796;-0.302589;-2.5394099999999997;0.58368;-0.272778;-2.48388;-0.469973;-0.272544;0.448481;-2.03526;0.42224799999999996;2.3195200000000002;0.0;0.0;0.0;0.0;0.0;0.0;0.0;0.0;0.0;0.0;675.0;224.0;1024.0;1024.0;1024.0;224.0;1024.0;1024.0;1024.0;1.0;4.0;0.0;0.0;0.0;0.0;0.0;;1970-01-01 00:00:00.715
3296.0;3299.0;0.0;-1.0;-1.0;-1.0;-1.0;-1.0;100.0;0.0;0.0;0.0;0.0;0.0;0.0;0.0;0.0;0.0;0.0;0.0;0.0;0.0;0.0;216.0;88.0;6.6306;214.731;88.6049;0.0;1.0;1.0;0.5586800000000001;-0.300481;-2.5003599999999997;0.57618;-0.281089;-2.48883;-0.39705100000000004;-0.28532199999999996;0.288351;-2.42007;0.625088;3.16095;0.0;0.0;0.0;0.0;0.0;0.0;0.0;0.0;0.0;0.0;675.0;224.0;1024.0;1024.0;1024.0;224.0;1024.0;1024.0;1024.0;1.0;4.0;0.0;0.0;0.0;0.0;0.0;;1970-01-01 00:00:00.726
3296.0;3299.0;0.0;-1.0;-1.0;-1.0;-1.0;-1.0;100.0;0.0;0.0;0.0;0.0;0.0;0.0;0.0;0.0;0.0;0.0;0.0;0.0;0.0;0.0;216.0;88.0;6.6306;214.731;88.6049;0.0;1.0;1.0;0.5586800000000001;-0.300481;-2.5003599999999997;0.57618;-0.281089;-2.48883;-0.39705100000000004;-0.28532199999999996;0.288351;-2.42007;0.625088;3.16095;0.0;0.0;0.0;0.0;0.0;0.0;0.0;0.0;0.0;0.0;675.0;224.0;1024.0;1024.0;1024.0;224.0;1024.0;1024.0;1024.0;1.0;4.0;0.0;0.0;0.0;0.0;0.0;;1970-01-01 00:00:00.737
3297.0;3300.0;0.0;-1.0;-1.0;-1.0;-1.0;-1.0;100.0;0.0;0.0;0.0;0.0;0.0;0.0;0.0;0.0;0.0;0.0;0.0;0.0;0.0;0.0;217.0;89.0;6.54879;216.08;89.3755;0.0;2.0;1.0;0.5705399999999999;-0.316839;-2.5373900000000003;0.57449;-0.29181399999999996;-2.5034;-0.36721;-0.293748;0.196077;-2.5413200000000002;0.728238;3.45329;0.0;0.0;0.0;0.0;0.0;0.0;0.0;0.0;0.0;0.0;675.0;224.0;1024.0;1024.0;1024.0;224.0;1024.0;1024.0;1024.0;1.0;4.0;0.0;0.0;0.0;0.0;0.0;;1970-01-01 00:00:00.748
3298.0;3301.0;0.0;-1.0;-1.0;-1.0;-1.0;-1.0;100.0;0.0;0.0;0.0;0.0;0.0;0.0;0.0;0.0;0.0;0.0;0.0;0.0;0.0;0.0;217.0;89.0;7.043189999999999;216.926;89.8723;0.0;3.0;1.0;0.46029;-0.259502;-2.30313;0.54023;-0.28212;-2.44332;-0.349844;-0.291168;0.140322;-2.10078;0.6164890000000001;2.64416;0.0;0.0;0.0;0.0;0.0;0.0;0.0;0.0;0.0;0.0;675.0;224.0;1024.0;1024.0;1024.0;224.0;1024.0;1024.0;1024.0;1.0;4.0;0.0;0.0;0.0;0.0;0.0;;1970-01-01 00:00:00.759
3298.0;3301.0;0.0;-1.0;-1.0;-1.0;-1.0;-1.0;100.0;0.0;0.0;0.0;0.0;0.0;0.0;0.0;0.0;0.0;0.0;0.0;0.0;0.0;0.0;217.0;89.0;7.043189999999999;216.926;89.8723;0.0;3.0;1.0;0.46029;-0.259502;-2.30313;0.54023;-0.28212;-2.44332;-0.349844;-0.291168;0.140322;-2.10078;0.6164890000000001;2.64416;0.0;0.0;0.0;0.0;0.0;0.0;0.0;0.0;0.0;0.0;675.0;224.0;1024.0;1024.0;1024.0;224.0;1024.0;1024.0;1024.0;1.0;4.0;0.0;0.0;0.0;0.0;0.0;;1970-01-01 00:00:00.770
3299.0;3302.0;0.0;-1.0;-1.0;-1.0;-1.0;-1.0;100.0;0.0;0.0;0.0;0.0;0.0;0.0;0.0;0.0;0.0;0.0;0.0;0.0;0.0;0.0;218.0;90.0;6.699210000000001;217.82299999999998;90.5367;0.0;4.0;1.0;0.52782;-0.304715;-2.45835;0.53651;-0.28889899999999996;-2.4478299999999997;-0.286419;-0.31293000000000004;-0.00807343;-1.01581;0.22757;0.544034;0.0;0.0;0.0;0.0;0.0;0.0;0.0;0.0;0.0;0.0;675.0;224.0;1024.0;1024.0;1024.0;224.0;1024.0;1024.0;1024.0;1.0;4.0;0.0;0.0;0.0;0.0;0.0;;1970-01-01 00:00:00.781
3300.0;3303.0;0.0;-1.0;-1.0;-1.0;-1.0;-1.0;100.0;0.0;0.0;0.0;0.0;0.0;0.0;0.0;0.0;0.0;0.0;0.0;0.0;0.0;0.0;219.0;90.0;6.8781300000000005;218.76;90.9856;0.0;5.0;1.0;0.48083000000000004;-0.28378200000000003;-2.3736;0.5198;-0.287364;-2.42556;-0.344794;-0.269696;0.09853880000000001;-0.376498;0.0889076;-0.618371;0.0;0.0;0.0;0.0;0.0;0.0;0.0;0.0;0.0;0.0;675.0;224.0;1024.0;1024.0;1024.0;224.0;1024.0;1024.0;1024.0;1.0;4.0;0.0;0.0;0.0;0.0;0.0;;1970-01-01 00:00:00.792
3300.0;3303.0;0.0;-1.0;-1.0;-1.0;-1.0;-1.0;100.0;0.0;0.0;0.0;0.0;0.0;0.0;0.0;0.0;0.0;0.0;0.0;0.0;0.0;0.0;219.0;90.0;6.8781300000000005;218.76;90.9856;0.0;5.0;1.0;0.48083000000000004;-0.28378200000000003;-2.3736;0.5198;-0.287364;-2.42556;-0.344794;-0.269696;0.09853880000000001;-0.376498;0.0889076;-0.618371;0.0;0.0;0.0;0.0;0.0;0.0;0.0;0.0;0.0;0.0;675.0;224.0;1024.0;1024.0;1024.0;224.0;1024.0;1024.0;1024.0;1.0;4.0;0.0;0.0;0.0;0.0;0.0;;1970-01-01 00:00:00.803
3301.0;3304.0;0.0;-1.0;-1.0;-1.0;-1.0;-1.0;100.0;0.0;0.0;0.0;0.0;0.0;0.0;0.0;0.0;0.0;0.0;0.0;0.0;0.0;0.0;219.0;90.0;6.956060000000001;219.408;91.2845;0.0;6.0;1.0;0.46424;-0.275002;-2.3380400000000003;0.50313;-0.283655;-2.3993;-0.448072;-0.19439;0.312397;-0.16031600000000001;0.287382;-0.778539;0.0;0.0;0.0;0.0;0.0;0.0;0.0;0.0;0.0;0.0;675.0;224.0;1024.0;1024.0;1024.0;224.0;1024.0;1024.0;1024.0;1.0;4.0;0.0;0.0;0.0;0.0;0.0;;1970-01-01 00:00:00.814
3302.0;3305.0;0.0;-1.0;-1.0;-1.0;-1.0;-1.0;100.0;0.0;0.0;0.0;0.0;0.0;0.0;0.0;0.0;0.0;0.0;0.0;0.0;0.0;0.0;219.333;90.6667;6.65835;219.958;91.6895;0.0;7.0;1.0;0.5272100000000001;-0.313823;-2.4756;0.51036;-0.292705;-2.42219;-0.5316649999999999;-0.163017;0.453491;-0.633677;0.6607689999999999;0.192247;0.0;0.0;0.0;0.0;0.0;0.0;0.0;0.0;0.0;0.0;675.0;224.0;1024.0;1024.0;1024.0;224.0;1024.0;1024.0;1024.0;1.0;4.0;0.0;0.0;0.0;0.0;0.0;;1970-01-01 00:00:00.825
3302.0;3305.0;0.0;-1.0;-1.0;-1.0;-1.0;-1.0;100.0;0.0;0.0;0.0;0.0;0.0;0.0;0.0;0.0;0.0;0.0;0.0;0.0;0.0;0.0;219.333;90.6667;6.65835;219.958;91.6895;0.0;7.0;1.0;0.5272100000000001;-0.313823;-2.4756;0.51036;-0.292705;-2.42219;-0.5316649999999999;-0.163017;0.453491;-0.633677;0.6607689999999999;0.192247;0.0;0.0;0.0;0.0;0.0;0.0;0.0;0.0;0.0;0.0;675.0;224.0;1024.0;1024.0;1024.0;224.0;1024.0;1024.0;1024.0;1.0;4.0;0.0;0.0;0.0;0.0;0.0;;1970-01-01 00:00:00.836
3303.0;3306.0;0.0;-1.0;-1.0;-1.0;-1.0;-1.0;100.0;0.0;0.0;0.0;0.0;0.0;0.0;0.0;0.0;0.0;0.0;0.0;0.0;0.0;0.0;220.0;92.0;6.9323;220.544;92.3829;0.0;8.0;1.0;0.46206;-0.289671;-2.3408599999999997;0.49587;-0.29179499999999997;-2.39779;-0.632916;-0.0977355;0.693742;-1.4411200000000002;1.1791;2.10243;0.0;0.0;0.0;0.0;0.0;0.0;0.0;0.0;0.0;0.0;675.0;224.0;1024.0;1024.0;1024.0;224.0;1024.0;1024.0;1024.0;1.0;4.0;0.0;0.0;0.0;0.0;0.0;;1970-01-01 00:00:00.847
3304.0;3307.0;0.0;-1.0;-1.0;-1.0;-1.0;-1.0;100.0;0.0;0.0;0.0;0.0;0.0;0.0;0.0;0.0;0.0;0.0;0.0;0.0;0.0;0.0;220.0;92.0;6.905530000000001;220.94400000000002;92.8593;0.0;9.0;1.0;0.46771999999999997;-0.29273299999999997;-2.35304;0.48741999999999996;-0.292076;-2.38437;-0.590591;-0.09839389999999999;0.6516109999999999;-1.82592;1.47717;3.3029300000000004;0.0;0.0;0.0;0.0;0.0;0.0;0.0;0.0;0.0;0.0;675.0;224.0;1024.0;1024.0;1024.0;224.0;1024.0;1024.0;1024.0;1.0;4.0;0.0;0.0;0.0;0.0;0.0;;1970-01-01 00:00:00.858
3304.0;3307.0;0.0;-1.0;-1.0;-1.0;-1.0;-1.0;100.0;0.0;0.0;0.0;0.0;0.0;0.0;0.0;0.0;0.0;0.0;0.0;0.0;0.0;0.0;220.0;92.0;6.905530000000001;220.94400000000002;92.8593;0.0;9.0;1.0;0.46771999999999997;-0.29273299999999997;-2.35304;0.48741999999999996;-0.292076;-2.38437;-0.590591;-0.09839389999999999;0.6516109999999999;-1.82592;1.47717;3.3029300000000004;0.0;0.0;0.0;0.0;0.0;0.0;0.0;0.0;0.0;0.0;675.0;224.0;1024.0;1024.0;1024.0;224.0;1024.0;1024.0;1024.0;1.0;4.0;0.0;0.0;0.0;0.0;0.0;;1970-01-01 00:00:00.869
3305.0;3308.0;0.0;-1.0;-1.0;-1.0;-1.0;-1.0;100.0;0.0;0.0;0.0;0.0;0.0;0.0;0.0;0.0;0.0;0.0;0.0;0.0;0.0;0.0;220.0;92.0;6.905530000000001;221.51;93.4525;1.0;0.0;1.0;0.46771999999999997;-0.29273299999999997;-2.35304;0.48741999999999996;-0.292076;-2.38437;-0.590591;-0.09839389999999999;0.6516109999999999;-1.82592;1.47717;3.3029300000000004;0.0;0.0;0.0;0.0;0.0;0.0;0.0;0.0;0.0;0.0;675.0;224.0;1024.0;1024.0;1024.0;224.0;1024.0;1024.0;1024.0;1.0;4.0;0.0;0.0;0.0;0.0;0.0;;1970-01-01 00:00:00.880
3306.0;3309.0;0.0;-1.0;-1.0;-1.0;-1.0;-1.0;100.0;0.0;0.0;0.0;0.0;0.0;0.0;0.0;0.0;0.0;0.0;0.0;0.0;0.0;0.0;222.0;92.0;6.89395;222.265;93.4858;0.0;1.0;1.0;0.45571000000000006;-0.294065;-2.35834;0.47791000000000006;-0.292673;-2.37656;-0.554894;-0.0719532;0.6348729999999999;-2.01438;1.71102;4.182169999999999;0.0;0.0;0.0;0.0;0.0;0.0;0.0;0.0;0.0;0.0;675.0;224.0;1024.0;1024.0;1024.0;224.0;1024.0;1024.0;1024.0;1.0;4.0;0.0;0.0;0.0;0.0;0.0;;1970-01-01 00:00:00.891
3307.0;3310.0;0.0;-1.0;-1.0;-1.0;-1.0;-1.0;100.0;0.0;0.0;0.0;0.0;0.0;0.0;0.0;0.0;0.0;0.0;0.0;0.0;0.0;0.0;222.0;92.0;6.99023;222.745;93.53200000000001;0.0;2.0;1.0;0.43566000000000005;-0.283127;-2.3148400000000002;0.46524;-0.28980900000000004;-2.3580400000000004;-0.519686;-0.051541199999999995;0.611991;-1.80718;1.77322;4.26654;0.0;0.0;0.0;0.0;0.0;0.0;0.0;0.0;0.0;0.0;675.0;224.0;1024.0;1024.0;1024.0;224.0;1024.0;1024.0;1024.0;1.0;4.0;0.0;0.0;0.0;0.0;0.0;;1970-01-01 00:00:00.902
3307.0;3310.0;0.0;-1.0;-1.0;-1.0;-1.0;-1.0;100.0;0.0;0.0;0.0;0.0;0.0;0.0;0.0;0.0;0.0;0.0;0.0;0.0;0.0;0.0;222.0;92.0;6.99023;222.745;93.53200000000001;0.0;2.0;1.0;0.43566000000000005;-0.283127;-2.3148400000000002;0.46524;-0.28980900000000004;-2.3580400000000004;-0.519686;-0.051541199999999995;0.611991;-1.80718;1.77322;4.26654;0.0;0.0;0.0;0.0;0.0;0.0;0.0;0.0;0.0;0.0;675.0;224.0;1024.0;1024.0;1024.0;224.0;1024.0;1024.0;1024.0;1.0;4.0;0.0;0.0;0.0;0.0;0.0;;1970-01-01 00:00:00.913
3308.0;3311.0;0.0;-1.0;-1.0;-1.0;-1.0;-1.0;100.0;0.0;0.0;0.0;0.0;0.0;0.0;0.0;0.0;0.0;0.0;0.0;0.0;0.0;0.0;224.0;93.0;6.896310000000001;223.736;93.9003;0.0;3.0;1.0;0.44073999999999997;-0.299831;-2.35327;0.45788999999999996;-0.29281599999999997;-2.35661;-0.466657;-0.062275300000000006;0.513308;-1.14791;1.5160799999999999;3.24752;0.0;0.0;0.0;0.0;0.0;0.0;0.0;0.0;0.0;0.0;675.0;224.0;1024.0;1024.0;1024.0;224.0;1024.0;1024.0;1024.0;1.0;4.0;0.0;0.0;0.0;0.0;0.0;;1970-01-01 00:00:00.924
3309.0;3312.0;0.0;-1.0;-1.0;-1.0;-1.0;-1.0;100.0;0.0;0.0;0.0;0.0;0.0;0.0;0.0;0.0;0.0;0.0;0.0;0.0;0.0;0.0;225.0;94.0;6.79042;224.738;94.4721;0.0;4.0;1.0;0.45586000000000004;-0.31843699999999997;-2.39839;0.45728;-0.300502;-2.36915;-0.461638;-0.0640479;0.489533;-0.449087;1.2483600000000001;2.07186;0.0;0.0;0.0;0.0;0.0;0.0;0.0;0.0;0.0;0.0;675.0;224.0;1024.0;1024.0;1024.0;224.0;1024.0;1024.0;1024.0;1.0;4.0;0.0;0.0;0.0;0.0;0.0;;1970-01-01 00:00:00.935
3309.0;3312.0;0.0;-1.0;-1.0;-1.0;-1.0;-1.0;100.0;0.0;0.0;0.0;0.0;0.0;0.0;0.0;0.0;0.0;0.0;0.0;0.0;0.0;0.0;225.0;94.0;6.79042;224.738;94.4721;0.0;4.0;1.0;0.45586000000000004;-0.31843699999999997;-2.39839;0.45728;-0.300502;-2.36915;-0.461638;-0.0640479;0.489533;-0.449087;1.2483600000000001;2.07186;0.0;0.0;0.0;0.0;0.0;0.0;0.0;0.0;0.0;0.0;675.0;224.0;1024.0;1024.0;1024.0;224.0;1024.0;1024.0;1024.0;1.0;4.0;0.0;0.0;0.0;0.0;0.0;;1970-01-01 00:00:00.946
3310.0;3313.0;0.0;-1.0;-1.0;-1.0;-1.0;-1.0;100.0;0.0;0.0;0.0;0.0;0.0;0.0;0.0;0.0;0.0;0.0;0.0;0.0;0.0;0.0;225.0;94.0;7.289339999999999;225.428;94.8602;0.0;5.0;1.0;0.35622;-0.262419;-2.17948;0.42696000000000006;-0.289077;-2.31225;-0.512799;-0.029125799999999997;0.586497;0.14163199999999998;0.983826;0.876086;0.0;0.0;0.0;0.0;0.0;0.0;0.0;0.0;0.0;0.0;675.0;224.0;1024.0;1024.0;1024.0;224.0;1024.0;1024.0;1024.0;1.0;4.0;0.0;0.0;0.0;0.0;0.0;;1970-01-01 00:00:00.957
3311.0;3314.0;0.0;-1.0;-1.0;-1.0;-1.0;-1.0;100.0;0.0;0.0;0.0;0.0;0.0;0.0;0.0;0.0;0.0;0.0;0.0;0.0;0.0;0.0;226.0;94.0;6.71462;226.22099999999998;95.1181;0.0;6.0;1.0;0.46487;-0.327676;-2.4345;0.43833;-0.300657;-2.34892;-0.47568599999999994;-0.0468406;0.47320500000000004;0.47823000000000004;0.766732;-0.08492569999999999;0.0;0.0;0.0;0.0;0.0;0.0;0.0;0.0;0.0;0.0;675.0;224.0;1024.0;1024.0;1024.0;224.0;1024.0;1024.0;1024.0;1.0;4.0;0.0;0.0;0.0;0.0;0.0;;1970-01-01 00:00:00.968
3311.0;3314.0;0.0;-1.0;-1.0;-1.0;-1.0;-1.0;100.0;0.0;0.0;0.0;0.0;0.0;0.0;0.0;0.0;0.0;0.0;0.0;0.0;0.0;0.0;226.0;94.0;6.71462;226.22099999999998;95.1181;0.0;6.0;1.0;0.46487;-0.327676;-2.4345;0.43833;-0.300657;-2.34892;-0.47568599999999994;-0.0468406;0.47320500000000004;0.47823000000000004;0.766732;-0.08492569999999999;0.0;0.0;0.0;0.0;0.0;0.0;0.0;0.0;0.0;0.0;675.0;224.0;1024.0;1024.0;1024.0;224.0;1024.0;1024.0;1024.0;1.0;4.0;0.0;0.0;0.0;0.0;0.0;;1970-01-01 00:00:00.979
3312.0;3315.0;0.0;-1.0;-1.0;-1.0;-1.0;-1.0;100.0;0.0;0.0;0.0;0.0;0.0;0.0;0.0;0.0;0.0;0.0;0.0;0.0;0.0;0.0;228.0;95.0;7.0;227.408;95.6024;0.0;7.0;1.0;0.39089;-0.299881;-2.29871;0.4241;-0.30042399999999997;-2.33386;-0.500267;-0.059053499999999995;0.45442;0.505053;0.511545;-0.771469;0.0;0.0;0.0;0.0;0.0;0.0;0.0;0.0;0.0;0.0;675.0;224.0;1024.0;1024.0;1024.0;224.0;1024.0;1024.0;1024.0;1.0;4.0;0.0;0.0;0.0;0.0;0.0;;1970-01-01 00:00:00.990
3313.0;3316.0;0.0;-1.0;-1.0;-1.0;-1.0;-1.0;100.0;0.0;0.0;0.0;0.0;0.0;0.0;0.0;0.0;0.0;0.0;0.0;0.0;0.0;0.0;228.0;96.0;6.921139999999999;228.239;96.2498;0.0;8.0;1.0;0.40674;-0.315012;-2.3300400000000003;0.41889;-0.30480100000000004;-2.33271;-0.485208;-0.0952895;0.373786;0.440695;0.132249;-1.4139899999999999;0.0;0.0;0.0;0.0;0.0;0.0;0.0;0.0;0.0;0.0;675.0;224.0;1024.0;1024.0;1024.0;224.0;1024.0;1024.0;1024.0;1.0;4.0;0.0;0.0;0.0;0.0;0.0;;1970-01-01 00:00:01.001
3313.0;3316.0;0.0;-1.0;-1.0;-1.0;-1.0;-1.0;100.0;0.0;0.0;0.0;0.0;0.0;0.0;0.0;0.0;0.0;0.0;0.0;0.0;0.0;0.0;228.0;96.0;6.921139999999999;228.239;96.2498;0.0;8.0;1.0;0.40674;-0.315012;-2.3300400000000003;0.41889;-0.30480100000000004;-2.33271;-0.485208;-0.0952895;0.373786;0.440695;0.132249;-1.4139899999999999;0.0;0.0;0.0;0.0;0.0;0.0;0.0;0.0;0.0;0.0;675.0;224.0;1024.0;1024.0;1024.0;224.0;1024.0;1024.0;1024.0;1.0;4.0;0.0;0.0;0.0;0.0;0.0;;1970-01-01 00:00:01.012
3314.0;3317.0;0.0;-1.0;-1.0;-1.0;-1.0;-1.0;100.0;0.0;0.0;0.0;0.0;0.0;0.0;0.0;0.0;0.0;0.0;0.0;0.0;0.0;0.0;229.0;97.0;7.0984300000000005;229.132;97.0152;0.0;9.0;1.0;0.36457;-0.300523;-2.24799;0.4026;-0.303517;-2.3073;-0.511898;-0.0999033;0.42116899999999996;0.0837792;-0.0708918;-1.2162899999999999;0.0;0.0;0.0;0.0;0.0;0.0;0.0;0.0;0.0;0.0;675.0;224.0;1024.0;1024.0;1024.0;224.0;1024.0;1024.0;1024.0;1.0;4.0;0.0;0.0;0.0;0.0;0.0;;1970-01-01 00:00:01.023
3315.0;3318.0;0.0;-1.0;-1.0;-1.0;-1.0;-1.0;100.0;0.0;0.0;0.0;0.0;0.0;0.0;0.0;0.0;0.0;0.0;0.0;0.0;0.0;0.0;229.0;97.0;7.0984300000000005;229.793;97.5515;1.0;0.0;1.0;0.36457;-0.300523;-2.24799;0.4026;-0.303517;-2.3073;-0.511898;-0.0999033;0.42116899999999996;0.0837792;-0.0708918;-1.2162899999999999;0.0;0.0;0.0;0.0;0.0;0.0;0.0;0.0;0.0;0.0;675.0;224.0;1024.0;1024.0;1024.0;224.0;1024.0;1024.0;1024.0;1.0;4.0;0.0;0.0;0.0;0.0;0.0;;1970-01-01 00:00:01.034
3315.0;3318.0;0.0;-1.0;-1.0;-1.0;-1.0;-1.0;100.0;0.0;0.0;0.0;0.0;0.0;0.0;0.0;0.0;0.0;0.0;0.0;0.0;0.0;0.0;229.0;97.0;7.0984300000000005;229.793;97.5515;1.0;0.0;1.0;0.36457;-0.300523;-2.24799;0.4026;-0.303517;-2.3073;-0.511898;-0.0999033;0.42116899999999996;0.0837792;-0.0708918;-1.2162899999999999;0.0;0.0;0.0;0.0;0.0;0.0;0.0;0.0;0.0;0.0;675.0;224.0;1024.0;1024.0;1024.0;224.0;1024.0;1024.0;1024.0;1.0;4.0;0.0;0.0;0.0;0.0;0.0;;1970-01-01 00:00:01.045
3316.0;3319.0;0.0;-1.0;-1.0;-1.0;-1.0;-1.0;100.0;0.0;0.0;0.0;0.0;0.0;0.0;0.0;0.0;0.0;0.0;0.0;0.0;0.0;0.0;232.0;98.0;7.143730000000001;231.305;98.2609;0.0;1.0;1.0;0.33496;-0.301275;-2.2248099999999997;0.38231;-0.302845;-2.28255;-0.563732;-0.06796;0.549057;-0.299136;-0.055923900000000006;-0.526061;0.0;0.0;0.0;0.0;0.0;0.0;0.0;0.0;0.0;0.0;675.0;224.0;1024.0;1024.0;1024.0;224.0;1024.0;1024.0;1024.0;1.0;4.0;0.0;0.0;0.0;0.0;0.0;;1970-01-01 00:00:01.056
3317.0;3320.0;0.0;-1.0;-1.0;-1.0;-1.0;-1.0;100.0;0.0;0.0;0.0;0.0;0.0;0.0;0.0;0.0;0.0;0.0;0.0;0.0;0.0;0.0;234.0;100.0;6.8003;232.952;99.4174;0.0;2.0;1.0;0.38771;-0.35399;-2.3694900000000003;0.38393;-0.318188;-2.30863;-0.48552399999999996;-0.140407;0.34179699999999996;-0.08613430000000001;-0.41440200000000005;-1.1531;0.0;0.0;0.0;0.0;0.0;0.0;0.0;0.0;0.0;0.0;675.0;224.0;1024.0;1024.0;1024.0;224.0;1024.0;1024.0;1024.0;1.0;4.0;0.0;0.0;0.0;0.0;0.0;;1970-01-01 00:00:01.067
3318.0;3321.0;0.0;-1.0;-1.0;-1.0;-1.0;-1.0;100.0;0.0;0.0;0.0;0.0;0.0;0.0;0.0;0.0;0.0;0.0;0.0;0.0;0.0;0.0;234.0;100.0;7.1877;234.042;100.18299999999999;0.0;3.0;1.0;0.31290999999999997;-0.307962;-2.19866;0.36262;-0.31511999999999996;-2.27564;-0.550426;-0.133744;0.45587;-0.307469;-0.546058;-0.751188;0.0;0.0;0.0;0.0;0.0;0.0;0.0;0.0;0.0;0.0;675.0;224.0;1024.0;1024.0;1024.0;224.0;1024.0;1024.0;1024.0;1.0;4.0;0.0;0.0;0.0;0.0;0.0;;1970-01-01 00:00:01.078
3318.0;3321.0;0.0;-1.0;-1.0;-1.0;-1.0;-1.0;100.0;0.0;0.0;0.0;0.0;0.0;0.0;0.0;0.0;0.0;0.0;0.0;0.0;0.0;0.0;234.0;100.0;7.1877;234.042;100.18299999999999;0.0;3.0;1.0;0.31290999999999997;-0.307962;-2.19866;0.36262;-0.31511999999999996;-2.27564;-0.550426;-0.133744;0.45587;-0.307469;-0.546058;-0.751188;0.0;0.0;0.0;0.0;0.0;0.0;0.0;0.0;0.0;0.0;675.0;224.0;1024.0;1024.0;1024.0;224.0;1024.0;1024.0;1024.0;1.0;4.0;0.0;0.0;0.0;0.0;0.0;;1970-01-01 00:00:01.089
3319.0;3322.0;0.0;-1.0;-1.0;-1.0;-1.0;-1.0;100.0;0.0;0.0;0.0;0.0;0.0;0.0;0.0;0.0;0.0;0.0;0.0;0.0;0.0;0.0;235.0;101.0;6.8953;235.109;101.029;0.0;4.0;1.0;0.36135;-0.348263;-2.3218400000000003;0.36224;-0.325063;-2.2895;-0.5419619999999999;-0.164572;0.42533000000000004;-0.32718;-0.68876;-0.55027;0.0;0.0;0.0;0.0;0.0;0.0;0.0;0.0;0.0;0.0;675.0;224.0;1024.0;1024.0;1024.0;224.0;1024.0;1024.0;1024.0;1.0;4.0;0.0;0.0;0.0;0.0;0.0;;1970-01-01 00:00:01.100
3320.0;3323.0;0.0;-1.0;-1.0;-1.0;-1.0;-1.0;100.0;0.0;0.0;0.0;0.0;0.0;0.0;0.0;0.0;0.0;0.0;0.0;0.0;0.0;0.0;238.0;102.0;6.851089999999999;236.81099999999998;101.93299999999999;0.0;5.0;1.0;0.34829;-0.35981599999999997;-2.33797;0.35805;-0.335489;-2.30404;-0.5333829999999999;-0.20377;0.353323;-0.361181;-0.784519;-0.40019499999999997;0.0;0.0;0.0;0.0;0.0;0.0;0.0;0.0;0.0;0.0;675.0;224.0;1024.0;1024.0;1024.0;224.0;1024.0;1024.0;1024.0;1.0;4.0;0.0;0.0;0.0;0.0;0.0;;1970-01-01 00:00:01.111
3320.0;3323.0;0.0;-1.0;-1.0;-1.0;-1.0;-1.0;100.0;0.0;0.0;0.0;0.0;0.0;0.0;0.0;0.0;0.0;0.0;0.0;0.0;0.0;0.0;238.0;102.0;6.851089999999999;236.81099999999998;101.93299999999999;0.0;5.0;1.0;0.34829;-0.35981599999999997;-2.33797;0.35805;-0.335489;-2.30404;-0.5333829999999999;-0.20377;0.353323;-0.361181;-0.784519;-0.40019499999999997;0.0;0.0;0.0;0.0;0.0;0.0;0.0;0.0;0.0;0.0;675.0;224.0;1024.0;1024.0;1024.0;224.0;1024.0;1024.0;1024.0;1.0;4.0;0.0;0.0;0.0;0.0;0.0;;1970-01-01 00:00:01.122
3321.0;3324.0;0.0;-1.0;-1.0;-1.0;-1.0;-1.0;100.0;0.0;0.0;0.0;0.0;0.0;0.0;0.0;0.0;0.0;0.0;0.0;0.0;0.0;0.0;238.0;102.0;6.851089999999999;237.618;102.537;1.0;0.0;1.0;0.34829;-0.35981599999999997;-2.33797;0.35805;-0.335489;-2.30404;-0.5333829999999999;-0.20377;0.353323;-0.361181;-0.784519;-0.40019499999999997;0.0;0.0;0.0;0.0;0.0;0.0;0.0;0.0;0.0;0.0;675.0;224.0;1024.0;1024.0;1024.0;224.0;1024.0;1024.0;1024.0;1.0;4.0;0.0;0.0;0.0;0.0;0.0;;1970-01-01 00:00:01.133
3322.0;3325.0;0.0;-1.0;-1.0;-1.0;-1.0;-1.0;100.0;0.0;0.0;0.0;0.0;0.0;0.0;0.0;0.0;0.0;0.0;0.0;0.0;0.0;0.0;239.333;102.667;6.86965;239.088;103.189;0.0;1.0;1.0;0.33496;-0.361534;-2.32682;0.35113;-0.343302;-2.31088;-0.47421499999999994;-0.241444;0.201273;-0.103824;-0.8947129999999999;-0.898842;0.0;0.0;0.0;0.0;0.0;0.0;0.0;0.0;0.0;0.0;675.0;224.0;1024.0;1024.0;1024.0;224.0;1024.0;1024.0;1024.0;1.0;4.0;0.0;0.0;0.0;0.0;0.0;;1970-01-01 00:00:01.144
3322.0;3325.0;0.0;-1.0;-1.0;-1.0;-1.0;-1.0;100.0;0.0;0.0;0.0;0.0;0.0;0.0;0.0;0.0;0.0;0.0;0.0;0.0;0.0;0.0;239.333;102.667;6.86965;239.088;103.189;0.0;1.0;1.0;0.33496;-0.361534;-2.32682;0.35113;-0.343302;-2.31088;-0.47421499999999994;-0.241444;0.201273;-0.103824;-0.8947129999999999;-0.898842;0.0;0.0;0.0;0.0;0.0;0.0;0.0;0.0;0.0;0.0;675.0;224.0;1024.0;1024.0;1024.0;224.0;1024.0;1024.0;1024.0;1.0;4.0;0.0;0.0;0.0;0.0;0.0;;1970-01-01 00:00:01.155
3323.0;3326.0;0.0;-1.0;-1.0;-1.0;-1.0;-1.0;100.0;0.0;0.0;0.0;0.0;0.0;0.0;0.0;0.0;0.0;0.0;0.0;0.0;0.0;0.0;241.0;103.0;7.04513;240.59900000000002;103.728;0.0;2.0;1.0;0.2899;-0.342044;-2.24764;0.33276;-0.342925;-2.2919;-0.454168;-0.282092;0.088745;0.31282600000000005;-1.26997;-2.11531;0.0;0.0;0.0;0.0;0.0;0.0;0.0;0.0;0.0;0.0;675.0;224.0;1024.0;1024.0;1024.0;224.0;1024.0;1024.0;1024.0;1.0;4.0;0.0;0.0;0.0;0.0;0.0;;1970-01-01 00:00:01.166
3324.0;3327.0;0.0;-1.0;-1.0;-1.0;-1.0;-1.0;100.0;0.0;0.0;0.0;0.0;0.0;0.0;0.0;0.0;0.0;0.0;0.0;0.0;0.0;0.0;241.0;103.0;7.04513;241.46400000000003;104.331;1.0;0.0;1.0;0.2899;-0.342044;-2.24764;0.33276;-0.342925;-2.2919;-0.454168;-0.282092;0.088745;0.31282600000000005;-1.26997;-2.11531;0.0;0.0;0.0;0.0;0.0;0.0;0.0;0.0;0.0;0.0;675.0;224.0;1024.0;1024.0;1024.0;224.0;1024.0;1024.0;1024.0;1.0;4.0;0.0;0.0;0.0;0.0;0.0;;1970-01-01 00:00:01.177
3324.0;3327.0;0.0;-1.0;-1.0;-1.0;-1.0;-1.0;100.0;0.0;0.0;0.0;0.0;0.0;0.0;0.0;0.0;0.0;0.0;0.0;0.0;0.0;0.0;241.0;103.0;7.04513;241.46400000000003;104.331;1.0;0.0;1.0;0.2899;-0.342044;-2.24764;0.33276;-0.342925;-2.2919;-0.454168;-0.282092;0.088745;0.31282600000000005;-1.26997;-2.11531;0.0;0.0;0.0;0.0;0.0;0.0;0.0;0.0;0.0;0.0;675.0;224.0;1024.0;1024.0;1024.0;224.0;1024.0;1024.0;1024.0;1.0;4.0;0.0;0.0;0.0;0.0;0.0;;1970-01-01 00:00:01.188
3325.0;3328.0;0.0;-1.0;-1.0;-1.0;-1.0;-1.0;100.0;0.0;0.0;0.0;0.0;0.0;0.0;0.0;0.0;0.0;0.0;0.0;0.0;0.0;0.0;244.0;105.0;7.1155;243.34599999999998;105.20200000000001;0.0;1.0;1.0;0.25611;-0.345421;-2.2097700000000002;0.30976;-0.343674;-2.26726;-0.49466800000000005;-0.245601;0.177177;0.160303;-1.0771;-1.76233;0.0;0.0;0.0;0.0;0.0;0.0;0.0;0.0;0.0;0.0;675.0;224.0;1024.0;1024.0;1024.0;224.0;1024.0;1024.0;1024.0;1.0;4.0;0.0;0.0;0.0;0.0;0.0;;1970-01-01 00:00:01.199
3326.0;3329.0;0.0;-1.0;-1.0;-1.0;-1.0;-1.0;100.0;0.0;0.0;0.0;0.0;0.0;0.0;0.0;0.0;0.0;0.0;0.0;0.0;0.0;0.0;244.0;105.0;7.33815;244.489;105.744;0.0;2.0;1.0;0.21799000000000002;-0.319771;-2.11845;0.28223000000000004;-0.336503;-2.22262;-0.537621;-0.21141500000000002;0.265146;0.13454000000000002;-0.8789370000000001;-1.6287399999999999;0.0;0.0;0.0;0.0;0.0;0.0;0.0;0.0;0.0;0.0;675.0;224.0;1024.0;1024.0;1024.0;224.0;1024.0;1024.0;1024.0;1.0;4.0;0.0;0.0;0.0;0.0;0.0;;1970-01-01 00:00:01.210
3326.0;3329.0;0.0;-1.0;-1.0;-1.0;-1.0;-1.0;100.0;0.0;0.0;0.0;0.0;0.0;0.0;0.0;0.0;0.0;0.0;0.0;0.0;0.0;0.0;244.0;105.0;7.33815;244.489;105.744;0.0;2.0;1.0;0.21799000000000002;-0.319771;-2.11845;0.28223000000000004;-0.336503;-2.22262;-0.537621;-0.21141500000000002;0.265146;0.13454000000000002;-0.8789370000000001;-1.6287399999999999;0.0;0.0;0.0;0.0;0.0;0.0;0.0;0.0;0.0;0.0;675.0;224.0;1024.0;1024.0;1024.0;224.0;1024.0;1024.0;1024.0;1.0;4.0;0.0;0.0;0.0;0.0;0.0;;1970-01-01 00:00:01.221
3327.0;3330.0;0.0;-1.0;-1.0;-1.0;-1.0;-1.0;100.0;0.0;0.0;0.0;0.0;0.0;0.0;0.0;0.0;0.0;0.0;0.0;0.0;0.0;0.0;244.0;105.0;7.33815;245.407;106.355;1.0;0.0;1.0;0.21799000000000002;-0.319771;-2.11845;0.28223000000000004;-0.336503;-2.22262;-0.537621;-0.21141500000000002;0.265146;0.13454000000000002;-0.8789370000000001;-1.6287399999999999;0.0;0.0;0.0;0.0;0.0;0.0;0.0;0.0;0.0;0.0;675.0;224.0;1024.0;1024.0;1024.0;224.0;1024.0;1024.0;1024.0;1.0;4.0;0.0;0.0;0.0;0.0;0.0;;1970-01-01 00:00:01.232
3328.0;3331.0;0.0;-1.0;-1.0;-1.0;-1.0;-1.0;100.0;0.0;0.0;0.0;0.0;0.0;0.0;0.0;0.0;0.0;0.0;0.0;0.0;0.0;0.0;246.0;106.0;7.261189999999999;246.565;106.823;0.0;1.0;1.0;0.21716;-0.334194;-2.1456;0.26271;-0.33581;-2.19951;-0.587591;-0.15546500000000002;0.398698;-0.0407692;-0.503115;-1.04816;0.0;0.0;0.0;0.0;0.0;0.0;0.0;0.0;0.0;0.0;675.0;224.0;1024.0;1024.0;1024.0;224.0;1024.0;1024.0;1024.0;1.0;4.0;0.0;0.0;0.0;0.0;0.0;;1970-01-01 00:00:01.243
3329.0;3332.0;0.0;-1.0;-1.0;-1.0;-1.0;-1.0;100.0;0.0;0.0;0.0;0.0;0.0;0.0;0.0;0.0;0.0;0.0;0.0;0.0;0.0;0.0;248.0;106.0;7.065919999999999;248.01;107.132;0.0;2.0;1.0;0.23667;-0.357248;-2.227;0.2549;-0.342242;-2.20776;-0.6272260000000001;-0.111259;0.495591;-0.274337;-0.0555404;-0.250077;0.0;0.0;0.0;0.0;0.0;0.0;0.0;0.0;0.0;0.0;675.0;224.0;1024.0;1024.0;1024.0;224.0;1024.0;1024.0;1024.0;1.0;4.0;0.0;0.0;0.0;0.0;0.0;;1970-01-01 00:00:01.254
3329.0;3332.0;0.0;-1.0;-1.0;-1.0;-1.0;-1.0;100.0;0.0;0.0;0.0;0.0;0.0;0.0;0.0;0.0;0.0;0.0;0.0;0.0;0.0;0.0;248.0;106.0;7.065919999999999;248.01;107.132;0.0;2.0;1.0;0.23667;-0.357248;-2.227;0.2549;-0.342242;-2.20776;-0.6272260000000001;-0.111259;0.495591;-0.274337;-0.0555404;-0.250077;0.0;0.0;0.0;0.0;0.0;0.0;0.0;0.0;0.0;0.0;675.0;224.0;1024.0;1024.0;1024.0;224.0;1024.0;1024.0;1024.0;1.0;4.0;0.0;0.0;0.0;0.0;0.0;;1970-01-01 00:00:01.265
3330.0;3333.0;0.0;-1.0;-1.0;-1.0;-1.0;-1.0;100.0;0.0;0.0;0.0;0.0;0.0;0.0;0.0;0.0;0.0;0.0;0.0;0.0;0.0;0.0;248.0;106.0;7.065919999999999;248.96099999999998;107.72399999999999;1.0;0.0;1.0;0.23667;-0.357248;-2.227;0.2549;-0.342242;-2.20776;-0.6272260000000001;-0.111259;0.495591;-0.274337;-0.0555404;-0.250077;0.0;0.0;0.0;0.0;0.0;0.0;0.0;0.0;0.0;0.0;675.0;224.0;1024.0;1024.0;1024.0;224.0;1024.0;1024.0;1024.0;1.0;4.0;0.0;0.0;0.0;0.0;0.0;;1970-01-01 00:00:01.276
3331.0;3334.0;0.0;-1.0;-1.0;-1.0;-1.0;-1.0;100.0;0.0;0.0;0.0;0.0;0.0;0.0;0.0;0.0;0.0;0.0;0.0;0.0;0.0;0.0;249.333;107.333;6.9469199999999995;250.062;108.15899999999999;0.0;1.0;1.0;0.24828000000000003;-0.379924;-2.27357;0.25290999999999997;-0.353546;-2.2275;-0.6377659999999999;-0.0940242;0.519284;-0.599957;0.359089;0.696459;0.0;0.0;0.0;0.0;0.0;0.0;0.0;0.0;0.0;0.0;675.0;224.0;1024.0;1024.0;1024.0;224.0;1024.0;1024.0;1024.0;1.0;4.0;0.0;0.0;0.0;0.0;0.0;;1970-01-01 00:00:01.287
3331.0;3334.0;0.0;-1.0;-1.0;-1.0;-1.0;-1.0;100.0;0.0;0.0;0.0;0.0;0.0;0.0;0.0;0.0;0.0;0.0;0.0;0.0;0.0;0.0;249.333;107.333;6.9469199999999995;250.062;108.15899999999999;0.0;1.0;1.0;0.24828000000000003;-0.379924;-2.27357;0.25290999999999997;-0.353546;-2.2275;-0.6377659999999999;-0.0940242;0.519284;-0.599957;0.359089;0.696459;0.0;0.0;0.0;0.0;0.0;0.0;0.0;0.0;0.0;0.0;675.0;224.0;1024.0;1024.0;1024.0;224.0;1024.0;1024.0;1024.0;1.0;4.0;0.0;0.0;0.0;0.0;0.0;;1970-01-01 00:00:01.298
3332.0;3335.0;0.0;-1.0;-1.0;-1.0;-1.0;-1.0;100.0;0.0;0.0;0.0;0.0;0.0;0.0;0.0;0.0;0.0;0.0;0.0;0.0;0.0;0.0;250.667;107.333;7.38773;251.237;108.447;0.0;2.0;1.0;0.16479000000000002;-0.327421;-2.09018;0.22648000000000001;-0.345709;-2.1863099999999998;-0.665568;-0.0638247;0.592659;-0.92269;0.796449;1.75922;0.0;0.0;0.0;0.0;0.0;0.0;0.0;0.0;0.0;0.0;675.0;224.0;1024.0;1024.0;1024.0;224.0;1024.0;1024.0;1024.0;1.0;4.0;0.0;0.0;0.0;0.0;0.0;;1970-01-01 00:00:01.309
3333.0;3336.0;0.0;-1.0;-1.0;-1.0;-1.0;-1.0;100.0;0.0;0.0;0.0;0.0;0.0;0.0;0.0;0.0;0.0;0.0;0.0;0.0;0.0;0.0;250.667;107.333;7.38773;252.202;109.02;1.0;0.0;1.0;0.16479000000000002;-0.327421;-2.09018;0.22648000000000001;-0.345709;-2.1863099999999998;-0.665568;-0.0638247;0.592659;-0.92269;0.796449;1.75922;0.0;0.0;0.0;0.0;0.0;0.0;0.0;0.0;0.0;0.0;675.0;224.0;1024.0;1024.0;1024.0;224.0;1024.0;1024.0;1024.0;1.0;4.0;0.0;0.0;0.0;0.0;0.0;;1970-01-01 00:00:01.320
3333.0;3336.0;0.0;-1.0;-1.0;-1.0;-1.0;-1.0;100.0;0.0;0.0;0.0;0.0;0.0;0.0;0.0;0.0;0.0;0.0;0.0;0.0;0.0;0.0;250.667;107.333;7.38773;252.202;109.02;1.0;0.0;1.0;0.16479000000000002;-0.327421;-2.09018;0.22648000000000001;-0.345709;-2.1863099999999998;-0.665568;-0.0638247;0.592659;-0.92269;0.796449;1.75922;0.0;0.0;0.0;0.0;0.0;0.0;0.0;0.0;0.0;0.0;675.0;224.0;1024.0;1024.0;1024.0;224.0;1024.0;1024.0;1024.0;1.0;4.0;0.0;0.0;0.0;0.0;0.0;;1970-01-01 00:00:01.331
3334.0;3337.0;0.0;-1.0;-1.0;-1.0;-1.0;-1.0;100.0;0.0;0.0;0.0;0.0;0.0;0.0;0.0;0.0;0.0;0.0;0.0;0.0;0.0;0.0;253.0;109.0;6.68205;253.49099999999999;109.586;0.0;1.0;1.0;0.27038;-0.425191;-2.38855;0.23965;-0.369554;-2.2469799999999998;-0.5859800000000001;-0.10718299999999999;0.40959;-0.796672;0.8463200000000001;1.67419;0.0;0.0;0.0;0.0;0.0;0.0;0.0;0.0;0.0;0.0;675.0;224.0;1024.0;1024.0;1024.0;224.0;1024.0;1024.0;1024.0;1.0;4.0;0.0;0.0;0.0;0.0;0.0;;1970-01-01 00:00:01.342
3335.0;3338.0;0.0;-1.0;-1.0;-1.0;-1.0;-1.0;100.0;0.0;0.0;0.0;0.0;0.0;0.0;0.0;0.0;0.0;0.0;0.0;0.0;0.0;0.0;253.0;109.0;7.18266;254.293;109.947;0.0;2.0;1.0;0.18184;-0.360708;-2.1663200000000002;0.2223;-0.3669;-2.2227799999999998;-0.5111100000000001;-0.145223;0.245324;-0.407433;0.683988;0.9517469999999999;0.0;0.0;0.0;0.0;0.0;0.0;0.0;0.0;0.0;0.0;675.0;224.0;1024.0;1024.0;1024.0;224.0;1024.0;1024.0;1024.0;1.0;4.0;0.0;0.0;0.0;0.0;0.0;;1970-01-01 00:00:01.353
3335.0;3338.0;0.0;-1.0;-1.0;-1.0;-1.0;-1.0;100.0;0.0;0.0;0.0;0.0;0.0;0.0;0.0;0.0;0.0;0.0;0.0;0.0;0.0;0.0;253.0;109.0;7.18266;254.293;109.947;0.0;2.0;1.0;0.18184;-0.360708;-2.1663200000000002;0.2223;-0.3669;-2.2227799999999998;-0.5111100000000001;-0.145223;0.245324;-0.407433;0.683988;0.9517469999999999;0.0;0.0;0.0;0.0;0.0;0.0;0.0;0.0;0.0;0.0;675.0;224.0;1024.0;1024.0;1024.0;224.0;1024.0;1024.0;1024.0;1.0;4.0;0.0;0.0;0.0;0.0;0.0;;1970-01-01 00:00:01.364
3336.0;3339.0;0.0;-1.0;-1.0;-1.0;-1.0;-1.0;100.0;0.0;0.0;0.0;0.0;0.0;0.0;0.0;0.0;0.0;0.0;0.0;0.0;0.0;0.0;254.667;109.333;7.1648;255.392;110.303;0.0;3.0;1.0;0.17317000000000002;-0.36479;-2.17243;0.20756999999999998;-0.366267;-2.20768;-0.47180500000000003;-0.178339;0.12274600000000001;0.102273;0.34189400000000003;-0.255319;0.0;0.0;0.0;0.0;0.0;0.0;0.0;0.0;0.0;0.0;675.0;224.0;1024.0;1024.0;1024.0;224.0;1024.0;1024.0;1024.0;1.0;4.0;0.0;0.0;0.0;0.0;0.0;;1970-01-01 00:00:01.375
3337.0;3340.0;0.0;-1.0;-1.0;-1.0;-1.0;-1.0;100.0;0.0;0.0;0.0;0.0;0.0;0.0;0.0;0.0;0.0;0.0;0.0;0.0;0.0;0.0;254.667;109.333;7.1648;256.37;110.85799999999999;1.0;0.0;1.0;0.17317000000000002;-0.36479;-2.17243;0.20756999999999998;-0.366267;-2.20768;-0.47180500000000003;-0.178339;0.12274600000000001;0.102273;0.34189400000000003;-0.255319;0.0;0.0;0.0;0.0;0.0;0.0;0.0;0.0;0.0;0.0;675.0;224.0;1024.0;1024.0;1024.0;224.0;1024.0;1024.0;1024.0;1.0;4.0;0.0;0.0;0.0;0.0;0.0;;1970-01-01 00:00:01.386
3337.0;3340.0;0.0;-1.0;-1.0;-1.0;-1.0;-1.0;100.0;0.0;0.0;0.0;0.0;0.0;0.0;0.0;0.0;0.0;0.0;0.0;0.0;0.0;0.0;254.667;109.333;7.1648;256.37;110.85799999999999;1.0;0.0;1.0;0.17317000000000002;-0.36479;-2.17243;0.20756999999999998;-0.366267;-2.20768;-0.47180500000000003;-0.178339;0.12274600000000001;0.102273;0.34189400000000003;-0.255319;0.0;0.0;0.0;0.0;0.0;0.0;0.0;0.0;0.0;0.0;675.0;224.0;1024.0;1024.0;1024.0;224.0;1024.0;1024.0;1024.0;1.0;4.0;0.0;0.0;0.0;0.0;0.0;;1970-01-01 00:00:01.397
3338.0;3341.0;0.0;-1.0;-1.0;-1.0;-1.0;-1.0;100.0;0.0;0.0;0.0;0.0;0.0;0.0;0.0;0.0;0.0;0.0;0.0;0.0;0.0;0.0;257.0;110.0;7.45051;257.596;111.074;0.0;1.0;1.0;0.11256;-0.335355;-2.05599;0.17906;-0.356993;-2.16217;-0.48494799999999993;-0.14627;0.194999;0.440089;0.11194200000000001;-0.953325;0.0;0.0;0.0;0.0;0.0;0.0;0.0;0.0;0.0;0.0;675.0;224.0;1024.0;1024.0;1024.0;224.0;1024.0;1024.0;1024.0;1.0;4.0;0.0;0.0;0.0;0.0;0.0;;1970-01-01 00:00:01.408
3339.0;3342.0;0.0;-1.0;-1.0;-1.0;-1.0;-1.0;100.0;0.0;0.0;0.0;0.0;0.0;0.0;0.0;0.0;0.0;0.0;0.0;0.0;0.0;0.0;259.0;111.0;7.17714;259.085;111.588;0.0;2.0;1.0;0.14103;-0.37297399999999997;-2.16094;0.16765;-0.361788;-2.1618;-0.546288;-0.11244100000000001;0.313752;0.537995;0.0120131;-1.1874799999999999;0.0;0.0;0.0;0.0;0.0;0.0;0.0;0.0;0.0;0.0;675.0;224.0;1024.0;1024.0;1024.0;224.0;1024.0;1024.0;1024.0;1.0;4.0;0.0;0.0;0.0;0.0;0.0;;1970-01-01 00:00:01.419
3340.0;3343.0;0.0;-1.0;-1.0;-1.0;-1.0;-1.0;100.0;0.0;0.0;0.0;0.0;0.0;0.0;0.0;0.0;0.0;0.0;0.0;0.0;0.0;0.0;260.0;112.0;7.287939999999999;260.403;112.26700000000001;0.0;3.0;1.0;0.11684000000000001;-0.36541599999999996;-2.11215;0.15241;-0.36287600000000003;-2.1469099999999997;-0.549578;-0.11887400000000001;0.306238;0.670143;-0.157645;-1.57021;0.0;0.0;0.0;0.0;0.0;0.0;0.0;0.0;0.0;0.0;675.0;224.0;1024.0;1024.0;1024.0;224.0;1024.0;1024.0;1024.0;1.0;4.0;0.0;0.0;0.0;0.0;0.0;;1970-01-01 00:00:01.430
3340.0;3343.0;0.0;-1.0;-1.0;-1.0;-1.0;-1.0;100.0;0.0;0.0;0.0;0.0;0.0;0.0;0.0;0.0;0.0;0.0;0.0;0.0;0.0;0.0;260.0;112.0;7.287939999999999;260.403;112.26700000000001;0.0;3.0;1.0;0.11684000000000001;-0.36541599999999996;-2.11215;0.15241;-0.36287600000000003;-2.1469099999999997;-0.549578;-0.11887400000000001;0.306238;0.670143;-0.157645;-1.57021;0.0;0.0;0.0;0.0;0.0;0.0;0.0;0.0;0.0;0.0;675.0;224.0;1024.0;1024.0;1024.0;224.0;1024.0;1024.0;1024.0;1.0;4.0;0.0;0.0;0.0;0.0;0.0;;1970-01-01 00:00:01.441
3341.0;3344.0;0.0;-1.0;-1.0;-1.0;-1.0;-1.0;100.0;0.0;0.0;0.0;0.0;0.0;0.0;0.0;0.0;0.0;0.0;0.0;0.0;0.0;0.0;262.0;112.0;7.311610000000001;261.95;112.725;0.0;4.0;1.0;0.09957;-0.362615;-2.10272;0.13656;-0.362798;-2.13365;-0.6825640000000001;-0.048203300000000004;0.5716;0.0715314;0.10726600000000001;-0.387655;0.0;0.0;0.0;0.0;0.0;0.0;0.0;0.0;0.0;0.0;675.0;224.0;1024.0;1024.0;1024.0;224.0;1024.0;1024.0;1024.0;1.0;4.0;0.0;0.0;0.0;0.0;0.0;;1970-01-01 00:00:01.452
3342.0;3345.0;0.0;-1.0;-1.0;-1.0;-1.0;-1.0;100.0;0.0;0.0;0.0;0.0;0.0;0.0;0.0;0.0;0.0;0.0;0.0;0.0;0.0;0.0;262.0;112.0;7.351960000000001;263.012;113.03200000000001;0.0;5.0;1.0;0.09354;-0.357881;-2.08679;0.12365;-0.361323;-2.11959;-0.747169;-0.00983454;0.69611;-0.7649729999999999;0.527713;1.31018;0.0;0.0;0.0;0.0;0.0;0.0;0.0;0.0;0.0;0.0;675.0;224.0;1024.0;1024.0;1024.0;224.0;1024.0;1024.0;1024.0;1.0;4.0;0.0;0.0;0.0;0.0;0.0;;1970-01-01 00:00:01.463
3342.0;3345.0;0.0;-1.0;-1.0;-1.0;-1.0;-1.0;100.0;0.0;0.0;0.0;0.0;0.0;0.0;0.0;0.0;0.0;0.0;0.0;0.0;0.0;0.0;262.0;112.0;7.351960000000001;263.012;113.03200000000001;0.0;5.0;1.0;0.09354;-0.357881;-2.08679;0.12365;-0.361323;-2.11959;-0.747169;-0.00983454;0.69611;-0.7649729999999999;0.527713;1.31018;0.0;0.0;0.0;0.0;0.0;0.0;0.0;0.0;0.0;0.0;675.0;224.0;1024.0;1024.0;1024.0;224.0;1024.0;1024.0;1024.0;1.0;4.0;0.0;0.0;0.0;0.0;0.0;;1970-01-01 00:00:01.474
3343.0;3346.0;0.0;-1.0;-1.0;-1.0;-1.0;-1.0;100.0;0.0;0.0;0.0;0.0;0.0;0.0;0.0;0.0;0.0;0.0;0.0;0.0;0.0;0.0;262.0;112.0;7.351960000000001;264.057;113.564;1.0;0.0;1.0;0.09354;-0.357881;-2.08679;0.12365;-0.361323;-2.11959;-0.747169;-0.00983454;0.69611;-0.7649729999999999;0.527713;1.31018;0.0;0.0;0.0;0.0;0.0;0.0;0.0;0.0;0.0;0.0;675.0;224.0;1024.0;1024.0;1024.0;224.0;1024.0;1024.0;1024.0;1.0;4.0;0.0;0.0;0.0;0.0;0.0;;1970-01-01 00:00:01.485
3344.0;3347.0;0.0;-1.0;-1.0;-1.0;-1.0;-1.0;100.0;0.0;0.0;0.0;0.0;0.0;0.0;0.0;0.0;0.0;0.0;0.0;0.0;0.0;0.0;265.0;112.0;7.313860000000001;265.469;113.48899999999999;0.0;1.0;1.0;0.07876;-0.362349;-2.10183;0.11018;-0.361631;-2.11426;-0.739917;0.00798368;0.697399;-1.26187;0.874592;2.50697;0.0;0.0;0.0;0.0;0.0;0.0;0.0;0.0;0.0;0.0;675.0;224.0;1024.0;1024.0;1024.0;224.0;1024.0;1024.0;1024.0;1.0;4.0;0.0;0.0;0.0;0.0;0.0;;1970-01-01 00:00:01.496
3344.0;3347.0;0.0;-1.0;-1.0;-1.0;-1.0;-1.0;100.0;0.0;0.0;0.0;0.0;0.0;0.0;0.0;0.0;0.0;0.0;0.0;0.0;0.0;0.0;265.0;112.0;7.313860000000001;265.469;113.48899999999999;0.0;1.0;1.0;0.07876;-0.362349;-2.10183;0.11018;-0.361631;-2.11426;-0.739917;0.00798368;0.697399;-1.26187;0.874592;2.50697;0.0;0.0;0.0;0.0;0.0;0.0;0.0;0.0;0.0;0.0;675.0;224.0;1024.0;1024.0;1024.0;224.0;1024.0;1024.0;1024.0;1.0;4.0;0.0;0.0;0.0;0.0;0.0;;1970-01-01 00:00:01.507
3345.0;3348.0;0.0;-1.0;-1.0;-1.0;-1.0;-1.0;100.0;0.0;0.0;0.0;0.0;0.0;0.0;0.0;0.0;0.0;0.0;0.0;0.0;0.0;0.0;266.0;112.0;7.2671600000000005;266.718;113.46799999999999;0.0;2.0;1.0;0.07883;-0.36789099999999997;-2.12048;0.10078;-0.363509;-2.11613;-0.711875;-0.0175081;0.576013;-1.53377;0.9654360000000001;2.80818;0.0;0.0;0.0;0.0;0.0;0.0;0.0;0.0;0.0;0.0;675.0;224.0;1024.0;1024.0;1024.0;224.0;1024.0;1024.0;1024.0;1.0;4.0;0.0;0.0;0.0;0.0;0.0;;1970-01-01 00:00:01.518
3346.0;3349.0;0.0;-1.0;-1.0;-1.0;-1.0;-1.0;100.0;0.0;0.0;0.0;0.0;0.0;0.0;0.0;0.0;0.0;0.0;0.0;0.0;0.0;0.0;266.66700000000003;112.667;7.2198;267.77;113.682;0.0;3.0;1.0;0.0813;-0.37742800000000004;-2.13709;0.09493;-0.367685;-2.12242;-0.6759970000000001;-0.0306867;0.480391;-1.36418;0.859059;2.25521;0.0;0.0;0.0;0.0;0.0;0.0;0.0;0.0;0.0;0.0;675.0;224.0;1024.0;1024.0;1024.0;224.0;1024.0;1024.0;1024.0;1.0;4.0;0.0;0.0;0.0;0.0;0.0;;1970-01-01 00:00:01.529
3346.0;3349.0;0.0;-1.0;-1.0;-1.0;-1.0;-1.0;100.0;0.0;0.0;0.0;0.0;0.0;0.0;0.0;0.0;0.0;0.0;0.0;0.0;0.0;0.0;266.66700000000003;112.667;7.2198;267.77;113.682;0.0;3.0;1.0;0.0813;-0.37742800000000004;-2.13709;0.09493;-0.367685;-2.12242;-0.6759970000000001;-0.0306867;0.480391;-1.36418;0.859059;2.25521;0.0;0.0;0.0;0.0;0.0;0.0;0.0;0.0;0.0;0.0;675.0;224.0;1024.0;1024.0;1024.0;224.0;1024.0;1024.0;1024.0;1.0;4.0;0.0;0.0;0.0;0.0;0.0;;1970-01-01 00:00:01.540
3347.0;3350.0;0.0;-1.0;-1.0;-1.0;-1.0;-1.0;100.0;0.0;0.0;0.0;0.0;0.0;0.0;0.0;0.0;0.0;0.0;0.0;0.0;0.0;0.0;268.0;113.0;7.27925;268.914;113.93;0.0;4.0;1.0;0.06333;-0.37217;-2.11185;0.08545;-0.36903;-2.11925;-0.634748;-0.0394735;0.382894;-1.11;0.78718;1.61548;0.0;0.0;0.0;0.0;0.0;0.0;0.0;0.0;0.0;0.0;675.0;224.0;1024.0;1024.0;1024.0;224.0;1024.0;1024.0;1024.0;1.0;4.0;0.0;0.0;0.0;0.0;0.0;;1970-01-01 00:00:01.551
3348.0;3351.0;0.0;-1.0;-1.0;-1.0;-1.0;-1.0;100.0;0.0;0.0;0.0;0.0;0.0;0.0;0.0;0.0;0.0;0.0;0.0;0.0;0.0;0.0;268.0;113.0;7.27925;269.987;114.391;1.0;0.0;1.0;0.06333;-0.37217;-2.11185;0.08545;-0.36903;-2.11925;-0.634748;-0.0394735;0.382894;-1.11;0.78718;1.61548;0.0;0.0;0.0;0.0;0.0;0.0;0.0;0.0;0.0;0.0;675.0;224.0;1024.0;1024.0;1024.0;224.0;1024.0;1024.0;1024.0;1.0;4.0;0.0;0.0;0.0;0.0;0.0;;1970-01-01 00:00:01.562
3348.0;3351.0;0.0;-1.0;-1.0;-1.0;-1.0;-1.0;100.0;0.0;0.0;0.0;0.0;0.0;0.0;0.0;0.0;0.0;0.0;0.0;0.0;0.0;0.0;268.0;113.0;7.27925;269.987;114.391;1.0;0.0;1.0;0.06333;-0.37217;-2.11185;0.08545;-0.36903;-2.11925;-0.634748;-0.0394735;0.382894;-1.11;0.78718;1.61548;0.0;0.0;0.0;0.0;0.0;0.0;0.0;0.0;0.0;0.0;675.0;224.0;1024.0;1024.0;1024.0;224.0;1024.0;1024.0;1024.0;1.0;4.0;0.0;0.0;0.0;0.0;0.0;;1970-01-01 00:00:01.573
3349.0;3352.0;0.0;-1.0;-1.0;-1.0;-1.0;-1.0;100.0;0.0;0.0;0.0;0.0;0.0;0.0;0.0;0.0;0.0;0.0;0.0;0.0;0.0;0.0;270.0;114.0;7.0411;271.064;114.70100000000001;0.0;1.0;1.0;0.08512;-0.407583;-2.20643;0.08535;-0.380596;-2.1454;-0.5341859999999999;-0.0769827;0.194547;-0.221664;0.386125;-0.15984;0.0;0.0;0.0;0.0;0.0;0.0;0.0;0.0;0.0;0.0;675.0;224.0;1024.0;1024.0;1024.0;224.0;1024.0;1024.0;1024.0;1.0;4.0;0.0;0.0;0.0;0.0;0.0;;1970-01-01 00:00:01.584
3350.0;3353.0;0.0;-1.0;-1.0;-1.0;-1.0;-1.0;100.0;0.0;0.0;0.0;0.0;0.0;0.0;0.0;0.0;0.0;0.0;0.0;0.0;0.0;0.0;271.0;115.0;7.30395;272.11400000000003;115.262;0.0;2.0;1.0;0.03924;-0.380623;-2.0944700000000003;0.07152;-0.380604;-2.1301200000000002;-0.47663;-0.10393;0.0851943;0.677162;-0.0501045;-1.92536;0.0;0.0;0.0;0.0;0.0;0.0;0.0;0.0;0.0;0.0;675.0;224.0;1024.0;1024.0;1024.0;224.0;1024.0;1024.0;1024.0;1.0;4.0;0.0;0.0;0.0;0.0;0.0;;1970-01-01 00:00:01.595
3351.0;3354.0;0.0;-1.0;-1.0;-1.0;-1.0;-1.0;100.0;0.0;0.0;0.0;0.0;0.0;0.0;0.0;0.0;0.0;0.0;0.0;0.0;0.0;0.0;271.0;115.0;7.30395;273.185;115.72200000000001;1.0;0.0;1.0;0.03924;-0.380623;-2.0944700000000003;0.07152;-0.380604;-2.1301200000000002;-0.47663;-0.10393;0.0851943;0.677162;-0.0501045;-1.92536;0.0;0.0;0.0;0.0;0.0;0.0;0.0;0.0;0.0;0.0;675.0;224.0;1024.0;1024.0;1024.0;224.0;1024.0;1024.0;1024.0;1.0;4.0;0.0;0.0;0.0;0.0;0.0;;1970-01-01 00:00:01.606
3351.0;3354.0;0.0;-1.0;-1.0;-1.0;-1.0;-1.0;100.0;0.0;0.0;0.0;0.0;0.0;0.0;0.0;0.0;0.0;0.0;0.0;0.0;0.0;0.0;271.0;115.0;7.30395;273.185;115.72200000000001;1.0;0.0;1.0;0.03924;-0.380623;-2.0944700000000003;0.07152;-0.380604;-2.1301200000000002;-0.47663;-0.10393;0.0851943;0.677162;-0.0501045;-1.92536;0.0;0.0;0.0;0.0;0.0;0.0;0.0;0.0;0.0;0.0;675.0;224.0;1024.0;1024.0;1024.0;224.0;1024.0;1024.0;1024.0;1.0;4.0;0.0;0.0;0.0;0.0;0.0;;1970-01-01 00:00:01.617
3352.0;3355.0;0.0;-1.0;-1.0;-1.0;-1.0;-1.0;100.0;0.0;0.0;0.0;0.0;0.0;0.0;0.0;0.0;0.0;0.0;0.0;0.0;0.0;0.0;273.0;117.0;6.935810000000001;274.182;116.695;0.0;1.0;1.0;0.08001;-0.43937299999999996;-2.24018;0.07406;-0.398235;-2.1631400000000003;-0.39414299999999997;-0.17197300000000001;-0.0952466;1.44175;-0.568963;-3.5288800000000005;0.0;0.0;0.0;0.0;0.0;0.0;0.0;0.0;0.0;0.0;675.0;224.0;1024.0;1024.0;1024.0;224.0;1024.0;1024.0;1024.0;1.0;4.0;0.0;0.0;0.0;0.0;0.0;;1970-01-01 00:00:01.628
3353.0;3356.0;0.0;-1.0;-1.0;-1.0;-1.0;-1.0;100.0;0.0;0.0;0.0;0.0;0.0;0.0;0.0;0.0;0.0;0.0;0.0;0.0;0.0;0.0;274.0;118.0;7.38;275.185;117.646;0.0;2.0;1.0;0.00824;-0.38847600000000004;-2.05347;0.05432000000000001;-0.395307;-2.13024;-0.37561700000000003;-0.198408;-0.09940360000000001;1.87201;-0.8831030000000001;-4.13994;0.0;0.0;0.0;0.0;0.0;0.0;0.0;0.0;0.0;0.0;675.0;224.0;1024.0;1024.0;1024.0;224.0;1024.0;1024.0;1024.0;1.0;4.0;0.0;0.0;0.0;0.0;0.0;;1970-01-01 00:00:01.639
3353.0;3356.0;0.0;-1.0;-1.0;-1.0;-1.0;-1.0;100.0;0.0;0.0;0.0;0.0;0.0;0.0;0.0;0.0;0.0;0.0;0.0;0.0;0.0;0.0;274.0;118.0;7.38;275.185;117.646;0.0;2.0;1.0;0.00824;-0.38847600000000004;-2.05347;0.05432000000000001;-0.395307;-2.13024;-0.37561700000000003;-0.198408;-0.09940360000000001;1.87201;-0.8831030000000001;-4.13994;0.0;0.0;0.0;0.0;0.0;0.0;0.0;0.0;0.0;0.0;675.0;224.0;1024.0;1024.0;1024.0;224.0;1024.0;1024.0;1024.0;1.0;4.0;0.0;0.0;0.0;0.0;0.0;;1970-01-01 00:00:01.650
3354.0;3357.0;0.0;-1.0;-1.0;-1.0;-1.0;-1.0;100.0;0.0;0.0;0.0;0.0;0.0;0.0;0.0;0.0;0.0;0.0;0.0;0.0;0.0;0.0;275.0;119.0;7.2121;276.188;118.60700000000001;0.0;3.0;1.0;0.0248;-0.41493500000000005;-2.1160900000000002;0.04546;-0.40119499999999997;-2.1259900000000003;-0.37352199999999997;-0.21939699999999998;-0.070351;2.029;-1.09497;-4.13322;0.0;0.0;0.0;0.0;0.0;0.0;0.0;0.0;0.0;0.0;675.0;224.0;1024.0;1024.0;1024.0;224.0;1024.0;1024.0;1024.0;1.0;4.0;0.0;0.0;0.0;0.0;0.0;;1970-01-01 00:00:01.661
3355.0;3358.0;0.0;-1.0;-1.0;-1.0;-1.0;-1.0;100.0;0.0;0.0;0.0;0.0;0.0;0.0;0.0;0.0;0.0;0.0;0.0;0.0;0.0;0.0;277.0;120.0;7.3884300000000005;277.518;119.587;0.0;4.0;1.0;-0.013169;-0.398735;-2.04277;0.02787;-0.400457;-2.1010299999999997;-0.396544;-0.22575100000000003;0.0123496;1.9307299999999998;-1.21481;-3.5895699999999997;0.0;0.0;0.0;0.0;0.0;0.0;0.0;0.0;0.0;0.0;675.0;224.0;1024.0;1024.0;1024.0;224.0;1024.0;1024.0;1024.0;1.0;4.0;0.0;0.0;0.0;0.0;0.0;;1970-01-01 00:00:01.672
3355.0;3358.0;0.0;-1.0;-1.0;-1.0;-1.0;-1.0;100.0;0.0;0.0;0.0;0.0;0.0;0.0;0.0;0.0;0.0;0.0;0.0;0.0;0.0;0.0;277.0;120.0;7.3884300000000005;277.518;119.587;0.0;4.0;1.0;-0.013169;-0.398735;-2.04277;0.02787;-0.400457;-2.1010299999999997;-0.396544;-0.22575100000000003;0.0123496;1.9307299999999998;-1.21481;-3.5895699999999997;0.0;0.0;0.0;0.0;0.0;0.0;0.0;0.0;0.0;0.0;675.0;224.0;1024.0;1024.0;1024.0;224.0;1024.0;1024.0;1024.0;1.0;4.0;0.0;0.0;0.0;0.0;0.0;;1970-01-01 00:00:01.683
3356.0;3359.0;0.0;-1.0;-1.0;-1.0;-1.0;-1.0;100.0;0.0;0.0;0.0;0.0;0.0;0.0;0.0;0.0;0.0;0.0;0.0;0.0;0.0;0.0;278.0;121.0;7.361460000000001;278.748;120.586;0.0;5.0;1.0;-0.016332;-0.40768499999999996;-2.04945;0.01461;-0.40262600000000004;-2.0855599999999996;-0.48003199999999996;-0.21084499999999998;0.21222800000000003;1.34378;-1.18702;-2.09323;0.0;0.0;0.0;0.0;0.0;0.0;0.0;0.0;0.0;0.0;675.0;224.0;1024.0;1024.0;1024.0;224.0;1024.0;1024.0;1024.0;1.0;4.0;0.0;0.0;0.0;0.0;0.0;;1970-01-01 00:00:01.694
3357.0;3360.0;0.0;-1.0;-1.0;-1.0;-1.0;-1.0;100.0;0.0;0.0;0.0;0.0;0.0;0.0;0.0;0.0;0.0;0.0;0.0;0.0;0.0;0.0;280.66700000000003;122.667;7.09352;280.44599999999997;121.815;0.0;6.0;1.0;0.00206;-0.451754;-2.15062;0.01085;-0.417364;-2.10508;-0.495659;-0.252316;0.213061;0.7411399999999999;-1.22005;-0.818321;0.0;0.0;0.0;0.0;0.0;0.0;0.0;0.0;0.0;0.0;675.0;224.0;1024.0;1024.0;1024.0;224.0;1024.0;1024.0;1024.0;1.0;4.0;0.0;0.0;0.0;0.0;0.0;;1970-01-01 00:00:01.705
3357.0;3360.0;0.0;-1.0;-1.0;-1.0;-1.0;-1.0;100.0;0.0;0.0;0.0;0.0;0.0;0.0;0.0;0.0;0.0;0.0;0.0;0.0;0.0;0.0;280.66700000000003;122.667;7.09352;280.44599999999997;121.815;0.0;6.0;1.0;0.00206;-0.451754;-2.15062;0.01085;-0.417364;-2.10508;-0.495659;-0.252316;0.213061;0.7411399999999999;-1.22005;-0.818321;0.0;0.0;0.0;0.0;0.0;0.0;0.0;0.0;0.0;0.0;675.0;224.0;1024.0;1024.0;1024.0;224.0;1024.0;1024.0;1024.0;1.0;4.0;0.0;0.0;0.0;0.0;0.0;;1970-01-01 00:00:01.716
3358.0;3361.0;0.0;-1.0;-1.0;-1.0;-1.0;-1.0;100.0;0.0;0.0;0.0;0.0;0.0;0.0;0.0;0.0;0.0;0.0;0.0;0.0;0.0;0.0;281.33299999999997;123.333;7.38;281.83799999999997;122.891;0.0;7.0;1.0;-0.041341;-0.418571;-2.0336;-0.004809000000000001;-0.41772600000000004;-2.08363;-0.6123270000000001;-0.22921599999999998;0.445291;-0.42649;-0.9605899999999999;1.6672900000000002;0.0;0.0;0.0;0.0;0.0;0.0;0.0;0.0;0.0;0.0;675.0;224.0;1024.0;1024.0;1024.0;224.0;1024.0;1024.0;1024.0;1.0;4.0;0.0;0.0;0.0;0.0;0.0;;1970-01-01 00:00:01.727
3359.0;3362.0;0.0;-1.0;-1.0;-1.0;-1.0;-1.0;100.0;0.0;0.0;0.0;0.0;0.0;0.0;0.0;0.0;0.0;0.0;0.0;0.0;0.0;0.0;284.0;125.0;7.19578;283.649;124.176;0.0;8.0;1.0;-0.035291;-0.45173199999999997;-2.09978;-0.013954;-0.427928;-2.08848;-0.639995;-0.267779;0.433924;-1.31151;-0.853339;3.12986;0.0;0.0;0.0;0.0;0.0;0.0;0.0;0.0;0.0;0.0;675.0;224.0;1024.0;1024.0;1024.0;224.0;1024.0;1024.0;1024.0;1.0;4.0;0.0;0.0;0.0;0.0;0.0;;1970-01-01 00:00:01.738
3359.0;3362.0;0.0;-1.0;-1.0;-1.0;-1.0;-1.0;100.0;0.0;0.0;0.0;0.0;0.0;0.0;0.0;0.0;0.0;0.0;0.0;0.0;0.0;0.0;284.0;125.0;7.19578;283.649;124.176;0.0;8.0;1.0;-0.035291;-0.45173199999999997;-2.09978;-0.013954;-0.427928;-2.08848;-0.639995;-0.267779;0.433924;-1.31151;-0.853339;3.12986;0.0;0.0;0.0;0.0;0.0;0.0;0.0;0.0;0.0;0.0;675.0;224.0;1024.0;1024.0;1024.0;224.0;1024.0;1024.0;1024.0;1.0;4.0;0.0;0.0;0.0;0.0;0.0;;1970-01-01 00:00:01.749
3360.0;3363.0;0.0;-1.0;-1.0;-1.0;-1.0;-1.0;100.0;0.0;0.0;0.0;0.0;0.0;0.0;0.0;0.0;0.0;0.0;0.0;0.0;0.0;0.0;286.0;126.0;7.298769999999999;285.55;125.398;0.0;9.0;1.0;-0.062577;-0.444008;-2.0550900000000003;-0.028541000000000004;-0.432752;-2.0784599999999998;-0.679476;-0.286667;0.450143;-2.00853;-0.780602;3.9561599999999997;0.0;0.0;0.0;0.0;0.0;0.0;0.0;0.0;0.0;0.0;675.0;224.0;1024.0;1024.0;1024.0;224.0;1024.0;1024.0;1024.0;1.0;4.0;0.0;0.0;0.0;0.0;0.0;;1970-01-01 00:00:01.760
3361.0;3364.0;0.0;-1.0;-1.0;-1.0;-1.0;-1.0;100.0;0.0;0.0;0.0;0.0;0.0;0.0;0.0;0.0;0.0;0.0;0.0;0.0;0.0;0.0;287.0;127.0;7.2675;287.195;126.575;0.0;10.0;1.0;-0.06540900000000001;-0.453801;-2.0636;-0.039601;-0.439067;-2.074;-0.6770970000000001;-0.32616;0.377994;-2.32532;-0.8692799999999999;3.83365;0.0;0.0;0.0;0.0;0.0;0.0;0.0;0.0;0.0;0.0;675.0;224.0;1024.0;1024.0;1024.0;224.0;1024.0;1024.0;1024.0;1.0;4.0;0.0;0.0;0.0;0.0;0.0;;1970-01-01 00:00:01.771
3362.0;3365.0;0.0;-1.0;-1.0;-1.0;-1.0;-1.0;100.0;0.0;0.0;0.0;0.0;0.0;0.0;0.0;0.0;0.0;0.0;0.0;0.0;0.0;0.0;289.0;128.0;7.38208;288.974;127.71799999999999;0.0;11.0;1.0;-0.093435;-0.444637;-2.01542;-0.055751;-0.440738;-2.0564299999999998;-0.687203;-0.34787199999999996;0.343094;-2.2223900000000003;-1.06869;2.82271;0.0;0.0;0.0;0.0;0.0;0.0;0.0;0.0;0.0;0.0;675.0;224.0;1024.0;1024.0;1024.0;224.0;1024.0;1024.0;1024.0;1.0;4.0;0.0;0.0;0.0;0.0;0.0;;1970-01-01 00:00:01.782
3362.0;3365.0;0.0;-1.0;-1.0;-1.0;-1.0;-1.0;100.0;0.0;0.0;0.0;0.0;0.0;0.0;0.0;0.0;0.0;0.0;0.0;0.0;0.0;0.0;289.0;128.0;7.38208;288.974;127.71799999999999;0.0;11.0;1.0;-0.093435;-0.444637;-2.01542;-0.055751;-0.440738;-2.0564299999999998;-0.687203;-0.34787199999999996;0.343094;-2.2223900000000003;-1.06869;2.82271;0.0;0.0;0.0;0.0;0.0;0.0;0.0;0.0;0.0;0.0;675.0;224.0;1024.0;1024.0;1024.0;224.0;1024.0;1024.0;1024.0;1.0;4.0;0.0;0.0;0.0;0.0;0.0;;1970-01-01 00:00:01.793
3363.0;3366.0;0.0;-1.0;-1.0;-1.0;-1.0;-1.0;100.0;0.0;0.0;0.0;0.0;0.0;0.0;0.0;0.0;0.0;0.0;0.0;0.0;0.0;0.0;291.0;129.0;7.39727;290.849;128.834;0.0;12.0;1.0;-0.10878800000000001;-0.448326;-2.00592;-0.071662;-0.443014;-2.04128;-0.7417699999999999;-0.31114;0.46059300000000003;-2.31612;-0.8760879999999999;2.68198;0.0;0.0;0.0;0.0;0.0;0.0;0.0;0.0;0.0;0.0;675.0;224.0;1024.0;1024.0;1024.0;224.0;1024.0;1024.0;1024.0;1.0;4.0;0.0;0.0;0.0;0.0;0.0;;1970-01-01 00:00:01.804
3364.0;3367.0;0.0;-1.0;-1.0;-1.0;-1.0;-1.0;101.0;0.0;0.0;0.0;0.0;0.0;0.0;0.0;0.0;0.0;0.0;0.0;0.0;0.0;0.0;292.0;130.0;7.435339999999999;292.472;129.93200000000002;0.0;13.0;1.0;-0.12006199999999999;-0.449072;-1.98786;-0.08618200000000001;-0.44483199999999995;-2.02525;-0.7699699999999999;-0.29491100000000003;0.5094609999999999;-2.01911;-0.787964;1.8654099999999998;0.0;0.0;0.0;0.0;0.632232;-1.0490700000000002;-2.63405;0.0;0.0;0.0;675.0;650.0;1024.0;1024.0;1024.0;224.0;1024.0;1024.0;1024.0;1.0;4.0;0.0;0.0;0.0;0.0;0.0;;1970-01-01 00:00:01.815
3364.0;3367.0;0.0;-1.0;-1.0;-1.0;-1.0;-1.0;101.0;0.0;0.0;0.0;0.0;0.0;0.0;0.0;0.0;0.0;0.0;0.0;0.0;0.0;0.0;292.0;130.0;7.435339999999999;292.472;129.93200000000002;0.0;13.0;1.0;-0.12006199999999999;-0.449072;-1.98786;-0.08618200000000001;-0.44483199999999995;-2.02525;-0.7699699999999999;-0.29491100000000003;0.5094609999999999;-2.01911;-0.787964;1.8654099999999998;0.0;0.0;0.0;0.0;0.632232;-1.0490700000000002;-2.63405;0.0;0.0;0.0;675.0;650.0;1024.0;1024.0;1024.0;224.0;1024.0;1024.0;1024.0;1.0;4.0;0.0;0.0;0.0;0.0;0.0;;1970-01-01 00:00:01.826
3365.0;3368.0;0.0;-1.0;-1.0;-1.0;-1.0;-1.0;102.0;0.0;0.0;0.0;0.0;0.0;0.0;0.0;0.0;0.0;0.0;0.0;0.0;0.0;0.0;292.0;130.0;7.435339999999999;293.745;130.674;1.0;0.0;1.0;-0.12006199999999999;-0.449072;-1.98786;-0.08618200000000001;-0.44483199999999995;-2.02525;-0.7699699999999999;-0.29491100000000003;0.5094609999999999;-2.01911;-0.787964;1.8654099999999998;0.0;0.0;0.0;0.0;0.614326;-1.0490700000000002;-2.61212;0.0;0.0;0.0;675.0;650.0;1024.0;1024.0;1024.0;224.0;1024.0;1024.0;1024.0;1.0;4.0;0.0;0.0;0.0;0.0;0.0;;1970-01-01 00:00:01.837
3366.0;3369.0;0.0;-1.0;-1.0;-1.0;-1.0;-1.0;103.0;0.0;0.0;0.0;0.0;0.0;0.0;0.0;0.0;0.0;0.0;0.0;0.0;0.0;0.0;295.0;131.0;7.370369999999999;295.502;131.541;0.0;1.0;1.0;-0.132616;-0.463088;-2.0087099999999998;-0.100112;-0.450309;-2.02029;-0.7568520000000001;-0.25354299999999996;0.539042;-1.6114;-0.42405699999999996;1.479;0.0;0.0;0.0;0.0;0.596022;-1.0630899999999999;-2.6291599999999997;0.0;0.0;0.0;675.0;650.0;1024.0;1024.0;1024.0;224.0;1024.0;1024.0;1024.0;1.0;4.0;0.0;0.0;0.0;0.0;0.0;;1970-01-01 00:00:01.848
3366.0;3369.0;0.0;-1.0;-1.0;-1.0;-1.0;-1.0;103.0;0.0;0.0;0.0;0.0;0.0;0.0;0.0;0.0;0.0;0.0;0.0;0.0;0.0;0.0;295.0;131.0;7.370369999999999;295.502;131.541;0.0;1.0;1.0;-0.132616;-0.463088;-2.0087099999999998;-0.100112;-0.450309;-2.02029;-0.7568520000000001;-0.25354299999999996;0.539042;-1.6114;-0.42405699999999996;1.479;0.0;0.0;0.0;0.0;0.596022;-1.0630899999999999;-2.6291599999999997;0.0;0.0;0.0;675.0;650.0;1024.0;1024.0;1024.0;224.0;1024.0;1024.0;1024.0;1.0;4.0;0.0;0.0;0.0;0.0;0.0;;1970-01-01 00:00:01.859
3367.0;3370.0;0.0;-1.0;-1.0;-1.0;-1.0;-1.0;104.0;0.0;0.0;0.0;0.0;0.0;0.0;0.0;0.0;0.0;0.0;0.0;0.0;0.0;0.0;297.0;132.0;7.377260000000001;297.323;132.45;0.0;2.0;1.0;-0.146954;-0.467834;-2.00236;-0.114165;-0.45556599999999997;-2.01491;-0.747154;-0.230206;0.540926;-1.19846;-0.061198;1.1981;0.0;0.0;0.0;0.0;0.581108;-1.0678299999999998;-2.60868;0.0;0.0;0.0;675.0;650.0;1024.0;1024.0;1024.0;224.0;1024.0;1024.0;1024.0;1.0;4.0;0.0;0.0;0.0;0.0;0.0;;1970-01-01 00:00:01.870
3368.0;3371.0;0.0;-1.0;-1.0;-1.0;-1.0;-1.0;105.0;0.0;0.0;0.0;0.0;0.0;0.0;0.0;0.0;0.0;0.0;0.0;0.0;0.0;0.0;299.0;133.0;7.272410000000001;299.203;133.389;0.0;3.0;1.0;-0.14837899999999998;-0.487512;-2.03898;-0.124429;-0.46515;-2.0221299999999998;-0.738607;-0.22739099999999998;0.502083;-0.9295899999999999;0.301309;1.14354;0.0;0.0;0.0;0.0;0.576837;-1.08751;-2.64004;0.0;0.0;0.0;675.0;650.0;1024.0;1024.0;1024.0;224.0;1024.0;1024.0;1024.0;1.0;4.0;0.0;0.0;0.0;0.0;0.0;;1970-01-01 00:00:01.881
3368.0;3371.0;0.0;-1.0;-1.0;-1.0;-1.0;-1.0;105.0;0.0;0.0;0.0;0.0;0.0;0.0;0.0;0.0;0.0;0.0;0.0;0.0;0.0;0.0;299.0;133.0;7.272410000000001;299.203;133.389;0.0;3.0;1.0;-0.14837899999999998;-0.487512;-2.03898;-0.124429;-0.46515;-2.0221299999999998;-0.738607;-0.22739099999999998;0.502083;-0.9295899999999999;0.301309;1.14354;0.0;0.0;0.0;0.0;0.576837;-1.08751;-2.64004;0.0;0.0;0.0;675.0;650.0;1024.0;1024.0;1024.0;224.0;1024.0;1024.0;1024.0;1.0;4.0;0.0;0.0;0.0;0.0;0.0;;1970-01-01 00:00:01.892
3369.0;3372.0;0.0;-1.0;-1.0;-1.0;-1.0;-1.0;106.0;0.0;0.0;0.0;0.0;0.0;0.0;0.0;0.0;0.0;0.0;0.0;0.0;0.0;0.0;300.0;133.0;7.253019999999999;300.80400000000003;134.024;0.0;4.0;1.0;-0.152982;-0.49015299999999995;-2.04657;-0.132995;-0.47265100000000004;-2.02946;-0.707526;-0.245655;0.393543;-0.627308;0.530615;0.858786;0.0;0.0;0.0;0.0;0.5704199999999999;-1.09015;-2.65855;0.0;0.0;0.0;675.0;650.0;1024.0;1024.0;1024.0;224.0;1024.0;1024.0;1024.0;1.0;4.0;0.0;0.0;0.0;0.0;0.0;;1970-01-01 00:00:01.903
3370.0;3373.0;0.0;-1.0;-1.0;-1.0;-1.0;-1.0;107.0;0.0;0.0;0.0;0.0;0.0;0.0;0.0;0.0;0.0;0.0;0.0;0.0;0.0;0.0;300.0;133.0;7.253019999999999;302.156;134.78;1.0;0.0;1.0;-0.152982;-0.49015299999999995;-2.04657;-0.132995;-0.47265100000000004;-2.02946;-0.707526;-0.245655;0.393543;-0.627308;0.530615;0.858786;0.0;0.0;0.0;0.0;0.57923;-1.09015;-2.69762;0.0;0.0;0.0;675.0;650.0;1024.0;1024.0;1024.0;224.0;1024.0;1024.0;1024.0;1.0;4.0;0.0;0.0;0.0;0.0;0.0;;1970-01-01 00:00:01.914
3370.0;3373.0;0.0;-1.0;-1.0;-1.0;-1.0;-1.0;107.0;0.0;0.0;0.0;0.0;0.0;0.0;0.0;0.0;0.0;0.0;0.0;0.0;0.0;0.0;300.0;133.0;7.253019999999999;302.156;134.78;1.0;0.0;1.0;-0.152982;-0.49015299999999995;-2.04657;-0.132995;-0.47265100000000004;-2.02946;-0.707526;-0.245655;0.393543;-0.627308;0.530615;0.858786;0.0;0.0;0.0;0.0;0.57923;-1.09015;-2.69762;0.0;0.0;0.0;675.0;650.0;1024.0;1024.0;1024.0;224.0;1024.0;1024.0;1024.0;1.0;4.0;0.0;0.0;0.0;0.0;0.0;;1970-01-01 00:00:01.925
3371.0;3374.0;0.0;-1.0;-1.0;-1.0;-1.0;-1.0;108.0;0.0;0.0;0.0;0.0;0.0;0.0;0.0;0.0;0.0;0.0;0.0;0.0;0.0;0.0;303.0;135.0;7.36707;303.836;135.623;0.0;1.0;1.0;-0.186414;-0.48613;-1.9950400000000001;-0.14902100000000001;-0.476695;-2.01913;-0.6561739999999999;-0.248252;0.302435;-0.12005899999999999;0.506691;0.0416481;0.0;0.0;0.0;0.0;0.5434399999999999;-1.0861299999999998;-2.64478;0.0;0.0;0.0;675.0;650.0;1024.0;1024.0;1024.0;224.0;1024.0;1024.0;1024.0;1.0;4.0;0.0;0.0;0.0;0.0;0.0;;1970-01-01 00:00:01.936
3372.0;3375.0;0.0;-1.0;-1.0;-1.0;-1.0;-1.0;109.0;0.0;0.0;0.0;0.0;0.0;0.0;0.0;0.0;0.0;0.0;0.0;0.0;0.0;0.0;303.0;135.0;7.36707;305.202;136.38299999999998;1.0;0.0;1.0;-0.186414;-0.48613;-1.9950400000000001;-0.14902100000000001;-0.476695;-2.01913;-0.6561739999999999;-0.248252;0.302435;-0.12005899999999999;0.506691;0.0416481;0.0;0.0;0.0;0.0;0.560403;-1.0861299999999998;-2.67834;0.0;0.0;0.0;675.0;650.0;1024.0;1024.0;1024.0;224.0;1024.0;1024.0;1024.0;1.0;4.0;0.0;0.0;0.0;0.0;0.0;;1970-01-01 00:00:01.947
3373.0;3376.0;0.0;-1.0;-1.0;-1.0;-1.0;-1.0;110.0;0.0;0.0;0.0;0.0;0.0;0.0;0.0;0.0;0.0;0.0;0.0;0.0;0.0;0.0;307.33299999999997;136.667;7.41617;307.457;137.262;0.0;1.0;1.0;-0.220958;-0.48895900000000003;-1.97035;-0.170602;-0.48037399999999997;-2.0045;-0.61842;-0.243561;0.236702;0.331372;0.44070299999999996;-0.701062;0.0;0.0;0.0;0.0;0.5229520000000001;-1.08896;-2.65232;0.0;0.0;0.0;675.0;650.0;1024.0;1024.0;1024.0;224.0;1024.0;1024.0;1024.0;1.0;4.0;0.0;0.0;0.0;0.0;0.0;;1970-01-01 00:00:01.958
3373.0;3376.0;0.0;-1.0;-1.0;-1.0;-1.0;-1.0;110.0;0.0;0.0;0.0;0.0;0.0;0.0;0.0;0.0;0.0;0.0;0.0;0.0;0.0;0.0;307.33299999999997;136.667;7.41617;307.457;137.262;0.0;1.0;1.0;-0.220958;-0.48895900000000003;-1.97035;-0.170602;-0.48037399999999997;-2.0045;-0.61842;-0.243561;0.236702;0.331372;0.44070299999999996;-0.701062;0.0;0.0;0.0;0.0;0.5229520000000001;-1.08896;-2.65232;0.0;0.0;0.0;675.0;650.0;1024.0;1024.0;1024.0;224.0;1024.0;1024.0;1024.0;1.0;4.0;0.0;0.0;0.0;0.0;0.0;;1970-01-01 00:00:01.969
3374.0;3377.0;0.0;-1.0;-1.0;-1.0;-1.0;-1.0;111.0;0.0;0.0;0.0;0.0;0.0;0.0;0.0;0.0;0.0;0.0;0.0;0.0;0.0;0.0;310.0;138.0;7.32688;309.793;138.298;0.0;2.0;1.0;-0.229625;-0.50859;-1.99911;-0.188309;-0.488839;-2.0028799999999998;-0.635167;-0.261519;0.194144;0.563222;0.240537;-1.45347;0.0;0.0;0.0;0.0;0.525939;-1.10859;-2.70555;0.0;0.0;0.0;675.0;650.0;1024.0;1024.0;1024.0;224.0;1024.0;1024.0;1024.0;1.0;4.0;0.0;0.0;0.0;0.0;0.0;;1970-01-01 00:00:01.980
3375.0;3378.0;0.0;-1.0;-1.0;-1.0;-1.0;-1.0;112.0;0.0;0.0;0.0;0.0;0.0;0.0;0.0;0.0;0.0;0.0;0.0;0.0;0.0;0.0;312.0;139.0;7.242960000000001;311.992;139.315;0.0;3.0;1.0;-0.234479;-0.5260199999999999;-2.02775;-0.20215999999999998;-0.49999399999999994;-2.0103400000000002;-0.6446109999999999;-0.289956;0.130164;0.645009;-0.0346087;-2.10216;0.0;0.0;0.0;0.0;0.509092;-1.12602;-2.74937;0.0;0.0;0.0;675.0;650.0;1024.0;1024.0;1024.0;224.0;1024.0;1024.0;1024.0;1.0;4.0;0.0;0.0;0.0;0.0;0.0;;1970-01-01 00:00:01.991
3375.0;3378.0;0.0;-1.0;-1.0;-1.0;-1.0;-1.0;112.0;0.0;0.0;0.0;0.0;0.0;0.0;0.0;0.0;0.0;0.0;0.0;0.0;0.0;0.0;312.0;139.0;7.242960000000001;311.992;139.315;0.0;3.0;1.0;-0.234479;-0.5260199999999999;-2.02775;-0.20215999999999998;-0.49999399999999994;-2.0103400000000002;-0.6446109999999999;-0.289956;0.130164;0.645009;-0.0346087;-2.10216;0.0;0.0;0.0;0.0;0.509092;-1.12602;-2.74937;0.0;0.0;0.0;675.0;650.0;1024.0;1024.0;1024.0;224.0;1024.0;1024.0;1024.0;1.0;4.0;0.0;0.0;0.0;0.0;0.0;;1970-01-01 00:00:02.002
3376.0;3379.0;0.0;-1.0;-1.0;-1.0;-1.0;-1.0;113.0;0.0;0.0;0.0;0.0;0.0;0.0;0.0;0.0;0.0;0.0;0.0;0.0;0.0;0.0;314.0;140.0;7.438439999999999;314.132;140.329;0.0;4.0;1.0;-0.268012;-0.50466;-1.9497400000000003;-0.22191599999999997;-0.50139;-1.99216;-0.678701;-0.282511;0.16784100000000002;0.566403;-0.185827;-2.26222;0.0;0.0;0.0;0.0;0.469743;-1.10466;-2.69679;0.0;0.0;0.0;675.0;650.0;1024.0;1024.0;1024.0;224.0;1024.0;1024.0;1024.0;1.0;4.0;0.0;0.0;0.0;0.0;0.0;;1970-01-01 00:00:02.013
3377.0;3380.0;0.0;-1.0;-1.0;-1.0;-1.0;-1.0;114.0;0.0;0.0;0.0;0.0;0.0;0.0;0.0;0.0;0.0;0.0;0.0;0.0;0.0;0.0;314.0;140.0;7.438439999999999;315.63599999999997;141.126;1.0;0.0;1.0;-0.268012;-0.50466;-1.9497400000000003;-0.22191599999999997;-0.50139;-1.99216;-0.678701;-0.282511;0.16784100000000002;0.566403;-0.185827;-2.26222;0.0;0.0;0.0;0.0;0.44890699999999994;-1.10466;-2.6797400000000002;0.0;0.0;0.0;675.0;650.0;1024.0;1024.0;1024.0;224.0;1024.0;1024.0;1024.0;1.0;4.0;0.0;0.0;0.0;0.0;0.0;;1970-01-01 00:00:02.024
3377.0;3380.0;0.0;-1.0;-1.0;-1.0;-1.0;-1.0;114.0;0.0;0.0;0.0;0.0;0.0;0.0;0.0;0.0;0.0;0.0;0.0;0.0;0.0;0.0;314.0;140.0;7.438439999999999;315.63599999999997;141.126;1.0;0.0;1.0;-0.268012;-0.50466;-1.9497400000000003;-0.22191599999999997;-0.50139;-1.99216;-0.678701;-0.282511;0.16784100000000002;0.566403;-0.185827;-2.26222;0.0;0.0;0.0;0.0;0.44890699999999994;-1.10466;-2.6797400000000002;0.0;0.0;0.0;675.0;650.0;1024.0;1024.0;1024.0;224.0;1024.0;1024.0;1024.0;1.0;4.0;0.0;0.0;0.0;0.0;0.0;;1970-01-01 00:00:02.035
3378.0;3381.0;0.0;-1.0;-1.0;-1.0;-1.0;-1.0;115.0;0.0;0.0;0.0;0.0;0.0;0.0;0.0;0.0;0.0;0.0;0.0;0.0;0.0;0.0;318.0;141.0;7.269819999999999;318.064;141.873;0.0;1.0;1.0;-0.27849;-0.53369;-2.0097400000000003;-0.23888800000000002;-0.51108;-1.9974299999999998;-0.6890930000000001;-0.271807;0.18595599999999998;0.388909;-0.18111;-1.9099;0.0;0.0;0.0;0.0;0.43244;-1.1336899999999999;-2.73825;0.0;0.0;0.0;675.0;650.0;1024.0;1024.0;1024.0;224.0;1024.0;1024.0;1024.0;1.0;4.0;0.0;0.0;0.0;0.0;0.0;;1970-01-01 00:00:02.046
3379.0;3382.0;0.0;-1.0;-1.0;-1.0;-1.0;-1.0;116.0;0.0;0.0;0.0;0.0;0.0;0.0;0.0;0.0;0.0;0.0;0.0;0.0;0.0;0.0;320.0;142.0;7.323160000000001;320.29400000000004;142.713;0.0;2.0;1.0;-0.29737399999999997;-0.53185;-1.9855200000000002;-0.256434;-0.51731;-1.9938599999999997;-0.735116;-0.284719;0.187264;-0.0030542;-0.217869;-1.4908299999999999;0.0;0.0;0.0;0.0;0.404627;-1.13185;-2.7051;0.0;0.0;0.0;675.0;650.0;1024.0;1024.0;1024.0;224.0;1024.0;1024.0;1024.0;1.0;4.0;0.0;0.0;0.0;0.0;0.0;;1970-01-01 00:00:02.057
3379.0;3382.0;0.0;-1.0;-1.0;-1.0;-1.0;-1.0;116.0;0.0;0.0;0.0;0.0;0.0;0.0;0.0;0.0;0.0;0.0;0.0;0.0;0.0;0.0;320.0;142.0;7.323160000000001;320.29400000000004;142.713;0.0;2.0;1.0;-0.29737399999999997;-0.53185;-1.9855200000000002;-0.256434;-0.51731;-1.9938599999999997;-0.735116;-0.284719;0.187264;-0.0030542;-0.217869;-1.4908299999999999;0.0;0.0;0.0;0.0;0.404627;-1.13185;-2.7051;0.0;0.0;0.0;675.0;650.0;1024.0;1024.0;1024.0;224.0;1024.0;1024.0;1024.0;1.0;4.0;0.0;0.0;0.0;0.0;0.0;;1970-01-01 00:00:02.068
3380.0;3383.0;0.0;-1.0;-1.0;-1.0;-1.0;-1.0;117.0;0.0;0.0;0.0;0.0;0.0;0.0;0.0;0.0;0.0;0.0;0.0;0.0;0.0;0.0;322.0;142.0;7.37062;322.441;143.269;0.0;3.0;1.0;-0.315438;-0.5252;-1.9675799999999999;-0.274135;-0.51968;-1.9859799999999999;-0.795401;-0.305352;0.175755;-0.607534;-0.342197;-1.1030799999999998;0.0;0.0;0.0;0.0;0.360218;-1.1252;-2.68496;0.0;0.0;0.0;675.0;650.0;1024.0;1024.0;1024.0;224.0;1024.0;1024.0;1024.0;1.0;4.0;0.0;0.0;0.0;0.0;0.0;;1970-01-01 00:00:02.079
3381.0;3384.0;0.0;-1.0;-1.0;-1.0;-1.0;-1.0;118.0;0.0;0.0;0.0;0.0;0.0;0.0;0.0;0.0;0.0;0.0;0.0;0.0;0.0;0.0;324.0;142.0;7.30899;324.546;143.638;0.0;4.0;1.0;-0.32332;-0.53385;-1.99092;-0.28889000000000004;-0.52393;-1.9874599999999998;-0.821567;-0.303344;0.15825899999999998;-1.00264;-0.348502;-0.784697;0.0;0.0;0.0;0.0;0.316874;-1.13385;-2.71141;0.0;0.0;0.0;675.0;650.0;1024.0;1024.0;1024.0;224.0;1024.0;1024.0;1024.0;1.0;4.0;0.0;0.0;0.0;0.0;0.0;;1970-01-01 00:00:02.090
3381.0;3384.0;0.0;-1.0;-1.0;-1.0;-1.0;-1.0;118.0;0.0;0.0;0.0;0.0;0.0;0.0;0.0;0.0;0.0;0.0;0.0;0.0;0.0;0.0;324.0;142.0;7.30899;324.546;143.638;0.0;4.0;1.0;-0.32332;-0.53385;-1.99092;-0.28889000000000004;-0.52393;-1.9874599999999998;-0.821567;-0.303344;0.15825899999999998;-1.00264;-0.348502;-0.784697;0.0;0.0;0.0;0.0;0.316874;-1.13385;-2.71141;0.0;0.0;0.0;675.0;650.0;1024.0;1024.0;1024.0;224.0;1024.0;1024.0;1024.0;1.0;4.0;0.0;0.0;0.0;0.0;0.0;;1970-01-01 00:00:02.101
3382.0;3385.0;0.0;-1.0;-1.0;-1.0;-1.0;-1.0;119.0;0.0;0.0;0.0;0.0;0.0;0.0;0.0;0.0;0.0;0.0;0.0;0.0;0.0;0.0;326.0;142.0;7.2591;326.63599999999997;143.876;0.0;5.0;1.0;-0.332418;-0.54095;-2.0101;-0.30194899999999997;-0.52904;-1.99425;-0.8345520000000001;-0.281431;0.150044;-1.25181;-0.17991500000000002;-0.40276300000000004;0.0;0.0;0.0;0.0;0.28818699999999997;-1.14095;-2.7370099999999997;0.0;0.0;0.0;675.0;650.0;939.0;1153.0;1024.0;224.0;1024.0;1024.0;1024.0;1.0;4.0;0.0;0.0;0.0;0.0;0.0;;1970-01-01 00:00:02.112
3383.0;3386.0;0.0;-1.0;-1.0;-1.0;-1.0;-1.0;120.0;0.0;0.0;0.0;0.0;0.0;0.0;0.0;0.0;0.0;0.0;0.0;0.0;0.0;0.0;326.0;142.0;7.2591;328.275;144.622;1.0;0.0;1.0;-0.332418;-0.54095;-2.0101;-0.30194899999999997;-0.52904;-1.99425;-0.8345520000000001;-0.281431;0.150044;-1.25181;-0.17991500000000002;-0.40276300000000004;0.0;0.0;0.0;0.0;0.274777;-1.14095;-2.7394700000000003;0.0;0.0;0.0;675.0;650.0;939.0;1153.0;1024.0;224.0;1024.0;1024.0;1024.0;1.0;4.0;0.0;0.0;0.0;0.0;0.0;;1970-01-01 00:00:02.123
3384.0;3387.0;0.0;-1.0;-1.0;-1.0;-1.0;-1.0;121.0;0.0;0.0;0.0;0.0;0.0;0.0;0.0;0.0;0.0;0.0;0.0;0.0;0.0;0.0;329.0;141.0;7.22531;330.19599999999997;143.963;0.0;1.0;1.0;-0.350015;-0.54006;-2.02704;-0.316368;-0.5323399999999999;-2.00409;-0.783648;-0.261562;0.054301999999999996;-1.06544;-0.0452022;-0.5817439999999999;0.0;0.0;0.0;0.0;0.250159;-1.14006;-2.75516;0.0;0.0;0.0;675.0;650.0;942.0;1160.0;1024.0;224.0;1024.0;1024.0;1024.0;1.0;4.0;0.0;0.0;0.0;0.0;0.0;;1970-01-01 00:00:02.134
3384.0;3387.0;0.0;-1.0;-1.0;-1.0;-1.0;-1.0;121.0;0.0;0.0;0.0;0.0;0.0;0.0;0.0;0.0;0.0;0.0;0.0;0.0;0.0;0.0;329.0;141.0;7.22531;330.19599999999997;143.963;0.0;1.0;1.0;-0.350015;-0.54006;-2.02704;-0.316368;-0.5323399999999999;-2.00409;-0.783648;-0.261562;0.054301999999999996;-1.06544;-0.0452022;-0.5817439999999999;0.0;0.0;0.0;0.0;0.250159;-1.14006;-2.75516;0.0;0.0;0.0;675.0;650.0;942.0;1160.0;1024.0;224.0;1024.0;1024.0;1024.0;1.0;4.0;0.0;0.0;0.0;0.0;0.0;;1970-01-01 00:00:02.145
3385.0;3388.0;0.0;-1.0;-1.0;-1.0;-1.0;-1.0;122.0;0.0;0.0;0.0;0.0;0.0;0.0;0.0;0.0;0.0;0.0;0.0;0.0;0.0;0.0;331.0;140.0;7.2414;332.131;143.248;0.0;2.0;1.0;-0.36524;-0.532;-2.0245599999999997;-0.33103;-0.5322399999999999;-2.01023;-0.785626;-0.229365;-0.0112249;-0.969733;0.118176;-1.02407;0.0;0.0;0.0;0.0;0.255418;-1.1320000000000001;-2.79828;0.0;0.0;0.0;675.0;650.0;947.0;1161.0;1024.0;224.0;1024.0;1024.0;1024.0;1.0;4.0;0.0;0.0;0.0;0.0;0.0;;1970-01-01 00:00:02.156
3386.0;3389.0;0.0;-1.0;-1.0;-1.0;-1.0;-1.0;123.0;0.0;0.0;0.0;0.0;0.0;0.0;0.0;0.0;0.0;0.0;0.0;0.0;0.0;0.0;332.0;140.0;7.1686;333.751;142.781;0.0;3.0;1.0;-0.365755;-0.5424800000000001;-2.05324;-0.34144800000000003;-0.5353100000000001;-2.02313;-0.762407;-0.199233;-0.106955;-0.675269;0.363551;-1.62166;0.0;0.0;0.0;0.0;0.24660100000000001;-1.14248;-2.85878;0.0;0.0;0.0;675.0;650.0;948.0;1170.0;1024.0;224.0;1024.0;1024.0;1024.0;1.0;4.0;0.0;0.0;0.0;0.0;0.0;;1970-01-01 00:00:02.167
3386.0;3389.0;0.0;-1.0;-1.0;-1.0;-1.0;-1.0;123.0;0.0;0.0;0.0;0.0;0.0;0.0;0.0;0.0;0.0;0.0;0.0;0.0;0.0;0.0;332.0;140.0;7.1686;333.751;142.781;0.0;3.0;1.0;-0.365755;-0.5424800000000001;-2.05324;-0.34144800000000003;-0.5353100000000001;-2.02313;-0.762407;-0.199233;-0.106955;-0.675269;0.363551;-1.62166;0.0;0.0;0.0;0.0;0.24660100000000001;-1.14248;-2.85878;0.0;0.0;0.0;675.0;650.0;948.0;1170.0;1024.0;224.0;1024.0;1024.0;1024.0;1.0;4.0;0.0;0.0;0.0;0.0;0.0;;1970-01-01 00:00:02.178
3387.0;3390.0;0.0;-1.0;-1.0;-1.0;-1.0;-1.0;124.0;0.0;0.0;0.0;0.0;0.0;0.0;0.0;0.0;0.0;0.0;0.0;0.0;0.0;0.0;333.0;141.0;6.9789699999999995;335.167;142.775;0.0;4.0;1.0;-0.355672;-0.57677;-2.12683;-0.345715;-0.54775;-2.05424;-0.70249;-0.215629;-0.29788000000000003;-0.0870911;0.5252899999999999;-2.59443;0.0;0.0;0.0;0.0;0.260063;-1.17677;-2.98074;0.0;0.0;0.0;675.0;650.0;945.0;1191.0;1024.0;224.0;1024.0;1024.0;1024.0;1.0;4.0;0.0;0.0;0.0;0.0;0.0;;1970-01-01 00:00:02.189
3388.0;3391.0;0.0;-1.0;-1.0;-1.0;-1.0;-1.0;125.0;0.0;0.0;0.0;0.0;0.0;0.0;0.0;0.0;0.0;0.0;0.0;0.0;0.0;0.0;333.0;141.0;6.9789699999999995;336.81800000000004;143.328;1.0;0.0;1.0;-0.355672;-0.57677;-2.12683;-0.345715;-0.54775;-2.05424;-0.70249;-0.215629;-0.29788000000000003;-0.0870911;0.5252899999999999;-2.59443;0.0;0.0;0.0;0.0;0.284625;-1.17677;-3.07936;0.0;0.0;0.0;675.0;1824.0;945.0;1191.0;1024.0;224.0;1024.0;1024.0;1024.0;1.0;4.0;0.0;0.0;0.0;0.0;0.0;;1970-01-01 00:00:02.200
3388.0;3391.0;0.0;-1.0;-1.0;-1.0;-1.0;-1.0;125.0;0.0;0.0;0.0;0.0;0.0;0.0;0.0;0.0;0.0;0.0;0.0;0.0;0.0;0.0;333.0;141.0;6.9789699999999995;336.81800000000004;143.328;1.0;0.0;1.0;-0.355672;-0.57677;-2.12683;-0.345715;-0.54775;-2.05424;-0.70249;-0.215629;-0.29788000000000003;-0.0870911;0.5252899999999999;-2.59443;0.0;0.0;0.0;0.0;0.284625;-1.17677;-3.07936;0.0;0.0;0.0;675.0;1824.0;945.0;1191.0;1024.0;224.0;1024.0;1024.0;1024.0;1.0;4.0;0.0;0.0;0.0;0.0;0.0;;1970-01-01 00:00:02.211
3389.0;3392.0;0.0;-1.0;-1.0;-1.0;-1.0;-1.0;126.0;0.0;0.0;0.0;0.0;0.0;0.0;0.0;0.0;0.0;0.0;0.0;0.0;0.0;0.0;333.0;141.0;6.9789699999999995;338.469;143.881;2.0;0.0;1.0;-0.355672;-0.57677;-2.12683;-0.345715;-0.54775;-2.05424;-0.70249;-0.215629;-0.29788000000000003;-0.0870911;0.5252899999999999;-2.59443;0.0;0.0;0.0;0.0;0.27876;-1.17677;-3.08185;0.0;0.0;0.0;675.0;1824.0;945.0;1191.0;1024.0;224.0;1024.0;1024.0;1024.0;1.0;4.0;0.0;0.0;0.0;0.0;0.0;;1970-01-01 00:00:02.222
3390.0;3393.0;0.0;-1.0;-1.0;-1.0;-1.0;-1.0;127.0;0.0;0.0;0.0;0.0;0.0;0.0;0.0;0.0;0.0;0.0;0.0;0.0;0.0;0.0;337.0;140.0;7.095219999999999;339.461;142.691;0.0;1.0;1.0;-0.39436;-0.5532600000000001;-2.08275;-0.360308;-0.5494;-2.0628;-0.6116;-0.197177;-0.379269;0.506653;0.5977779999999999;-2.98749;0.0;0.0;0.0;0.0;0.23665799999999998;-1.15326;-3.0392099999999997;0.0;0.0;0.0;675.0;1824.0;945.0;1191.0;1024.0;224.0;1024.0;1024.0;1024.0;1.0;4.0;0.0;0.0;0.0;0.0;0.0;;1970-01-01 00:00:02.233
3390.0;3393.0;0.0;-1.0;-1.0;-1.0;-1.0;-1.0;127.0;0.0;0.0;0.0;0.0;0.0;0.0;0.0;0.0;0.0;0.0;0.0;0.0;0.0;0.0;337.0;140.0;7.095219999999999;339.461;142.691;0.0;1.0;1.0;-0.39436;-0.5532600000000001;-2.08275;-0.360308;-0.5494;-2.0628;-0.6116;-0.197177;-0.379269;0.506653;0.5977779999999999;-2.98749;0.0;0.0;0.0;0.0;0.23665799999999998;-1.15326;-3.0392099999999997;0.0;0.0;0.0;675.0;1824.0;945.0;1191.0;1024.0;224.0;1024.0;1024.0;1024.0;1.0;4.0;0.0;0.0;0.0;0.0;0.0;;1970-01-01 00:00:02.244
3391.0;3394.0;0.0;-1.0;-1.0;-1.0;-1.0;-1.0;128.0;0.0;0.0;0.0;0.0;0.0;0.0;0.0;0.0;0.0;0.0;0.0;0.0;0.0;0.0;337.0;140.0;7.095219999999999;341.084;143.17;1.0;0.0;1.0;-0.39436;-0.5532600000000001;-2.08275;-0.360308;-0.5494;-2.0628;-0.6116;-0.197177;-0.379269;0.506653;0.5977779999999999;-2.98749;0.0;0.0;0.0;0.0;0.280519;-1.15326;-3.0843700000000003;0.0;0.0;0.0;675.0;1824.0;945.0;1191.0;1024.0;224.0;1024.0;1024.0;1024.0;1.0;4.0;0.0;0.0;0.0;0.0;0.0;;1970-01-01 00:00:02.255
3392.0;3395.0;0.0;-1.0;-1.0;-1.0;-1.0;-1.0;129.0;0.0;0.0;0.0;0.0;0.0;0.0;0.0;0.0;0.0;0.0;0.0;0.0;0.0;0.0;337.0;140.0;7.095219999999999;342.707;143.649;2.0;0.0;1.0;-0.39436;-0.5532600000000001;-2.08275;-0.360308;-0.5494;-2.0628;-0.6116;-0.197177;-0.379269;0.506653;0.5977779999999999;-2.98749;0.0;0.0;0.0;0.0;0.275413;-1.15326;-3.08753;0.0;0.0;0.0;675.0;1824.0;945.0;1191.0;1024.0;224.0;1024.0;1024.0;1024.0;1.0;4.0;0.0;0.0;0.0;0.0;0.0;;1970-01-01 00:00:02.266
3392.0;3395.0;0.0;-1.0;-1.0;-1.0;-1.0;-1.0;129.0;0.0;0.0;0.0;0.0;0.0;0.0;0.0;0.0;0.0;0.0;0.0;0.0;0.0;0.0;337.0;140.0;7.095219999999999;342.707;143.649;2.0;0.0;1.0;-0.39436;-0.5532600000000001;-2.08275;-0.360308;-0.5494;-2.0628;-0.6116;-0.197177;-0.379269;0.506653;0.5977779999999999;-2.98749;0.0;0.0;0.0;0.0;0.275413;-1.15326;-3.08753;0.0;0.0;0.0;675.0;1824.0;945.0;1191.0;1024.0;224.0;1024.0;1024.0;1024.0;1.0;4.0;0.0;0.0;0.0;0.0;0.0;;1970-01-01 00:00:02.277
3393.0;3396.0;0.0;-1.0;-1.0;-1.0;-1.0;-1.0;130.0;0.0;0.0;0.0;0.0;0.0;0.0;0.0;0.0;0.0;0.0;0.0;0.0;0.0;0.0;337.0;140.0;7.095219999999999;344.33;144.128;3.0;0.0;1.0;-0.39436;-0.5532600000000001;-2.08275;-0.360308;-0.5494;-2.0628;-0.6116;-0.197177;-0.379269;0.506653;0.5977779999999999;-2.98749;0.0;0.0;0.0;0.0;0.270307;-1.15326;-3.0907;0.0;0.0;0.0;675.0;1824.0;945.0;1191.0;1024.0;224.0;1024.0;1024.0;1024.0;1.0;4.0;0.0;0.0;0.0;0.0;0.0;;1970-01-01 00:00:02.288
3394.0;3397.0;0.0;-1.0;-1.0;-1.0;-1.0;-1.0;131.0;0.0;0.0;0.0;0.0;0.0;0.0;0.0;0.0;0.0;0.0;0.0;0.0;0.0;0.0;344.0;139.0;7.12662;345.774;141.82299999999998;0.0;1.0;1.0;-0.446042;-0.54277;-2.0739099999999997;-0.386029;-0.5474100000000001;-2.06613;-0.534818;-0.15499100000000002;-0.37106300000000003;0.902383;0.611092;-2.83284;0.0;0.0;0.0;0.0;0.21507800000000002;-1.14277;-3.08406;0.0;0.0;0.0;675.0;1824.0;945.0;1191.0;1024.0;224.0;1024.0;1024.0;1024.0;1.0;4.0;0.0;0.0;0.0;0.0;0.0;;1970-01-01 00:00:02.299
3395.0;3398.0;0.0;-1.0;-1.0;-1.0;-1.0;-1.0;132.0;0.0;0.0;0.0;0.0;0.0;0.0;0.0;0.0;0.0;0.0;0.0;0.0;0.0;0.0;346.0;139.0;6.92479;347.485;141.007;0.0;2.0;1.0;-0.444308;-0.57317;-2.15767;-0.403512;-0.55514;-2.0935900000000003;-0.510682;-0.14264200000000002;-0.417571;1.1359299999999999;0.6256520000000001;-2.7274;0.0;0.0;0.0;0.0;0.2546;-1.17317;-3.1665799999999997;0.0;0.0;0.0;675.0;1824.0;945.0;1191.0;1024.0;224.0;1024.0;1024.0;1024.0;1.0;4.0;0.0;0.0;0.0;0.0;0.0;;1970-01-01 00:00:02.310
3395.0;3398.0;0.0;-1.0;-1.0;-1.0;-1.0;-1.0;132.0;0.0;0.0;0.0;0.0;0.0;0.0;0.0;0.0;0.0;0.0;0.0;0.0;0.0;0.0;346.0;139.0;6.92479;347.485;141.007;0.0;2.0;1.0;-0.444308;-0.57317;-2.15767;-0.403512;-0.55514;-2.0935900000000003;-0.510682;-0.14264200000000002;-0.417571;1.1359299999999999;0.6256520000000001;-2.7274;0.0;0.0;0.0;0.0;0.2546;-1.17317;-3.1665799999999997;0.0;0.0;0.0;675.0;1824.0;945.0;1191.0;1024.0;224.0;1024.0;1024.0;1024.0;1.0;4.0;0.0;0.0;0.0;0.0;0.0;;1970-01-01 00:00:02.321
3396.0;3399.0;0.0;-1.0;-1.0;-1.0;-1.0;-1.0;133.0;0.0;0.0;0.0;0.0;0.0;0.0;0.0;0.0;0.0;0.0;0.0;0.0;0.0;0.0;348.0;139.0;6.88925;349.29400000000004;140.589;0.0;3.0;1.0;-0.455928;-0.5787;-2.17293;-0.41923699999999997;-0.56221;-2.1173900000000003;-0.498515;-0.150855;-0.48393500000000006;1.30685;0.5463779999999999;-2.66595;0.0;0.0;0.0;0.0;0.25203000000000003;-1.1787;-3.21172;0.0;0.0;0.0;675.0;650.0;945.0;1191.0;1024.0;224.0;1024.0;1024.0;1024.0;1.0;4.0;0.0;0.0;0.0;0.0;0.0;;1970-01-01 00:00:02.332
3397.0;3400.0;0.0;-1.0;-1.0;-1.0;-1.0;-1.0;134.0;0.0;0.0;0.0;0.0;0.0;0.0;0.0;0.0;0.0;0.0;0.0;0.0;0.0;0.0;349.0;138.0;7.31159;350.82099999999997;139.991;0.0;4.0;1.0;-0.49418;-0.5107;-2.00497;-0.44172;-0.54676;-2.08367;-0.517493;-0.11543900000000001;-0.422192;1.31751;0.510323;-2.28613;0.0;0.0;0.0;0.0;0.21981900000000001;-1.1107;-3.0826;0.0;0.0;0.0;675.0;650.0;945.0;1191.0;1024.0;224.0;1024.0;1024.0;1024.0;1.0;4.0;0.0;0.0;0.0;0.0;0.0;;1970-01-01 00:00:02.343
3397.0;3400.0;0.0;-1.0;-1.0;-1.0;-1.0;-1.0;134.0;0.0;0.0;0.0;0.0;0.0;0.0;0.0;0.0;0.0;0.0;0.0;0.0;0.0;0.0;349.0;138.0;7.31159;350.82099999999997;139.991;0.0;4.0;1.0;-0.49418;-0.5107;-2.00497;-0.44172;-0.54676;-2.08367;-0.517493;-0.11543900000000001;-0.422192;1.31751;0.510323;-2.28613;0.0;0.0;0.0;0.0;0.21981900000000001;-1.1107;-3.0826;0.0;0.0;0.0;675.0;650.0;945.0;1191.0;1024.0;224.0;1024.0;1024.0;1024.0;1.0;4.0;0.0;0.0;0.0;0.0;0.0;;1970-01-01 00:00:02.354
3398.0;3401.0;0.0;-1.0;-1.0;-1.0;-1.0;-1.0;135.0;0.0;0.0;0.0;0.0;0.0;0.0;0.0;0.0;0.0;0.0;0.0;0.0;0.0;0.0;350.0;138.0;7.09323;352.173;139.585;0.0;5.0;1.0;-0.48564300000000005;-0.54181;-2.09131;-0.45489700000000005;-0.54527;-2.08596;-0.548283;-0.0638716;-0.322388;1.12636;0.636706;-1.42505;0.0;0.0;0.0;0.0;0.211905;-1.14181;-3.13806;0.0;0.0;0.0;675.0;650.0;945.0;1191.0;1024.0;224.0;1024.0;1024.0;1024.0;1.0;4.0;0.0;0.0;0.0;0.0;0.0;;1970-01-01 00:00:02.365
3399.0;3402.0;0.0;415.949;283.846;7.51318;415.949;283.846;0.0;1.0;1.0;0.0475999;-1.79195;-2.19601;0.0475999;-1.79195;-2.19601;0.0;0.0;0.0;0.0;0.0;0.0;352.0;137.0;6.9943;353.72900000000004;138.969;0.0;6.0;1.0;-0.492637;-0.5505899999999999;-2.13614;-0.46621899999999994;-0.54687;-2.10101;-0.610892;-0.031582099999999995;-0.295162;0.6776989999999999;0.8228200000000001;-0.631151;1.0;0.0;0.0;0.0;0.18194200000000002;-1.15059;-3.1274900000000003;0.0;0.0;0.0;644.456;650.0;945.0;1191.0;1024.0;224.0;1024.0;1024.0;1024.0;1.0;4.0;0.0;56.8012;0.0;0.0;0.0;;1970-01-01 00:00:02.376
3399.0;3402.0;0.0;415.949;283.846;7.51318;415.949;283.846;0.0;1.0;1.0;0.0475999;-1.79195;-2.19601;0.0475999;-1.79195;-2.19601;0.0;0.0;0.0;0.0;0.0;0.0;352.0;137.0;6.9943;353.72900000000004;138.969;0.0;6.0;1.0;-0.492637;-0.5505899999999999;-2.13614;-0.46621899999999994;-0.54687;-2.10101;-0.610892;-0.031582099999999995;-0.295162;0.6776989999999999;0.8228200000000001;-0.631151;1.0;0.0;0.0;0.0;0.18194200000000002;-1.15059;-3.1274900000000003;0.0;0.0;0.0;644.456;650.0;945.0;1191.0;1024.0;224.0;1024.0;1024.0;1024.0;1.0;4.0;0.0;56.8012;0.0;0.0;0.0;;1970-01-01 00:00:02.387
3400.0;3403.0;0.0;412.235;272.235;7.530069999999999;415.611;282.791;0.0;2.0;1.0;0.0721011;-1.7237200000000001;-2.23348;0.05495030000000001;-1.77148;-2.20725;0.0;0.0;0.0;0.0;0.0;0.0;354.0;137.0;6.94258;355.426;138.524;0.0;7.0;1.0;-0.503232;-0.55842;-2.15801;-0.47732299999999994;-0.55033;-2.1181099999999997;-0.73106;-0.0306133;-0.38465900000000003;-0.376948;0.990317;-0.43297700000000006;1.0;0.0;0.0;0.0;0.416267;-1.15842;-2.9969099999999997;0.0;0.0;0.0;644.456;650.0;945.0;1191.0;1024.0;224.0;1024.0;1024.0;1024.0;1.0;4.0;0.0;0.0166975;0.0;0.0;0.0;;1970-01-01 00:00:02.398
3401.0;3404.0;0.0;409.88599999999997;265.314;7.514310000000001;414.691;279.982;0.0;3.0;1.0;0.0878551;-1.6889900000000002;-2.26349;0.0648217;-1.7467400000000002;-2.22412;0.0;0.0;0.0;0.0;0.0;0.0;356.0;136.0;7.0104;357.223;137.876;0.0;8.0;1.0;-0.522274;-0.5422399999999999;-2.13332;-0.49080799999999997;-0.54791;-2.12268;-0.787196;0.010512899999999999;-0.346914;-1.33025;1.2057200000000001;0.022339599999999998;1.0;0.0;0.0;0.0;0.382524;-1.14224;-2.9834099999999997;0.0;0.0;0.0;644.456;650.0;945.0;1191.0;1024.0;224.0;1024.0;1024.0;1024.0;1.0;4.0;0.0;0.0166963;0.0;0.0;0.0;;1970-01-01 00:00:02.409
3401.0;3404.0;0.0;409.88599999999997;265.314;7.514310000000001;414.691;279.982;0.0;3.0;1.0;0.0878551;-1.6889900000000002;-2.26349;0.0648217;-1.7467400000000002;-2.22412;0.0;0.0;0.0;0.0;0.0;0.0;356.0;136.0;7.0104;357.223;137.876;0.0;8.0;1.0;-0.522274;-0.5422399999999999;-2.13332;-0.49080799999999997;-0.54791;-2.12268;-0.787196;0.010512899999999999;-0.346914;-1.33025;1.2057200000000001;0.022339599999999998;1.0;0.0;0.0;0.0;0.382524;-1.14224;-2.9834099999999997;0.0;0.0;0.0;644.456;650.0;945.0;1191.0;1024.0;224.0;1024.0;1024.0;1024.0;1.0;4.0;0.0;0.0166963;0.0;0.0;0.0;;1970-01-01 00:00:02.420
3402.0;3405.0;0.0;407.647;258.0;7.498310000000001;413.225;275.407;0.0;4.0;1.0;0.10294;-1.6519700000000002;-2.29513;0.0762572;-1.7183;-2.24543;0.0;0.0;0.0;0.0;0.0;0.0;357.333;135.333;6.99293;358.88;137.189;0.0;9.0;1.0;-0.5305949999999999;-0.54087;-2.1432700000000002;-0.502744;-0.5458;-2.12885;-0.8057489999999999;0.07183719999999999;-0.25390100000000004;-2.02489;1.61261;0.931895;1.0;0.0;0.0;0.0;0.370239;-1.14087;-2.98697;0.0;0.0;0.0;644.456;650.0;1024.0;1024.0;1024.0;224.0;1024.0;1024.0;1024.0;1.0;4.0;0.0;0.016697299999999998;0.0;0.0;0.0;;1970-01-01 00:00:02.431
3403.0;3406.0;0.0;404.42400000000004;250.90900000000002;7.49154;411.13;269.573;0.0;5.0;1.0;0.1245;-1.61404;-2.32323;0.09072999999999999;-1.68703;-2.26877;0.0;0.0;0.0;0.0;0.0;0.0;359.0;135.0;6.89203;360.541;136.58;0.0;10.0;1.0;-0.5357890000000001;-0.5541;-2.1876900000000004;-0.512658;-0.5482899999999999;-2.1465;-0.766694;0.0369854;-0.40324299999999996;-2.2099599999999997;1.57618;0.634796;1.0;0.0;0.0;0.0;0.366108;-1.1541;-3.0186;0.0;0.0;0.0;644.456;650.0;1339.0;1342.0;1024.0;224.0;1024.0;1024.0;1024.0;1.0;4.0;0.0;0.0166963;0.0;0.0;0.0;;1970-01-01 00:00:02.442
3403.0;3406.0;0.0;404.42400000000004;250.90900000000002;7.49154;411.13;269.573;0.0;5.0;1.0;0.1245;-1.61404;-2.32323;0.09072999999999999;-1.68703;-2.26877;0.0;0.0;0.0;0.0;0.0;0.0;359.0;135.0;6.89203;360.541;136.58;0.0;10.0;1.0;-0.5357890000000001;-0.5541;-2.1876900000000004;-0.512658;-0.5482899999999999;-2.1465;-0.766694;0.0369854;-0.40324299999999996;-2.2099599999999997;1.57618;0.634796;1.0;0.0;0.0;0.0;0.366108;-1.1541;-3.0186;0.0;0.0;0.0;644.456;650.0;1339.0;1342.0;1024.0;224.0;1024.0;1024.0;1024.0;1.0;4.0;0.0;0.0166963;0.0;0.0;0.0;;1970-01-01 00:00:02.453
3404.0;3407.0;0.0;402.056;243.667;7.48033;408.798;262.916;0.0;6.0;1.0;0.140488;-1.5761399999999999;-2.35333;0.10565699999999999;-1.65376;-2.29414;0.0;0.0;0.0;0.0;0.0;0.0;361.0;135.0;6.882569999999999;362.31199999999995;136.135;0.0;11.0;1.0;-0.549651;-0.55555;-2.1918;-0.523756;-0.55047;-2.1600900000000003;-0.7349600000000001;0.00145447;-0.537942;-2.07136;1.20654;-0.479799;1.0;0.0;0.0;0.0;0.361294;-1.15555;-3.03863;0.0;0.0;0.0;644.456;650.0;1303.0;1362.0;1024.0;224.0;1024.0;1024.0;1024.0;1.0;4.0;0.0;0.016697299999999998;0.0;0.0;0.0;;1970-01-01 00:00:02.464
3405.0;3408.0;0.0;399.68800000000005;236.375;7.43233;406.344;255.768;0.0;7.0;1.0;0.15729400000000002;-1.5454700000000001;-2.3955;0.121148;-1.62127;-2.32455;0.73415;1.7037;-1.2830000000000001;7.31982;17.3211;-12.4208;361.0;135.0;6.882569999999999;363.94300000000004;136.173;1.0;0.0;1.0;-0.549651;-0.55555;-2.1918;-0.523756;-0.55047;-2.1600900000000003;-0.7349600000000001;0.00145447;-0.537942;-2.07136;1.20654;-0.479799;1.0;0.0;0.0;0.0;0.372709;-1.15555;-3.04862;0.0;0.0;0.0;644.456;650.0;1274.0;1358.0;1024.0;224.0;1024.0;1024.0;1024.0;1.0;4.0;0.0;0.0166963;0.0;0.0;0.0;;1970-01-01 00:00:02.475
3406.0;3409.0;0.0;396.51599999999996;229.032;7.37403;403.611;248.324;0.0;8.0;1.0;0.179998;-1.5162200000000001;-2.44181;0.138803;-1.58976;-2.35973;0.7752939999999999;1.7478099999999999;-1.37859;5.72982;12.4766;-10.2692;361.0;135.0;6.882569999999999;365.574;136.211;2.0;0.0;1.0;-0.549651;-0.55555;-2.1918;-0.523756;-0.55047;-2.1600900000000003;-0.7349600000000001;0.00145447;-0.537942;-2.07136;1.20654;-0.479799;1.0;0.0;0.0;0.0;0.378673;-1.15555;-3.04426;0.0;0.0;0.0;644.456;650.0;1256.0;1349.0;1024.0;224.0;1024.0;1024.0;1024.0;1.0;4.0;0.0;0.016697299999999998;0.0;0.0;0.0;;1970-01-01 00:00:02.486
3406.0;3409.0;0.0;396.51599999999996;229.032;7.37403;403.611;248.324;0.0;8.0;1.0;0.179998;-1.5162200000000001;-2.44181;0.138803;-1.58976;-2.35973;0.7752939999999999;1.7478099999999999;-1.37859;5.72982;12.4766;-10.2692;361.0;135.0;6.882569999999999;365.574;136.211;2.0;0.0;1.0;-0.549651;-0.55555;-2.1918;-0.523756;-0.55047;-2.1600900000000003;-0.7349600000000001;0.00145447;-0.537942;-2.07136;1.20654;-0.479799;1.0;0.0;0.0;0.0;0.378673;-1.15555;-3.04426;0.0;0.0;0.0;644.456;650.0;1256.0;1349.0;1024.0;224.0;1024.0;1024.0;1024.0;1.0;4.0;0.0;0.016697299999999998;0.0;0.0;0.0;;1970-01-01 00:00:02.497
3407.0;3410.0;0.0;394.25;222.312;7.3999;400.93300000000005;240.87900000000002;0.0;9.0;1.0;0.19465;-1.4731100000000001;-2.45825;0.155557;-1.5547600000000001;-2.38928;0.8274610000000001;1.81519;-1.4865899999999999;4.38108;8.81489;-8.06275;361.0;135.0;6.882569999999999;367.205;136.248;3.0;0.0;1.0;-0.549651;-0.55555;-2.1918;-0.523756;-0.55047;-2.1600900000000003;-0.7349600000000001;0.00145447;-0.537942;-2.07136;1.20654;-0.479799;1.0;0.0;0.0;0.0;0.38345799999999997;-1.15555;-3.0407599999999997;0.0;0.0;0.0;644.456;650.0;1236.0;1365.0;1024.0;224.0;1024.0;1024.0;1024.0;1.0;4.0;0.0;0.0166963;0.0;0.0;0.0;;1970-01-01 00:00:02.508
3408.0;3411.0;0.0;391.61300000000006;214.903;7.4092;398.20099999999996;233.261;0.0;10.0;1.0;0.212166;-1.42961;-2.48265;0.17254;-1.51722;-2.41729;0.880908;1.8920099999999997;-1.57818;3.4113599999999997;6.04478;-6.04484;368.0;134.0;6.9223300000000005;369.233;135.162;0.0;1.0;1.0;-0.602698;-0.54347;-2.1785799999999997;-0.547438;-0.54837;-2.1656400000000002;-0.657172;-0.00311604;-0.49478999999999995;-1.36601;0.7996989999999999;-0.819264;1.0;0.0;0.0;0.0;0.33766599999999997;-1.14347;-3.02223;0.0;0.0;0.0;644.456;650.0;1271.0;1340.0;1024.0;224.0;1024.0;1024.0;1024.0;1.0;4.0;0.0;0.0166975;0.0;0.0;0.0;;1970-01-01 00:00:02.519
3408.0;3411.0;0.0;391.61300000000006;214.903;7.4092;398.20099999999996;233.261;0.0;10.0;1.0;0.212166;-1.42961;-2.48265;0.17254;-1.51722;-2.41729;0.880908;1.8920099999999997;-1.57818;3.4113599999999997;6.04478;-6.04484;368.0;134.0;6.9223300000000005;369.233;135.162;0.0;1.0;1.0;-0.602698;-0.54347;-2.1785799999999997;-0.547438;-0.54837;-2.1656400000000002;-0.657172;-0.00311604;-0.49478999999999995;-1.36601;0.7996989999999999;-0.819264;1.0;0.0;0.0;0.0;0.33766599999999997;-1.14347;-3.02223;0.0;0.0;0.0;644.456;650.0;1271.0;1340.0;1024.0;224.0;1024.0;1024.0;1024.0;1.0;4.0;0.0;0.0166975;0.0;0.0;0.0;;1970-01-01 00:00:02.530
3409.0;3412.0;0.0;389.0;208.0;7.421130000000001;395.43699999999995;225.66400000000002;0.0;11.0;1.0;0.22939400000000001;-1.38858;-2.5042400000000002;0.18959600000000001;-1.4786299999999999;-2.44338;0.923291;1.9673;-1.64408;2.2722700000000002;4.001930000000001;-4.609430000000001;370.0;134.0;6.76456;371.189;134.685;0.0;2.0;1.0;-0.6081850000000001;-0.56781;-2.24805;-0.565662;-0.5542;-2.1903599999999996;-0.629454;-0.012157600000000001;-0.489195;-0.549138;0.5289470000000001;-0.769822;1.0;0.0;0.0;0.0;0.34017600000000003;-1.16781;-3.0869299999999997;0.0;0.0;0.0;644.456;1824.0;1271.0;1340.0;1024.0;224.0;1024.0;1024.0;1024.0;1.0;4.0;0.0;0.0166963;0.0;0.0;0.0;;1970-01-01 00:00:02.541
3410.0;3413.0;0.0;386.82800000000003;200.828;7.2813;392.776;218.00400000000002;0.0;12.0;1.0;0.248687;-1.37422;-2.5794099999999998;0.207323;-1.4473;-2.4841900000000003;0.959902;2.0047099999999998;-1.74527;1.6265100000000001;2.45105;-3.66776;371.0;133.0;6.944039999999999;372.781;134.05100000000002;0.0;3.0;1.0;-0.625498;-0.5342100000000001;-2.1732299999999998;-0.583613;-0.5482;-2.18522;-0.624708;-0.00808307;-0.46001099999999995;0.10304;0.267868;-0.762943;1.0;0.0;0.0;0.0;0.33467399999999997;-1.13421;-3.00418;0.0;0.0;0.0;644.456;1824.0;1271.0;1340.0;1024.0;224.0;1024.0;1024.0;1024.0;1.0;4.0;0.0;0.016697299999999998;0.0;0.0;0.0;;1970-01-01 00:00:02.552
3410.0;3413.0;0.0;386.82800000000003;200.828;7.2813;392.776;218.00400000000002;0.0;12.0;1.0;0.248687;-1.37422;-2.5794099999999998;0.207323;-1.4473;-2.4841900000000003;0.959902;2.0047099999999998;-1.74527;1.6265100000000001;2.45105;-3.66776;371.0;133.0;6.944039999999999;372.781;134.05100000000002;0.0;3.0;1.0;-0.625498;-0.5342100000000001;-2.1732299999999998;-0.583613;-0.5482;-2.18522;-0.624708;-0.00808307;-0.46001099999999995;0.10304;0.267868;-0.762943;1.0;0.0;0.0;0.0;0.33467399999999997;-1.13421;-3.00418;0.0;0.0;0.0;644.456;1824.0;1271.0;1340.0;1024.0;224.0;1024.0;1024.0;1024.0;1.0;4.0;0.0;0.016697299999999998;0.0;0.0;0.0;;1970-01-01 00:00:02.563
3411.0;3414.0;0.0;385.35699999999997;193.143;7.21177;390.39300000000003;210.146;0.0;13.0;1.0;0.261259;-1.3431;-2.63357;0.223504;-1.41604;-2.529;0.9846219999999999;2.0222599999999997;-1.8635;1.9759799999999998;2.74255;-4.51847;373.0;133.0;6.9128;374.51300000000003;133.64;0.0;4.0;1.0;-0.638243;-0.53888;-2.18666;-0.600002;-0.5454100000000001;-2.18566;-0.6337149999999999;-0.00381188;-0.427209;0.5197609999999999;-0.0406497;-0.9190940000000001;1.0;0.0;0.0;0.0;0.327411;-1.13888;-3.0119599999999997;0.0;0.0;0.0;644.456;1824.0;1271.0;1340.0;1024.0;224.0;1024.0;1024.0;1024.0;1.0;4.0;0.0;0.0166963;0.0;0.0;0.0;;1970-01-01 00:00:02.574
3412.0;3415.0;0.0;384.267;185.733;7.03377;388.32599999999996;202.217;0.0;14.0;1.0;0.275607;-1.33322;-2.72918;0.239135;-1.3912;-2.58906;0.991373;2.00616;-2.03376;2.04834;2.67705;-5.32701;374.0;133.0;6.7816600000000005;376.005;133.36;0.0;5.0;1.0;-0.638605;-0.55897;-2.24442;-0.611583;-0.54948;-2.20328;-0.643556;-0.00545304;-0.407471;0.6396350000000001;-0.137356;-0.56271;1.0;0.0;0.0;0.0;0.331241;-1.15897;-3.06475;0.0;0.0;0.0;644.456;1824.0;1271.0;1340.0;1024.0;224.0;1024.0;1024.0;1024.0;1.0;4.0;0.0;0.016697299999999998;0.0;0.0;0.0;;1970-01-01 00:00:02.585
3412.0;3415.0;0.0;384.267;185.733;7.03377;388.32599999999996;202.217;0.0;14.0;1.0;0.275607;-1.33322;-2.72918;0.239135;-1.3912;-2.58906;0.991373;2.00616;-2.03376;2.04834;2.67705;-5.32701;374.0;133.0;6.7816600000000005;376.005;133.36;0.0;5.0;1.0;-0.638605;-0.55897;-2.24442;-0.611583;-0.54948;-2.20328;-0.643556;-0.00545304;-0.407471;0.6396350000000001;-0.137356;-0.56271;1.0;0.0;0.0;0.0;0.331241;-1.15897;-3.06475;0.0;0.0;0.0;644.456;1824.0;1271.0;1340.0;1024.0;224.0;1024.0;1024.0;1024.0;1.0;4.0;0.0;0.016697299999999998;0.0;0.0;0.0;;1970-01-01 00:00:02.596
3413.0;3416.0;0.0;383.5;179.188;6.85929;386.587;194.484;0.0;15.0;1.0;0.288195;-1.32739;-2.82484;0.253853;-1.37206;-2.65979;0.987294;1.9332;-2.3003299999999998;1.8671799999999998;2.07741;-6.44525;375.333;132.667;6.94165;377.441;133.05700000000002;0.0;6.0;1.0;-0.656519;-0.53257;-2.17557;-0.6250640000000001;-0.5444;-2.19497;-0.655806;0.012864700000000001;-0.337329;0.594482;-0.052040699999999995;0.19638699999999998;1.0;0.0;0.0;0.0;0.31806799999999996;-1.13257;-2.99166;0.0;0.0;0.0;644.456;1824.0;1271.0;1340.0;1024.0;224.0;1024.0;1024.0;1024.0;1.0;4.0;0.0;0.0166963;0.0;0.0;0.0;;1970-01-01 00:00:02.607
3414.0;3417.0;0.0;383.29;172.581;6.75023;385.25699999999995;186.87599999999998;0.0;16.0;1.0;0.294401;-1.30808;-2.89739;0.266017;-1.35286;-2.73107;0.9656100000000001;1.81614;-2.6330400000000003;1.4585;0.943541;-8.07895;377.0;132.0;7.035139999999999;378.944;132.629;0.0;7.0;1.0;-0.672905;-0.5149;-2.13864;-0.639416;-0.53555;-2.17807;-0.760739;0.0588865;-0.252035;-0.0568371;0.21634299999999998;1.08712;1.0;0.0;0.0;0.0;0.32709499999999997;-1.0149;-2.9386400000000004;0.0;0.0;0.0;644.456;650.0;1271.0;1340.0;1024.0;224.0;1024.0;1024.0;1024.0;1.0;4.0;0.0;0.016697299999999998;0.0;0.0;0.0;;1970-01-01 00:00:02.618
3414.0;3417.0;0.0;383.29;172.581;6.75023;385.25699999999995;186.87599999999998;0.0;16.0;1.0;0.294401;-1.30808;-2.89739;0.266017;-1.35286;-2.73107;0.9656100000000001;1.81614;-2.6330400000000003;1.4585;0.943541;-8.07895;377.0;132.0;7.035139999999999;378.944;132.629;0.0;7.0;1.0;-0.672905;-0.5149;-2.13864;-0.639416;-0.53555;-2.17807;-0.760739;0.0588865;-0.252035;-0.0568371;0.21634299999999998;1.08712;1.0;0.0;0.0;0.0;0.32709499999999997;-1.0149;-2.9386400000000004;0.0;0.0;0.0;644.456;650.0;1271.0;1340.0;1024.0;224.0;1024.0;1024.0;1024.0;1.0;4.0;0.0;0.016697299999999998;0.0;0.0;0.0;;1970-01-01 00:00:02.629
3415.0;3418.0;0.0;383.871;166.387;6.6017600000000005;384.464;179.481;0.0;17.0;1.0;0.296633;-1.29843;-2.98834;0.275202;-1.33653;-2.80825;0.92117;1.6570200000000002;-3.03669;0.866632;-0.672723;-10.4077;378.0;132.0;6.963310000000001;380.28;132.325;0.0;8.0;1.0;-0.676697;-0.52537;-2.16895;-0.6506;-0.5325;-2.1753299999999998;-0.7955899999999999;0.121984;-0.0912143;-0.697461;0.665417;2.24135;1.0;0.0;0.0;0.0;0.323303;-1.0253700000000001;-2.96895;0.0;0.0;0.0;644.456;650.0;1271.0;1340.0;1024.0;224.0;1024.0;1024.0;1024.0;1.0;4.0;0.0;0.0166963;0.0;0.0;0.0;;1970-01-01 00:00:02.640
3416.0;3419.0;0.0;383.478;160.428;6.51261;383.776;172.313;0.0;18.0;1.0;0.303704;-1.2781;-3.05441;0.28375300000000003;-1.319;-2.8821;0.857866;1.5064899999999999;-3.4107800000000004;0.112577;-2.3929099999999996;-12.8946;380.0;132.0;6.745019999999999;381.815;132.11;0.0;9.0;1.0;-0.68103;-0.55855;-2.26503;-0.659729;-0.5403100000000001;-2.20224;-0.781276;0.10469;-0.12269000000000001;-1.0436299999999998;0.8495370000000001;2.6916900000000004;1.0;0.0;0.0;0.0;0.31897;-1.05855;-3.06503;0.0;0.0;0.0;644.456;650.0;1271.0;1340.0;1024.0;224.0;1024.0;1024.0;1024.0;1.0;4.0;0.0;0.0166975;0.0;0.0;0.0;;1970-01-01 00:00:02.651
3417.0;3420.0;0.0;385.333;154.575;6.470680000000001;383.843;165.34599999999998;0.0;19.0;1.0;0.291365;-1.24872;-3.09907;0.286036;-1.29792;-2.94719;0.764396;1.37554;-3.71619;-0.811762;-4.0179599999999995;-15.1341;381.556;131.111;6.9271199999999995;383.353;131.675;0.0;10.0;1.0;-0.700621;-0.5253800000000001;-2.18799;-0.6719970000000001;-0.53583;-2.19797;-0.756231;0.101038;-0.12277;-1.1153600000000001;0.928375;2.83059;1.0;0.0;0.0;0.0;0.299379;-1.02538;-2.98799;0.0;0.0;0.0;644.456;650.0;1271.0;1340.0;1024.0;224.0;1024.0;1024.0;1024.0;1.0;4.0;0.0;0.0166963;0.0;0.0;0.0;;1970-01-01 00:00:02.662
3417.0;3420.0;0.0;385.333;154.575;6.470680000000001;383.843;165.34599999999998;0.0;19.0;1.0;0.291365;-1.24872;-3.09907;0.286036;-1.29792;-2.94719;0.764396;1.37554;-3.71619;-0.811762;-4.0179599999999995;-15.1341;381.556;131.111;6.9271199999999995;383.353;131.675;0.0;10.0;1.0;-0.700621;-0.5253800000000001;-2.18799;-0.6719970000000001;-0.53583;-2.19797;-0.756231;0.101038;-0.12277;-1.1153600000000001;0.928375;2.83059;1.0;0.0;0.0;0.0;0.299379;-1.02538;-2.98799;0.0;0.0;0.0;644.456;650.0;1271.0;1340.0;1024.0;224.0;1024.0;1024.0;1024.0;1.0;4.0;0.0;0.0166963;0.0;0.0;0.0;;1970-01-01 00:00:02.673
3418.0;3421.0;0.0;387.80400000000003;149.155;6.353680000000001;384.652;158.659;0.0;20.0;1.0;0.27733;-1.23619;-3.17959;0.28342399999999995;-1.2794;-3.0169099999999998;0.635474;1.2717;-3.93802;-1.9080700000000002;-5.3432900000000005;-16.6837;383.0;131.0;6.88282;384.858;131.33;0.0;11.0;1.0;-0.709166;-0.5313100000000001;-2.2076599999999997;-0.6831470000000001;-0.5344800000000001;-2.2008799999999997;-0.739486;0.120519;-0.0640423;-1.05225;1.0600100000000001;3.06962;1.0;0.0;0.0;0.0;0.29083400000000004;-1.03131;-3.00766;0.0;0.0;0.0;644.456;650.0;1271.0;1340.0;1024.0;224.0;1024.0;1024.0;1024.0;1.0;4.0;0.0;0.016697299999999998;0.0;0.0;0.0;;1970-01-01 00:00:02.684
3419.0;3422.0;0.0;390.417;144.405;6.18853;386.05300000000005;152.384;0.0;21.0;1.0;0.26366100000000003;-1.2372100000000001;-3.28554;0.277495;-1.26674;-3.0975;0.47568299999999997;1.18351;-4.110469999999999;-3.18758;-6.19928;-17.2376;385.0;131.0;6.98897;386.51599999999996;131.085;0.0;12.0;1.0;-0.727862;-0.51565;-2.16198;-0.696562;-0.52883;-2.1892099999999997;-0.729174;0.134507;-0.0154153;-0.924298;1.12171;3.1271299999999997;1.0;0.0;0.0;0.0;0.272138;-1.01565;-2.96198;0.0;0.0;0.0;644.456;650.0;1310.0;641.0;1024.0;224.0;1024.0;1024.0;1024.0;1.0;4.0;0.0;0.0166963;0.0;0.0;0.0;;1970-01-01 00:00:02.695
3419.0;3422.0;0.0;390.417;144.405;6.18853;386.05300000000005;152.384;0.0;21.0;1.0;0.26366100000000003;-1.2372100000000001;-3.28554;0.277495;-1.26674;-3.0975;0.47568299999999997;1.18351;-4.110469999999999;-3.18758;-6.19928;-17.2376;385.0;131.0;6.98897;386.51599999999996;131.085;0.0;12.0;1.0;-0.727862;-0.51565;-2.16198;-0.696562;-0.52883;-2.1892099999999997;-0.729174;0.134507;-0.0154153;-0.924298;1.12171;3.1271299999999997;1.0;0.0;0.0;0.0;0.272138;-1.01565;-2.96198;0.0;0.0;0.0;644.456;650.0;1310.0;641.0;1024.0;224.0;1024.0;1024.0;1024.0;1.0;4.0;0.0;0.0166963;0.0;0.0;0.0;;1970-01-01 00:00:02.706
3420.0;3423.0;0.0;392.49300000000005;139.178;6.10168;387.723;146.27;0.0;22.0;1.0;0.25043200000000004;-1.21915;-3.35586;0.269376;-1.25247;-3.17501;0.298821;1.11097;-4.23881;-4.57487;-6.53514;-16.754;385.0;131.0;6.98897;388.13;130.941;1.0;0.0;1.0;-0.727862;-0.51565;-2.16198;-0.696562;-0.52883;-2.1892099999999997;-0.729174;0.134507;-0.0154153;-0.924298;1.12171;3.1271299999999997;1.0;0.0188463;-0.164936;-0.253602;0.25053000000000003;-1.0875299999999999;-2.9214;7.59174;11.4408;7.59174;644.456;676.0;1087.0;757.0;1024.0;224.0;1024.0;1024.0;1024.0;1.0;4.0;0.0;0.016697299999999998;0.0565389;-0.23091;-0.634005;;1970-01-01 00:00:02.717
3421.0;3424.0;0.0;395.89300000000003;135.813;5.94222;389.99699999999996;140.847;0.0;23.0;1.0;0.22859899999999997;-1.2282899999999999;-3.4614800000000003;0.257143;-1.24521;-3.26095;0.107188;1.03121;-4.35079;-5.99495;-6.41979;-15.2993;385.0;131.0;6.98897;389.745;130.797;2.0;0.0;1.0;-0.727862;-0.51565;-2.16198;-0.696562;-0.52883;-2.1892099999999997;-0.729174;0.134507;-0.0154153;-0.924298;1.12171;3.1271299999999997;1.0;0.026332599999999998;-0.12956700000000002;-0.298092;0.23081;-1.11565;-2.96286;6.40752;11.0476;6.40752;644.456;674.0;1045.0;756.0;1024.0;224.0;1024.0;1024.0;1024.0;1.0;4.0;0.0;0.0166963;0.0789979;-0.181393;-0.7452300000000001;;1970-01-01 00:00:02.728
