ID;RS_ID;time;insect_log;imLx_drone; imLy_drone; disparity_drone; imLx_pred_drone; imLy_pred_drone; n_frames_lost_drone; n_frames_tracking_drone; foundL_drone; posX_drone; posY_drone; posZ_drone; sposX_drone; sposY_drone; sposZ_drone; svelX_drone; svelY_drone; svelZ_drone; saccX_drone; saccY_drone; saccZ_drone; imLx_insect; imLy_insect; disparity_insect; imLx_pred_insect; imLy_pred_insect; n_frames_lost_insect; n_frames_tracking_insect; foundL_insect; posX_insect; posY_insect; posZ_insect; sposX_insect; sposY_insect; sposZ_insect; svelX_insect; svelY_insect; svelZ_insect; saccX_insect; saccY_insect; saccZ_insect; valid; posErrX; posErrY; posErrZ; velX; velY; velZ; accX; accY; accZ; hoverthrottle; autoThrottle; autoRoll; autoPitch; autoYaw; joyThrottle; joyRoll; joyPitch; joyYaw; joyArmSwitch; joyModeSwitch; joyTakeoffSwitch; dt; velx_sp; vely_sp; velz_sp;
3250;3253;2019/10/09 14:40:23;0;-1;-1;-1;-1;-1;100;0;0;0;0;0;0;0;0;0;0;0;0;0;0;196;54;6.47618;196;54;0;1;1;1.74995;-0.600942;-3.52339;1.74995;-0.600942;-3.52339;0;0;0;0;0;0;0;0;0;0;0;0;0;0;0;0;675;224;1024;1024;1024;224;1024;1024;1024;1;4;0;0;0;0;0; 
3251;3254;2019/10/09 14:40:23;0;-1;-1;-1;-1;-1;100;0;0;0;0;0;0;0;0;0;0;0;0;0;0;196;55;6.30187;196;54.0909;0;2;1;1.79836;-0.624172;-3.61649;1.76447;-0.607911;-3.55132;0;0;0;0;0;0;0;0;0;0;0;0;0;0;0;0;675;224;1024;1024;1024;224;1024;1024;1024;1;4;0;0;0;0;0; 
3252;3255;2019/10/09 14:40:23;0;-1;-1;-1;-1;-1;100;0;0;0;0;0;0;0;0;0;0;0;0;0;0;196;55;6.30187;196;54.0909;1;0;1;1.79836;-0.624172;-3.61649;1.76447;-0.607911;-3.55132;0;0;0;0;0;0;0;0;0;0;0;0;0;0;0;0;675;224;1024;1024;1024;224;1024;1024;1024;1;4;0;0;0;0;0; 
3253;3256;2019/10/09 14:40:23;0;-1;-1;-1;-1;-1;100;0;0;0;0;0;0;0;0;0;0;0;0;0;0;196;55;6.30187;196;54.0909;2;0;1;1.79836;-0.624172;-3.61649;1.76447;-0.607911;-3.55132;0;0;0;0;0;0;0;0;0;0;0;0;0;0;0;0;675;224;1024;1024;1024;224;1024;1024;1024;1;4;0;0;0;0;0; 
3254;3257;2019/10/09 14:40:23;0;-1;-1;-1;-1;-1;100;0;0;0;0;0;0;0;0;0;0;0;0;0;0;196;57;6.74095;196;54.9178;0;1;1;1.68122;-0.595872;-3.37277;1.7395;-0.604299;-3.49776;0;0;0;0;0;0;0;0;0;0;0;0;0;0;0;0;675;224;1024;1024;1024;224;1024;1024;1024;1;4;0;0;0;0;0; 
3255;3258;2019/10/09 14:40:23;0;-1;-1;-1;-1;-1;100;0;0;0;0;0;0;0;0;0;0;0;0;0;0;196;57;6.74095;196;54.9213;1;0;1;1.68122;-0.595872;-3.37277;1.7395;-0.604299;-3.49776;0;0;0;0;0;0;0;0;0;0;0;0;0;0;0;0;675;224;1024;1024;1024;224;1024;1024;1024;1;4;0;0;0;0;0; 
3256;3259;2019/10/09 14:40:23;0;-1;-1;-1;-1;-1;100;0;0;0;0;0;0;0;0;0;0;0;0;0;0;196;58;6.5145;196;55.9485;0;1;1;1.73966;-0.622976;-3.48579;1.73955;-0.609902;-3.49417;0;0;0;0;0;0;0;0;0;0;0;0;0;0;0;0;675;224;1024;1024;1024;224;1024;1024;1024;1;4;0;0;0;0;0; 
3257;3260;2019/10/09 14:40:23;0;-1;-1;-1;-1;-1;100;0;0;0;0;0;0;0;0;0;0;0;0;0;0;196;59;6.33313;196;56.8959;0;2;1;1.78948;-0.647394;-3.58128;1.75453;-0.62115;-3.5203;0;0;0;0;0;0;0;0;0;0;0;0;0;0;0;0;675;224;1024;1024;1024;224;1024;1024;1024;1;4;0;0;0;0;0; 
3258;3261;2019/10/09 14:40:23;0;-1;-1;-1;-1;-1;100;0;0;0;0;0;0;0;0;0;0;0;0;0;0;196;60;6.41245;196;57.8316;0;3;1;1.76734;-0.645879;-3.53269;1.75837;-0.628568;-3.52402;0;0;0;0;0;0;0;0;0;0;0;0;0;0;0;0;675;224;1024;1024;1024;224;1024;1024;1024;1;4;0;0;0;0;0; 
3259;3262;2019/10/09 14:40:23;0;-1;-1;-1;-1;-1;100;0;0;0;0;0;0;0;0;0;0;0;0;0;0;196;60;6.40875;196;58.491;0;4;1;1.76837;-0.646252;-3.53473;1.76137;-0.633874;-3.52723;0.0759772;-0.219146;-0.0255217;0.291189;-1.3847;0.261857;0;0;0;0;0;0;0;0;0;0;675;224;1024;1024;1024;224;1024;1024;1024;1;4;0;0;0;0;0; 
3260;3263;2019/10/09 14:40:23;0;-1;-1;-1;-1;-1;100;0;0;0;0;0;0;0;0;0;0;0;0;0;0;197;61;6.41724;196.289;59.2541;0;5;1;1.75825;-0.651887;-3.52577;1.76043;-0.639277;-3.52679;0.0348341;-0.21498;0.0499838;-2.04754;-0.292035;4.74253;0;0;0;0;0;0;0;0;0;0;675;224;1024;1024;1024;224;1024;1024;1024;1;4;0;0;0;0;0; 
3261;3264;2019/10/09 14:40:23;0;-1;-1;-1;-1;-1;100;0;0;0;0;0;0;0;0;0;0;0;0;0;0;197;61;6.27925;196.499;59.8091;0;6;1;1.79689;-0.666212;-3.60325;1.77137;-0.647358;-3.54973;0.129983;-0.276351;-0.147876;0.922748;-1.36776;-1.32026;0;0;0;0;0;0;0;0;0;0;675;224;1024;1024;1024;224;1024;1024;1024;1;4;0;0;0;0;0; 
3262;3265;2019/10/09 14:40:23;0;-1;-1;-1;-1;-1;100;0;0;0;0;0;0;0;0;0;0;0;0;0;0;197;62;6.48458;196.652;60.5042;0;7;1;1.73999;-0.651538;-3.48491;1.76196;-0.648612;-3.53028;0.167525;-0.320461;-0.233024;1.21715;-1.43061;-2.15273;0;0;0;0;0;0;0;0;0;0;675;224;1024;1024;1024;224;1024;1024;1024;1;4;0;0;0;0;0; 
3263;3266;2019/10/09 14:40:23;0;-1;-1;-1;-1;-1;100;0;0;0;0;0;0;0;0;0;0;0;0;0;0;196.571;62;6.79253;196.64;61.0131;0;8;1;1.66425;-0.622;-3.32692;1.73265;-0.640628;-3.46928;0.0130998;-0.270097;0.0640359;-2.80198;0.753836;5.21742;0;0;0;0;0;0;0;0;0;0;675;224;1024;1024;1024;224;1024;1024;1024;1;4;0;0;0;0;0; 
3264;3267;2019/10/09 14:40:23;0;-1;-1;-1;-1;-1;100;0;0;0;0;0;0;0;0;0;0;0;0;0;0;197;63;6.50536;196.756;61.6786;0;9;1;1.73443;-0.655859;-3.46956;1.73318;-0.645198;-3.46936;-0.0927757;-0.228494;0.256781;-2.97186;1.31445;5.04543;0;0;0;0;0;0;0;0;0;0;675;224;1024;1024;1024;224;1024;1024;1024;1;4;0;0;0;0;0; 
3265;3268;2019/10/09 14:40:23;0;-1;-1;-1;-1;-1;100;0;0;0;0;0;0;0;0;0;0;0;0;0;0;198;64;6.51423;197.137;62.4605;0;10;1;1.72441;-0.661359;-3.46061;1.73055;-0.650046;-3.46674;-0.17879;-0.201707;0.395752;-2.80095;0.858343;4.71032;0;0;0;0;0;0;0;0;0;0;675;224;1024;1024;1024;224;1024;1024;1024;1;4;0;0;0;0;0; 
3266;3269;2019/10/09 14:40:23;0;-1;-1;-1;-1;-1;100;0;0;0;0;0;0;0;0;0;0;0;0;0;0;198;64;6.51423;197.16;62.5744;1;0;1;1.72441;-0.661359;-3.46061;1.73055;-0.650046;-3.46674;-0.17879;-0.201707;0.395752;-2.80095;0.858343;4.71032;0;0;0;0;0;0;0;0;0;0;675;224;1024;1024;1024;224;1024;1024;1024;1;4;0;0;0;0;0; 
3267;3270;2019/10/09 14:40:23;0;-1;-1;-1;-1;-1;100;0;0;0;0;0;0;0;0;0;0;0;0;0;0;198;66;6.51379;197.483;63.9144;0;1;1;1.72453;-0.674189;-3.4524;1.72874;-0.657289;-3.46244;-0.215785;-0.182698;0.457815;-2.53873;0.625544;4.22266;0;0;0;0;0;0;0;0;0;0;675;224;1024;1024;1024;224;1024;1024;1024;1;4;0;0;0;0;0; 
3268;3271;2019/10/09 14:40:23;0;-1;-1;-1;-1;-1;100;0;0;0;0;0;0;0;0;0;0;0;0;0;0;198;66;6.52385;197.685;64.7519;0;2;1;1.72187;-0.673149;-3.44708;1.72668;-0.662047;-3.45783;-0.282491;-0.159916;0.589364;-2.9356;0.774012;5.05799;0;0;0;0;0;0;0;0;0;0;675;224;1024;1024;1024;224;1024;1024;1024;1;4;0;0;0;0;0; 
3269;3272;2019/10/09 14:40:23;0;-1;-1;-1;-1;-1;100;0;0;0;0;0;0;0;0;0;0;0;0;0;0;197.333;66.6667;6.5942;197.61;65.5282;0;3;1;1.70854;-0.670178;-3.40753;1.72124;-0.664486;-3.44274;-0.308843;-0.150278;0.653235;-3.39168;1.04684;6.06793;0;0;0;0;0;0;0;0;0;0;675;224;1024;1024;1024;224;1024;1024;1024;1;4;0;0;0;0;0; 
3270;3273;2019/10/09 14:40:23;0;-1;-1;-1;-1;-1;100;0;0;0;0;0;0;0;0;0;0;0;0;0;0;198;68;6.65041;197.764;66.485;0;4;1;1.6891;-0.672863;-3.37321;1.7116;-0.666999;-3.42188;-0.257338;-0.180418;0.55414;-2.96055;0.935018;5.31808;0;0;0;0;0;0;0;0;0;0;675;224;1024;1024;1024;224;1024;1024;1024;1;4;0;0;0;0;0; 
3271;3274;2019/10/09 14:40:23;0;-1;-1;-1;-1;-1;100;0;0;0;0;0;0;0;0;0;0;0;0;0;0;198;68;6.81669;197.873;67.1646;0;5;1;1.6479;-0.656449;-3.29093;1.69249;-0.663834;-3.3826;-0.293674;-0.172034;0.629427;-2.46388;0.75424;4.46619;0;0;0;0;0;0;0;0;0;0;675;224;1024;1024;1024;224;1024;1024;1024;1;4;0;0;0;0;0; 
3272;3275;2019/10/09 14:40:23;0;-1;-1;-1;-1;-1;100;0;0;0;0;0;0;0;0;0;0;0;0;0;0;199;69;6.65013;198.26;67.9573;0;6;1;1.68167;-0.679153;-3.36922;1.68924;-0.66843;-3.37858;-0.317579;-0.166137;0.679346;-1.95332;0.574279;3.65028;0;0;0;0;0;0;0;0;0;0;675;224;1024;1024;1024;224;1024;1024;1024;1;4;0;0;0;0;0; 
3273;3276;2019/10/09 14:40:24;0;-1;-1;-1;-1;-1;100;0;0;0;0;0;0;0;0;0;0;0;0;0;0;199;70;6.66447;198.539;68.8334;0;7;1;1.67805;-0.68394;-3.35785;1.68588;-0.673083;-3.37236;-0.361677;-0.162745;0.767255;-1.75451;0.424237;3.4257;0;0;0;0;0;0;0;0;0;0;675;224;1024;1024;1024;224;1024;1024;1024;1;4;0;0;0;0;0; 
3274;3277;2019/10/09 14:40:24;0;-1;-1;-1;-1;-1;100;0;0;0;0;0;0;0;0;0;0;0;0;0;0;199;71;6.93043;198.74;69.771;0;8;1;1.61365;-0.663702;-3.22502;1.66422;-0.670269;-3.32816;-0.466421;-0.130474;0.9781;-1.7871;0.372097;3.60757;0;0;0;0;0;0;0;0;0;0;675;224;1024;1024;1024;224;1024;1024;1024;1;4;0;0;0;0;0; 
3275;3278;2019/10/09 14:40:24;0;-1;-1;-1;-1;-1;100;0;0;0;0;0;0;0;0;0;0;0;0;0;0;199;71;6.93043;198.804;70.0634;1;0;1;1.61365;-0.663702;-3.22502;1.66422;-0.670269;-3.32816;-0.466421;-0.130474;0.9781;-1.7871;0.372097;3.60757;0;0;0;0;0;0;0;0;0;0;675;224;1024;1024;1024;224;1024;1024;1024;1;4;0;0;0;0;0; 
3276;3279;2019/10/09 14:40:24;0;-1;-1;-1;-1;-1;100;0;0;0;0;0;0;0;0;0;0;0;0;0;0;201;73;6.59691;199.689;71.4538;0;1;1;1.68011;-0.709882;-3.37973;1.66898;-0.682153;-3.34363;-0.458697;-0.138745;0.926042;-1.58512;0.262728;3.09819;0;0;0;0;0;0;0;0;0;0;675;224;1024;1024;1024;224;1024;1024;1024;1;4;0;0;0;0;0; 
3277;3280;2019/10/09 14:40:24;0;-1;-1;-1;-1;-1;100;0;0;0;0;0;0;0;0;0;0;0;0;0;0;201;73;7.10002;200.233;72.317;0;2;1;1.56105;-0.65958;-3.14024;1.6366;-0.675381;-3.28262;-0.531879;-0.111932;1.03225;-1.89066;0.392025;3.49521;0;0;0;0;0;0;0;0;0;0;675;224;1024;1024;1024;224;1024;1024;1024;1;4;0;0;0;0;0; 
3278;3281;2019/10/09 14:40:24;0;-1;-1;-1;-1;-1;100;0;0;0;0;0;0;0;0;0;0;0;0;0;0;202;74;6.85334;200.924;73.2219;0;3;1;1.60996;-0.689397;-3.24926;1.62861;-0.679585;-3.27261;-0.537738;-0.121066;0.995767;-1.96967;0.409646;3.35088;0;0;0;0;0;0;0;0;0;0;675;224;1024;1024;1024;224;1024;1024;1024;1;4;0;0;0;0;0; 
3279;3282;2019/10/09 14:40:24;0;-1;-1;-1;-1;-1;100;0;0;0;0;0;0;0;0;0;0;0;0;0;0;202.667;75.3333;7.00804;201.616;74.2729;0;4;1;1.56968;-0.682101;-3.17231;1.61093;-0.68034;-3.24252;-0.590657;-0.113402;1.06313;-2.11639;0.426269;3.324;0;0;0;0;0;0;0;0;0;0;675;224;1024;1024;1024;224;1024;1024;1024;1;4;0;0;0;0;0; 
3280;3283;2019/10/09 14:40:24;0;-1;-1;-1;-1;-1;100;0;0;0;0;0;0;0;0;0;0;0;0;0;0;202.667;75.3333;7.00804;201.77;74.6727;1;0;1;1.56968;-0.682101;-3.17231;1.61093;-0.68034;-3.24252;-0.590657;-0.113402;1.06313;-2.11639;0.426269;3.324;0;0;0;0;0;0;0;0;0;0;675;224;1024;1024;1024;224;1024;1024;1024;1;4;0;0;0;0;0; 
3281;3284;2019/10/09 14:40:24;0;-1;-1;-1;-1;-1;100;0;0;0;0;0;0;0;0;0;0;0;0;0;0;203.333;76.6667;6.73948;202.522;75.8344;0;1;1;1.62729;-0.717521;-3.29328;1.61584;-0.691494;-3.25775;-0.564154;-0.123176;0.981109;-1.87617;0.374253;2.6348;0;0;0;0;0;0;0;0;0;0;675;224;1024;1024;1024;224;1024;1024;1024;1;4;0;0;0;0;0; 
3282;3285;2019/10/09 14:40:24;0;-1;-1;-1;-1;-1;100;0;0;0;0;0;0;0;0;0;0;0;0;0;0;204;78;6.72075;203.215;77.0183;0;2;1;1.62687;-0.727782;-3.297;1.61915;-0.702381;-3.26952;-0.473448;-0.170068;0.764259;-1.14674;0.105985;0.940519;0;0;0;0;0;0;0;0;0;0;675;224;1024;1024;1024;224;1024;1024;1024;1;4;0;0;0;0;0; 
3283;3286;2019/10/09 14:40:24;0;-1;-1;-1;-1;-1;100;0;0;0;0;0;0;0;0;0;0;0;0;0;0;204;78;6.62;203.674;77.8035;0;3;1;1.65163;-0.738858;-3.34718;1.62889;-0.713324;-3.29282;-0.421268;-0.208722;0.632455;-0.559951;-0.175897;-0.440462;0;0;0;0;0;0;0;0;0;0;675;224;1024;1024;1024;224;1024;1024;1024;1;4;0;0;0;0;0; 
3284;3287;2019/10/09 14:40:24;0;-1;-1;-1;-1;-1;100;0;0;0;0;0;0;0;0;0;0;0;0;0;0;205;79;6.50717;204.312;78.6633;0;4;1;1.6726;-0.758069;-3.40099;1.64201;-0.726747;-3.32527;-0.234271;-0.301029;0.233489;0.682555;-0.752701;-2.99794;0;0;0;0;0;0;0;0;0;0;675;224;1024;1024;1024;224;1024;1024;1024;1;4;0;0;0;0;0; 
3285;3288;2019/10/09 14:40:24;0;-1;-1;-1;-1;-1;100;0;0;0;0;0;0;0;0;0;0;0;0;0;0;206;80;6.67266;205.078;79.5789;0;5;1;1.62364;-0.745508;-3.31252;1.6365;-0.732376;-3.32145;-0.113574;-0.361287;-0.027047;1.86119;-1.27376;-5.29925;0;0;0;0;0;0;0;0;0;0;675;224;1024;1024;1024;224;1024;1024;1024;1;4;0;0;0;0;0; 
3286;3289;2019/10/09 14:40:24;0;-1;-1;-1;-1;-1;100;0;0;0;0;0;0;0;0;0;0;0;0;0;0;206;80;6.67266;205.326;80.0843;1;0;1;1.62364;-0.745508;-3.31252;1.6365;-0.732376;-3.32145;-0.113574;-0.361287;-0.027047;1.86119;-1.27376;-5.29925;0;0;0;0;0;0;0;0;0;0;675;224;1024;1024;1024;224;1024;1024;1024;1;4;0;0;0;0;0; 
3287;3290;2019/10/09 14:40:24;0;-1;-1;-1;-1;-1;100;0;0;0;0;0;0;0;0;0;0;0;0;0;0;207.333;81.3333;6.56113;206.344;81.069;0;1;1;1.6411;-0.766644;-3.36324;1.63788;-0.742656;-3.33399;0.012554;-0.403383;-0.290136;2.92308;-1.63263;-7.23203;0;0;0;0;0;0;0;0;0;0;675;224;1024;1024;1024;224;1024;1024;1024;1;4;0;0;0;0;0; 
3288;3291;2019/10/09 14:40:24;0;-1;-1;-1;-1;-1;100;0;0;0;0;0;0;0;0;0;0;0;0;0;0;208;82;6.87959;207.204;81.9201;0;2;1;1.5603;-0.735191;-3.20489;1.6146;-0.740417;-3.29526;0.00331146;-0.40946;-0.302462;3.69593;-1.95935;-8.73208;0;0;0;0;0;0;0;0;0;0;675;224;1024;1024;1024;224;1024;1024;1024;1;4;0;0;0;0;0; 
3289;3292;2019/10/09 14:40:24;0;-1;-1;-1;-1;-1;100;0;0;0;0;0;0;0;0;0;0;0;0;0;0;209;83;6.5772;208.106;82.8189;0;3;1;1.62445;-0.775323;-3.34806;1.61756;-0.750889;-3.3111;-0.0034601;-0.411689;-0.323766;3.82605;-2.00253;-8.96291;0;0;0;0;0;0;0;0;0;0;675;224;1024;1024;1024;224;1024;1024;1024;1;4;0;0;0;0;0; 
3290;3293;2019/10/09 14:40:24;0;-1;-1;-1;-1;-1;100;0;0;0;0;0;0;0;0;0;0;0;0;0;0;210;84;7.07092;209.051;83.7568;0;4;1;1.50396;-0.727076;-3.11039;1.58348;-0.743745;-3.25089;-0.157503;-0.351125;-0.0507521;3.19833;-1.68888;-7.71594;0;0;0;0;0;0;0;0;0;0;675;224;1024;1024;1024;224;1024;1024;1024;1;4;0;0;0;0;0; 
3291;3294;2019/10/09 14:40:24;0;-1;-1;-1;-1;-1;100;0;0;0;0;0;0;0;0;0;0;0;0;0;0;211;85;7;210.031;84.7258;0;5;1;1.51207;-0.740392;-3.13798;1.56206;-0.742739;-3.21702;-0.36812;-0.265404;0.340042;1.46091;-0.891401;-4.2649;0;0;0;0;0;0;0;0;0;0;675;224;1024;1024;1024;224;1024;1024;1024;1;4;0;0;0;0;0; 
3292;3295;2019/10/09 14:40:24;0;-1;-1;-1;-1;-1;100;0;0;0;0;0;0;0;0;0;0;0;0;0;0;212;86;6.52818;211.041;85.719;0;6;1;1.61371;-0.800282;-3.36057;1.57755;-0.760002;-3.26008;-0.422596;-0.253789;0.414039;-0.181042;-0.166942;-1.04938;0;0;0;0;0;0;0;0;0;0;675;224;1024;1024;1024;224;1024;1024;1024;1;4;0;0;0;0;0; 
3293;3296;2019/10/09 14:40:24;0;-1;-1;-1;-1;-1;100;0;0;0;0;0;0;0;0;0;0;0;0;0;0;213;87;6.5613;212.071;86.7304;0;7;1;1.59796;-0.802589;-3.33941;1.58368;-0.772778;-3.28388;-0.469973;-0.272544;0.448481;-2.03526;0.422248;2.31952;0;0;0;0;0;0;0;0;0;0;675;224;1024;1024;1024;224;1024;1024;1024;1;4;0;0;0;0;0; 
3294;3297;2019/10/09 14:40:24;0;-1;-1;-1;-1;-1;100;0;0;0;0;0;0;0;0;0;0;0;0;0;0;213;87;6.5613;212.505;87.351;1;0;1;1.59796;-0.802589;-3.33941;1.58368;-0.772778;-3.28388;-0.469973;-0.272544;0.448481;-2.03526;0.422248;2.31952;0;0;0;0;0;0;0;0;0;0;675;224;1024;1024;1024;224;1024;1024;1024;1;4;0;0;0;0;0; 
3295;3298;2019/10/09 14:40:24;0;-1;-1;-1;-1;-1;100;0;0;0;0;0;0;0;0;0;0;0;0;0;0;213;87;6.5613;212.938;87.9716;2;0;1;1.59796;-0.802589;-3.33941;1.58368;-0.772778;-3.28388;-0.469973;-0.272544;0.448481;-2.03526;0.422248;2.31952;0;0;0;0;0;0;0;0;0;0;675;224;1024;1024;1024;224;1024;1024;1024;1;4;0;0;0;0;0; 
3296;3299;2019/10/09 14:40:24;0;-1;-1;-1;-1;-1;100;0;0;0;0;0;0;0;0;0;0;0;0;0;0;216;88;6.6306;214.731;88.6049;0;1;1;1.55868;-0.800481;-3.30036;1.57618;-0.781089;-3.28883;-0.397051;-0.285322;0.288351;-2.42007;0.625088;3.16095;0;0;0;0;0;0;0;0;0;0;675;224;1024;1024;1024;224;1024;1024;1024;1;4;0;0;0;0;0; 
3297;3300;2019/10/09 14:40:24;0;-1;-1;-1;-1;-1;100;0;0;0;0;0;0;0;0;0;0;0;0;0;0;217;89;6.54879;216.08;89.3755;0;2;1;1.57054;-0.816839;-3.33739;1.57449;-0.791814;-3.3034;-0.36721;-0.293748;0.196077;-2.54132;0.728238;3.45329;0;0;0;0;0;0;0;0;0;0;675;224;1024;1024;1024;224;1024;1024;1024;1;4;0;0;0;0;0; 
3298;3301;2019/10/09 14:40:24;0;-1;-1;-1;-1;-1;100;0;0;0;0;0;0;0;0;0;0;0;0;0;0;217;89;7.04319;216.926;89.8723;0;3;1;1.46029;-0.759502;-3.10313;1.54023;-0.78212;-3.24332;-0.349844;-0.291168;0.140322;-2.10078;0.616489;2.64416;0;0;0;0;0;0;0;0;0;0;675;224;1024;1024;1024;224;1024;1024;1024;1;4;0;0;0;0;0; 
3299;3302;2019/10/09 14:40:24;0;-1;-1;-1;-1;-1;100;0;0;0;0;0;0;0;0;0;0;0;0;0;0;218;90;6.69921;217.823;90.5367;0;4;1;1.52782;-0.804715;-3.25835;1.53651;-0.788899;-3.24783;-0.286419;-0.31293;-0.00807343;-1.01581;0.22757;0.544034;0;0;0;0;0;0;0;0;0;0;675;224;1024;1024;1024;224;1024;1024;1024;1;4;0;0;0;0;0; 
3300;3303;2019/10/09 14:40:24;0;-1;-1;-1;-1;-1;100;0;0;0;0;0;0;0;0;0;0;0;0;0;0;219;90;6.87813;218.76;90.9856;0;5;1;1.48083;-0.783782;-3.1736;1.5198;-0.787364;-3.22556;-0.344794;-0.269696;0.0985388;-0.376498;0.0889076;-0.618371;0;0;0;0;0;0;0;0;0;0;675;224;1024;1024;1024;224;1024;1024;1024;1;4;0;0;0;0;0; 
3301;3304;2019/10/09 14:40:24;0;-1;-1;-1;-1;-1;100;0;0;0;0;0;0;0;0;0;0;0;0;0;0;219;90;6.95606;219.408;91.2845;0;6;1;1.46424;-0.775002;-3.13804;1.50313;-0.783655;-3.1993;-0.448072;-0.19439;0.312397;-0.160316;0.287382;-0.778539;0;0;0;0;0;0;0;0;0;0;675;224;1024;1024;1024;224;1024;1024;1024;1;4;0;0;0;0;0; 
3302;3305;2019/10/09 14:40:24;0;-1;-1;-1;-1;-1;100;0;0;0;0;0;0;0;0;0;0;0;0;0;0;219.333;90.6667;6.65835;219.958;91.6895;0;7;1;1.52721;-0.813823;-3.2756;1.51036;-0.792705;-3.22219;-0.531665;-0.163017;0.453491;-0.633677;0.660769;0.192247;0;0;0;0;0;0;0;0;0;0;675;224;1024;1024;1024;224;1024;1024;1024;1;4;0;0;0;0;0; 
3303;3306;2019/10/09 14:40:24;0;-1;-1;-1;-1;-1;100;0;0;0;0;0;0;0;0;0;0;0;0;0;0;220;92;6.9323;220.544;92.3829;0;8;1;1.46206;-0.789671;-3.14086;1.49587;-0.791795;-3.19779;-0.632916;-0.0977355;0.693742;-1.44112;1.1791;2.10243;0;0;0;0;0;0;0;0;0;0;675;224;1024;1024;1024;224;1024;1024;1024;1;4;0;0;0;0;0; 
3304;3307;2019/10/09 14:40:24;0;-1;-1;-1;-1;-1;100;0;0;0;0;0;0;0;0;0;0;0;0;0;0;220;92;6.90553;220.944;92.8593;0;9;1;1.46772;-0.792733;-3.15304;1.48742;-0.792076;-3.18437;-0.590591;-0.0983939;0.651611;-1.82592;1.47717;3.30293;0;0;0;0;0;0;0;0;0;0;675;224;1024;1024;1024;224;1024;1024;1024;1;4;0;0;0;0;0; 
3305;3308;2019/10/09 14:40:24;0;-1;-1;-1;-1;-1;100;0;0;0;0;0;0;0;0;0;0;0;0;0;0;220;92;6.90553;221.51;93.4525;1;0;1;1.46772;-0.792733;-3.15304;1.48742;-0.792076;-3.18437;-0.590591;-0.0983939;0.651611;-1.82592;1.47717;3.30293;0;0;0;0;0;0;0;0;0;0;675;224;1024;1024;1024;224;1024;1024;1024;1;4;0;0;0;0;0; 
3306;3309;2019/10/09 14:40:24;0;-1;-1;-1;-1;-1;100;0;0;0;0;0;0;0;0;0;0;0;0;0;0;222;92;6.89395;222.265;93.4858;0;1;1;1.45571;-0.794065;-3.15834;1.47791;-0.792673;-3.17656;-0.554894;-0.0719532;0.634873;-2.01438;1.71102;4.18217;0;0;0;0;0;0;0;0;0;0;675;224;1024;1024;1024;224;1024;1024;1024;1;4;0;0;0;0;0; 
3307;3310;2019/10/09 14:40:24;0;-1;-1;-1;-1;-1;100;0;0;0;0;0;0;0;0;0;0;0;0;0;0;222;92;6.99023;222.745;93.532;0;2;1;1.43566;-0.783127;-3.11484;1.46524;-0.789809;-3.15804;-0.519686;-0.0515412;0.611991;-1.80718;1.77322;4.26654;0;0;0;0;0;0;0;0;0;0;675;224;1024;1024;1024;224;1024;1024;1024;1;4;0;0;0;0;0; 
3308;3311;2019/10/09 14:40:24;0;-1;-1;-1;-1;-1;100;0;0;0;0;0;0;0;0;0;0;0;0;0;0;224;93;6.89631;223.736;93.9003;0;3;1;1.44074;-0.799831;-3.15327;1.45789;-0.792816;-3.15661;-0.466657;-0.0622753;0.513308;-1.14791;1.51608;3.24752;0;0;0;0;0;0;0;0;0;0;675;224;1024;1024;1024;224;1024;1024;1024;1;4;0;0;0;0;0; 
3309;3312;2019/10/09 14:40:24;0;-1;-1;-1;-1;-1;100;0;0;0;0;0;0;0;0;0;0;0;0;0;0;225;94;6.79042;224.738;94.4721;0;4;1;1.45586;-0.818437;-3.19839;1.45728;-0.800502;-3.16915;-0.461638;-0.0640479;0.489533;-0.449087;1.24836;2.07186;0;0;0;0;0;0;0;0;0;0;675;224;1024;1024;1024;224;1024;1024;1024;1;4;0;0;0;0;0; 
3310;3313;2019/10/09 14:40:24;0;-1;-1;-1;-1;-1;100;0;0;0;0;0;0;0;0;0;0;0;0;0;0;225;94;7.28934;225.428;94.8602;0;5;1;1.35622;-0.762419;-2.97948;1.42696;-0.789077;-3.11225;-0.512799;-0.0291258;0.586497;0.141632;0.983826;0.876086;0;0;0;0;0;0;0;0;0;0;675;224;1024;1024;1024;224;1024;1024;1024;1;4;0;0;0;0;0; 
3311;3314;2019/10/09 14:40:24;0;-1;-1;-1;-1;-1;100;0;0;0;0;0;0;0;0;0;0;0;0;0;0;226;94;6.71462;226.221;95.1181;0;6;1;1.46487;-0.827676;-3.2345;1.43833;-0.800657;-3.14892;-0.475686;-0.0468406;0.473205;0.47823;0.766732;-0.0849257;0;0;0;0;0;0;0;0;0;0;675;224;1024;1024;1024;224;1024;1024;1024;1;4;0;0;0;0;0; 
3312;3315;2019/10/09 14:40:24;0;-1;-1;-1;-1;-1;100;0;0;0;0;0;0;0;0;0;0;0;0;0;0;228;95;7;227.408;95.6024;0;7;1;1.39089;-0.799881;-3.09871;1.4241;-0.800424;-3.13386;-0.500267;-0.0590535;0.45442;0.505053;0.511545;-0.771469;0;0;0;0;0;0;0;0;0;0;675;224;1024;1024;1024;224;1024;1024;1024;1;4;0;0;0;0;0; 
3313;3316;2019/10/09 14:40:24;0;-1;-1;-1;-1;-1;100;0;0;0;0;0;0;0;0;0;0;0;0;0;0;228;96;6.92114;228.239;96.2498;0;8;1;1.40674;-0.815012;-3.13004;1.41889;-0.804801;-3.13271;-0.485208;-0.0952895;0.373786;0.440695;0.132249;-1.41399;0;0;0;0;0;0;0;0;0;0;675;224;1024;1024;1024;224;1024;1024;1024;1;4;0;0;0;0;0; 
3314;3317;2019/10/09 14:40:24;0;-1;-1;-1;-1;-1;100;0;0;0;0;0;0;0;0;0;0;0;0;0;0;229;97;7.09843;229.132;97.0152;0;9;1;1.36457;-0.800523;-3.04799;1.4026;-0.803517;-3.1073;-0.511898;-0.0999033;0.421169;0.0837792;-0.0708918;-1.21629;0;0;0;0;0;0;0;0;0;0;675;224;1024;1024;1024;224;1024;1024;1024;1;4;0;0;0;0;0; 
3315;3318;2019/10/09 14:40:24;0;-1;-1;-1;-1;-1;100;0;0;0;0;0;0;0;0;0;0;0;0;0;0;229;97;7.09843;229.793;97.5515;1;0;1;1.36457;-0.800523;-3.04799;1.4026;-0.803517;-3.1073;-0.511898;-0.0999033;0.421169;0.0837792;-0.0708918;-1.21629;0;0;0;0;0;0;0;0;0;0;675;224;1024;1024;1024;224;1024;1024;1024;1;4;0;0;0;0;0; 
3316;3319;2019/10/09 14:40:24;0;-1;-1;-1;-1;-1;100;0;0;0;0;0;0;0;0;0;0;0;0;0;0;232;98;7.14373;231.305;98.2609;0;1;1;1.33496;-0.801275;-3.02481;1.38231;-0.802845;-3.08255;-0.563732;-0.06796;0.549057;-0.299136;-0.0559239;-0.526061;0;0;0;0;0;0;0;0;0;0;675;224;1024;1024;1024;224;1024;1024;1024;1;4;0;0;0;0;0; 
3317;3320;2019/10/09 14:40:24;0;-1;-1;-1;-1;-1;100;0;0;0;0;0;0;0;0;0;0;0;0;0;0;234;100;6.8003;232.952;99.4174;0;2;1;1.38771;-0.85399;-3.16949;1.38393;-0.818188;-3.10863;-0.485524;-0.140407;0.341797;-0.0861343;-0.414402;-1.1531;0;0;0;0;0;0;0;0;0;0;675;224;1024;1024;1024;224;1024;1024;1024;1;4;0;0;0;0;0; 
3318;3321;2019/10/09 14:40:24;0;-1;-1;-1;-1;-1;100;0;0;0;0;0;0;0;0;0;0;0;0;0;0;234;100;7.1877;234.042;100.183;0;3;1;1.31291;-0.807962;-2.99866;1.36262;-0.81512;-3.07564;-0.550426;-0.133744;0.45587;-0.307469;-0.546058;-0.751188;0;0;0;0;0;0;0;0;0;0;675;224;1024;1024;1024;224;1024;1024;1024;1;4;0;0;0;0;0; 
3319;3322;2019/10/09 14:40:24;0;-1;-1;-1;-1;-1;100;0;0;0;0;0;0;0;0;0;0;0;0;0;0;235;101;6.8953;235.109;101.029;0;4;1;1.36135;-0.848263;-3.12184;1.36224;-0.825063;-3.0895;-0.541962;-0.164572;0.42533;-0.32718;-0.68876;-0.55027;0;0;0;0;0;0;0;0;0;0;675;224;1024;1024;1024;224;1024;1024;1024;1;4;0;0;0;0;0; 
3320;3323;2019/10/09 14:40:24;0;-1;-1;-1;-1;-1;100;0;0;0;0;0;0;0;0;0;0;0;0;0;0;238;102;6.85109;236.811;101.933;0;5;1;1.34829;-0.859816;-3.13797;1.35805;-0.835489;-3.10404;-0.533383;-0.20377;0.353323;-0.361181;-0.784519;-0.400195;0;0;0;0;0;0;0;0;0;0;675;224;1024;1024;1024;224;1024;1024;1024;1;4;0;0;0;0;0; 
3321;3324;2019/10/09 14:40:24;0;-1;-1;-1;-1;-1;100;0;0;0;0;0;0;0;0;0;0;0;0;0;0;238;102;6.85109;237.618;102.537;1;0;1;1.34829;-0.859816;-3.13797;1.35805;-0.835489;-3.10404;-0.533383;-0.20377;0.353323;-0.361181;-0.784519;-0.400195;0;0;0;0;0;0;0;0;0;0;675;224;1024;1024;1024;224;1024;1024;1024;1;4;0;0;0;0;0; 
3322;3325;2019/10/09 14:40:24;0;-1;-1;-1;-1;-1;100;0;0;0;0;0;0;0;0;0;0;0;0;0;0;239.333;102.667;6.86965;239.088;103.189;0;1;1;1.33496;-0.861534;-3.12682;1.35113;-0.843302;-3.11088;-0.474215;-0.241444;0.201273;-0.103824;-0.894713;-0.898842;0;0;0;0;0;0;0;0;0;0;675;224;1024;1024;1024;224;1024;1024;1024;1;4;0;0;0;0;0; 
3323;3326;2019/10/09 14:40:24;0;-1;-1;-1;-1;-1;100;0;0;0;0;0;0;0;0;0;0;0;0;0;0;241;103;7.04513;240.599;103.728;0;2;1;1.2899;-0.842044;-3.04764;1.33276;-0.842925;-3.0919;-0.454168;-0.282092;0.088745;0.312826;-1.26997;-2.11531;0;0;0;0;0;0;0;0;0;0;675;224;1024;1024;1024;224;1024;1024;1024;1;4;0;0;0;0;0; 
3324;3327;2019/10/09 14:40:24;0;-1;-1;-1;-1;-1;100;0;0;0;0;0;0;0;0;0;0;0;0;0;0;241;103;7.04513;241.464;104.331;1;0;1;1.2899;-0.842044;-3.04764;1.33276;-0.842925;-3.0919;-0.454168;-0.282092;0.088745;0.312826;-1.26997;-2.11531;0;0;0;0;0;0;0;0;0;0;675;224;1024;1024;1024;224;1024;1024;1024;1;4;0;0;0;0;0; 
3325;3328;2019/10/09 14:40:24;0;-1;-1;-1;-1;-1;100;0;0;0;0;0;0;0;0;0;0;0;0;0;0;244;105;7.1155;243.346;105.202;0;1;1;1.25611;-0.845421;-3.00977;1.30976;-0.843674;-3.06726;-0.494668;-0.245601;0.177177;0.160303;-1.0771;-1.76233;0;0;0;0;0;0;0;0;0;0;675;224;1024;1024;1024;224;1024;1024;1024;1;4;0;0;0;0;0; 
3326;3329;2019/10/09 14:40:24;0;-1;-1;-1;-1;-1;100;0;0;0;0;0;0;0;0;0;0;0;0;0;0;244;105;7.33815;244.489;105.744;0;2;1;1.21799;-0.819771;-2.91845;1.28223;-0.836503;-3.02262;-0.537621;-0.211415;0.265146;0.13454;-0.878937;-1.62874;0;0;0;0;0;0;0;0;0;0;675;224;1024;1024;1024;224;1024;1024;1024;1;4;0;0;0;0;0; 
3327;3330;2019/10/09 14:40:24;0;-1;-1;-1;-1;-1;100;0;0;0;0;0;0;0;0;0;0;0;0;0;0;244;105;7.33815;245.407;106.355;1;0;1;1.21799;-0.819771;-2.91845;1.28223;-0.836503;-3.02262;-0.537621;-0.211415;0.265146;0.13454;-0.878937;-1.62874;0;0;0;0;0;0;0;0;0;0;675;224;1024;1024;1024;224;1024;1024;1024;1;4;0;0;0;0;0; 
3328;3331;2019/10/09 14:40:24;0;-1;-1;-1;-1;-1;100;0;0;0;0;0;0;0;0;0;0;0;0;0;0;246;106;7.26119;246.565;106.823;0;1;1;1.21716;-0.834194;-2.9456;1.26271;-0.83581;-2.99951;-0.587591;-0.155465;0.398698;-0.0407692;-0.503115;-1.04816;0;0;0;0;0;0;0;0;0;0;675;224;1024;1024;1024;224;1024;1024;1024;1;4;0;0;0;0;0; 
3329;3332;2019/10/09 14:40:24;0;-1;-1;-1;-1;-1;100;0;0;0;0;0;0;0;0;0;0;0;0;0;0;248;106;7.06592;248.01;107.132;0;2;1;1.23667;-0.857248;-3.027;1.2549;-0.842242;-3.00776;-0.627226;-0.111259;0.495591;-0.274337;-0.0555404;-0.250077;0;0;0;0;0;0;0;0;0;0;675;224;1024;1024;1024;224;1024;1024;1024;1;4;0;0;0;0;0; 
3330;3333;2019/10/09 14:40:24;0;-1;-1;-1;-1;-1;100;0;0;0;0;0;0;0;0;0;0;0;0;0;0;248;106;7.06592;248.961;107.724;1;0;1;1.23667;-0.857248;-3.027;1.2549;-0.842242;-3.00776;-0.627226;-0.111259;0.495591;-0.274337;-0.0555404;-0.250077;0;0;0;0;0;0;0;0;0;0;675;224;1024;1024;1024;224;1024;1024;1024;1;4;0;0;0;0;0; 
3331;3334;2019/10/09 14:40:24;0;-1;-1;-1;-1;-1;100;0;0;0;0;0;0;0;0;0;0;0;0;0;0;249.333;107.333;6.94692;250.062;108.159;0;1;1;1.24828;-0.879924;-3.07357;1.25291;-0.853546;-3.0275;-0.637766;-0.0940242;0.519284;-0.599957;0.359089;0.696459;0;0;0;0;0;0;0;0;0;0;675;224;1024;1024;1024;224;1024;1024;1024;1;4;0;0;0;0;0; 
3332;3335;2019/10/09 14:40:25;0;-1;-1;-1;-1;-1;100;0;0;0;0;0;0;0;0;0;0;0;0;0;0;250.667;107.333;7.38773;251.237;108.447;0;2;1;1.16479;-0.827421;-2.89018;1.22648;-0.845709;-2.98631;-0.665568;-0.0638247;0.592659;-0.92269;0.796449;1.75922;0;0;0;0;0;0;0;0;0;0;675;224;1024;1024;1024;224;1024;1024;1024;1;4;0;0;0;0;0; 
3333;3336;2019/10/09 14:40:25;0;-1;-1;-1;-1;-1;100;0;0;0;0;0;0;0;0;0;0;0;0;0;0;250.667;107.333;7.38773;252.202;109.02;1;0;1;1.16479;-0.827421;-2.89018;1.22648;-0.845709;-2.98631;-0.665568;-0.0638247;0.592659;-0.92269;0.796449;1.75922;0;0;0;0;0;0;0;0;0;0;675;224;1024;1024;1024;224;1024;1024;1024;1;4;0;0;0;0;0; 
3334;3337;2019/10/09 14:40:25;0;-1;-1;-1;-1;-1;100;0;0;0;0;0;0;0;0;0;0;0;0;0;0;253;109;6.68205;253.491;109.586;0;1;1;1.27038;-0.925191;-3.18855;1.23965;-0.869554;-3.04698;-0.58598;-0.107183;0.40959;-0.796672;0.84632;1.67419;0;0;0;0;0;0;0;0;0;0;675;224;1024;1024;1024;224;1024;1024;1024;1;4;0;0;0;0;0; 
3335;3338;2019/10/09 14:40:25;0;-1;-1;-1;-1;-1;100;0;0;0;0;0;0;0;0;0;0;0;0;0;0;253;109;7.18266;254.293;109.947;0;2;1;1.18184;-0.860708;-2.96632;1.2223;-0.8669;-3.02278;-0.51111;-0.145223;0.245324;-0.407433;0.683988;0.951747;0;0;0;0;0;0;0;0;0;0;675;224;1024;1024;1024;224;1024;1024;1024;1;4;0;0;0;0;0; 
3336;3339;2019/10/09 14:40:25;0;-1;-1;-1;-1;-1;100;0;0;0;0;0;0;0;0;0;0;0;0;0;0;254.667;109.333;7.1648;255.392;110.303;0;3;1;1.17317;-0.86479;-2.97243;1.20757;-0.866267;-3.00768;-0.471805;-0.178339;0.122746;0.102273;0.341894;-0.255319;0;0;0;0;0;0;0;0;0;0;675;224;1024;1024;1024;224;1024;1024;1024;1;4;0;0;0;0;0; 
3337;3340;2019/10/09 14:40:25;0;-1;-1;-1;-1;-1;100;0;0;0;0;0;0;0;0;0;0;0;0;0;0;254.667;109.333;7.1648;256.37;110.858;1;0;1;1.17317;-0.86479;-2.97243;1.20757;-0.866267;-3.00768;-0.471805;-0.178339;0.122746;0.102273;0.341894;-0.255319;0;0;0;0;0;0;0;0;0;0;675;224;1024;1024;1024;224;1024;1024;1024;1;4;0;0;0;0;0; 
3338;3341;2019/10/09 14:40:25;0;-1;-1;-1;-1;-1;100;0;0;0;0;0;0;0;0;0;0;0;0;0;0;257;110;7.45051;257.596;111.074;0;1;1;1.11256;-0.835355;-2.85599;1.17906;-0.856993;-2.96217;-0.484948;-0.14627;0.194999;0.440089;0.111942;-0.953325;0;0;0;0;0;0;0;0;0;0;675;224;1024;1024;1024;224;1024;1024;1024;1;4;0;0;0;0;0; 
3339;3342;2019/10/09 14:40:25;0;-1;-1;-1;-1;-1;100;0;0;0;0;0;0;0;0;0;0;0;0;0;0;259;111;7.17714;259.085;111.588;0;2;1;1.14103;-0.872974;-2.96094;1.16765;-0.861788;-2.9618;-0.546288;-0.112441;0.313752;0.537995;0.0120131;-1.18748;0;0;0;0;0;0;0;0;0;0;675;224;1024;1024;1024;224;1024;1024;1024;1;4;0;0;0;0;0; 
3340;3343;2019/10/09 14:40:25;0;-1;-1;-1;-1;-1;100;0;0;0;0;0;0;0;0;0;0;0;0;0;0;260;112;7.28794;260.403;112.267;0;3;1;1.11684;-0.865416;-2.91215;1.15241;-0.862876;-2.94691;-0.549578;-0.118874;0.306238;0.670143;-0.157645;-1.57021;0;0;0;0;0;0;0;0;0;0;675;224;1024;1024;1024;224;1024;1024;1024;1;4;0;0;0;0;0; 
3341;3344;2019/10/09 14:40:25;0;-1;-1;-1;-1;-1;100;0;0;0;0;0;0;0;0;0;0;0;0;0;0;262;112;7.31161;261.95;112.725;0;4;1;1.09957;-0.862615;-2.90272;1.13656;-0.862798;-2.93365;-0.682564;-0.0482033;0.5716;0.0715314;0.107266;-0.387655;0;0;0;0;0;0;0;0;0;0;675;224;1024;1024;1024;224;1024;1024;1024;1;4;0;0;0;0;0; 
3342;3345;2019/10/09 14:40:25;0;-1;-1;-1;-1;-1;100;0;0;0;0;0;0;0;0;0;0;0;0;0;0;262;112;7.35196;263.012;113.032;0;5;1;1.09354;-0.857881;-2.88679;1.12365;-0.861323;-2.91959;-0.747169;-0.00983454;0.69611;-0.764973;0.527713;1.31018;0;0;0;0;0;0;0;0;0;0;675;224;1024;1024;1024;224;1024;1024;1024;1;4;0;0;0;0;0; 
3343;3346;2019/10/09 14:40:25;0;-1;-1;-1;-1;-1;100;0;0;0;0;0;0;0;0;0;0;0;0;0;0;262;112;7.35196;264.057;113.564;1;0;1;1.09354;-0.857881;-2.88679;1.12365;-0.861323;-2.91959;-0.747169;-0.00983454;0.69611;-0.764973;0.527713;1.31018;0;0;0;0;0;0;0;0;0;0;675;224;1024;1024;1024;224;1024;1024;1024;1;4;0;0;0;0;0; 
3344;3347;2019/10/09 14:40:25;0;-1;-1;-1;-1;-1;100;0;0;0;0;0;0;0;0;0;0;0;0;0;0;265;112;7.31386;265.469;113.489;0;1;1;1.07876;-0.862349;-2.90183;1.11018;-0.861631;-2.91426;-0.739917;0.00798368;0.697399;-1.26187;0.874592;2.50697;0;0;0;0;0;0;0;0;0;0;675;224;1024;1024;1024;224;1024;1024;1024;1;4;0;0;0;0;0; 
3345;3348;2019/10/09 14:40:25;0;-1;-1;-1;-1;-1;100;0;0;0;0;0;0;0;0;0;0;0;0;0;0;266;112;7.26716;266.718;113.468;0;2;1;1.07883;-0.867891;-2.92048;1.10078;-0.863509;-2.91613;-0.711875;-0.0175081;0.576013;-1.53377;0.965436;2.80818;0;0;0;0;0;0;0;0;0;0;675;224;1024;1024;1024;224;1024;1024;1024;1;4;0;0;0;0;0; 
3346;3349;2019/10/09 14:40:25;0;-1;-1;-1;-1;-1;100;0;0;0;0;0;0;0;0;0;0;0;0;0;0;266.667;112.667;7.2198;267.77;113.682;0;3;1;1.0813;-0.877428;-2.93709;1.09493;-0.867685;-2.92242;-0.675997;-0.0306867;0.480391;-1.36418;0.859059;2.25521;0;0;0;0;0;0;0;0;0;0;675;224;1024;1024;1024;224;1024;1024;1024;1;4;0;0;0;0;0; 
3347;3350;2019/10/09 14:40:25;0;-1;-1;-1;-1;-1;100;0;0;0;0;0;0;0;0;0;0;0;0;0;0;268;113;7.27925;268.914;113.93;0;4;1;1.06333;-0.87217;-2.91185;1.08545;-0.86903;-2.91925;-0.634748;-0.0394735;0.382894;-1.11;0.78718;1.61548;0;0;0;0;0;0;0;0;0;0;675;224;1024;1024;1024;224;1024;1024;1024;1;4;0;0;0;0;0; 
3348;3351;2019/10/09 14:40:25;0;-1;-1;-1;-1;-1;100;0;0;0;0;0;0;0;0;0;0;0;0;0;0;268;113;7.27925;269.987;114.391;1;0;1;1.06333;-0.87217;-2.91185;1.08545;-0.86903;-2.91925;-0.634748;-0.0394735;0.382894;-1.11;0.78718;1.61548;0;0;0;0;0;0;0;0;0;0;675;224;1024;1024;1024;224;1024;1024;1024;1;4;0;0;0;0;0; 
3349;3352;2019/10/09 14:40:25;0;-1;-1;-1;-1;-1;100;0;0;0;0;0;0;0;0;0;0;0;0;0;0;270;114;7.0411;271.064;114.701;0;1;1;1.08512;-0.907583;-3.00643;1.08535;-0.880596;-2.9454;-0.534186;-0.0769827;0.194547;-0.221664;0.386125;-0.15984;0;0;0;0;0;0;0;0;0;0;675;224;1024;1024;1024;224;1024;1024;1024;1;4;0;0;0;0;0; 
3350;3353;2019/10/09 14:40:25;0;-1;-1;-1;-1;-1;100;0;0;0;0;0;0;0;0;0;0;0;0;0;0;271;115;7.30395;272.114;115.262;0;2;1;1.03924;-0.880623;-2.89447;1.07152;-0.880604;-2.93012;-0.47663;-0.10393;0.0851943;0.677162;-0.0501045;-1.92536;0;0;0;0;0;0;0;0;0;0;675;224;1024;1024;1024;224;1024;1024;1024;1;4;0;0;0;0;0; 
3351;3354;2019/10/09 14:40:25;0;-1;-1;-1;-1;-1;100;0;0;0;0;0;0;0;0;0;0;0;0;0;0;271;115;7.30395;273.185;115.722;1;0;1;1.03924;-0.880623;-2.89447;1.07152;-0.880604;-2.93012;-0.47663;-0.10393;0.0851943;0.677162;-0.0501045;-1.92536;0;0;0;0;0;0;0;0;0;0;675;224;1024;1024;1024;224;1024;1024;1024;1;4;0;0;0;0;0; 
3352;3355;2019/10/09 14:40:25;0;-1;-1;-1;-1;-1;100;0;0;0;0;0;0;0;0;0;0;0;0;0;0;273;117;6.93581;274.182;116.695;0;1;1;1.08001;-0.939373;-3.04018;1.07406;-0.898235;-2.96314;-0.394143;-0.171973;-0.0952466;1.44175;-0.568963;-3.52888;0;0;0;0;0;0;0;0;0;0;675;224;1024;1024;1024;224;1024;1024;1024;1;4;0;0;0;0;0; 
3353;3356;2019/10/09 14:40:25;0;-1;-1;-1;-1;-1;100;0;0;0;0;0;0;0;0;0;0;0;0;0;0;274;118;7.38;275.185;117.646;0;2;1;1.00824;-0.888476;-2.85347;1.05432;-0.895307;-2.93024;-0.375617;-0.198408;-0.0994036;1.87201;-0.883103;-4.13994;0;0;0;0;0;0;0;0;0;0;675;224;1024;1024;1024;224;1024;1024;1024;1;4;0;0;0;0;0; 
3354;3357;2019/10/09 14:40:25;0;-1;-1;-1;-1;-1;100;0;0;0;0;0;0;0;0;0;0;0;0;0;0;275;119;7.2121;276.188;118.607;0;3;1;1.0248;-0.914935;-2.91609;1.04546;-0.901195;-2.92599;-0.373522;-0.219397;-0.070351;2.029;-1.09497;-4.13322;0;0;0;0;0;0;0;0;0;0;675;224;1024;1024;1024;224;1024;1024;1024;1;4;0;0;0;0;0; 
3355;3358;2019/10/09 14:40:25;0;-1;-1;-1;-1;-1;100;0;0;0;0;0;0;0;0;0;0;0;0;0;0;277;120;7.38843;277.518;119.587;0;4;1;0.986831;-0.898735;-2.84277;1.02787;-0.900457;-2.90103;-0.396544;-0.225751;0.0123496;1.93073;-1.21481;-3.58957;0;0;0;0;0;0;0;0;0;0;675;224;1024;1024;1024;224;1024;1024;1024;1;4;0;0;0;0;0; 
3356;3359;2019/10/09 14:40:25;0;-1;-1;-1;-1;-1;100;0;0;0;0;0;0;0;0;0;0;0;0;0;0;278;121;7.36146;278.748;120.586;0;5;1;0.983668;-0.907685;-2.84945;1.01461;-0.902626;-2.88556;-0.480032;-0.210845;0.212228;1.34378;-1.18702;-2.09323;0;0;0;0;0;0;0;0;0;0;675;224;1024;1024;1024;224;1024;1024;1024;1;4;0;0;0;0;0; 
3357;3360;2019/10/09 14:40:25;0;-1;-1;-1;-1;-1;100;0;0;0;0;0;0;0;0;0;0;0;0;0;0;280.667;122.667;7.09352;280.446;121.815;0;6;1;1.00206;-0.951754;-2.95062;1.01085;-0.917364;-2.90508;-0.495659;-0.252316;0.213061;0.74114;-1.22005;-0.818321;0;0;0;0;0;0;0;0;0;0;675;224;1024;1024;1024;224;1024;1024;1024;1;4;0;0;0;0;0; 
3358;3361;2019/10/09 14:40:25;0;-1;-1;-1;-1;-1;100;0;0;0;0;0;0;0;0;0;0;0;0;0;0;281.333;123.333;7.38;281.838;122.891;0;7;1;0.958659;-0.918571;-2.8336;0.995191;-0.917726;-2.88363;-0.612327;-0.229216;0.445291;-0.42649;-0.96059;1.66729;0;0;0;0;0;0;0;0;0;0;675;224;1024;1024;1024;224;1024;1024;1024;1;4;0;0;0;0;0; 
3359;3362;2019/10/09 14:40:25;0;-1;-1;-1;-1;-1;100;0;0;0;0;0;0;0;0;0;0;0;0;0;0;284;125;7.19578;283.649;124.176;0;8;1;0.964709;-0.951732;-2.89978;0.986046;-0.927928;-2.88848;-0.639995;-0.267779;0.433924;-1.31151;-0.853339;3.12986;0;0;0;0;0;0;0;0;0;0;675;224;1024;1024;1024;224;1024;1024;1024;1;4;0;0;0;0;0; 
3360;3363;2019/10/09 14:40:25;0;-1;-1;-1;-1;-1;100;0;0;0;0;0;0;0;0;0;0;0;0;0;0;286;126;7.29877;285.55;125.398;0;9;1;0.937423;-0.944008;-2.85509;0.971459;-0.932752;-2.87846;-0.679476;-0.286667;0.450143;-2.00853;-0.780602;3.95616;0;0;0;0;0;0;0;0;0;0;675;224;1024;1024;1024;224;1024;1024;1024;1;4;0;0;0;0;0; 
3361;3364;2019/10/09 14:40:25;0;-1;-1;-1;-1;-1;100;0;0;0;0;0;0;0;0;0;0;0;0;0;0;287;127;7.2675;287.195;126.575;0;10;1;0.934591;-0.953801;-2.8636;0.960399;-0.939067;-2.874;-0.677097;-0.32616;0.377994;-2.32532;-0.86928;3.83365;0;0;0;0;0;0;0;0;0;0;675;224;1024;1024;1024;224;1024;1024;1024;1;4;0;0;0;0;0; 
3362;3365;2019/10/09 14:40:25;0;-1;-1;-1;-1;-1;100;0;0;0;0;0;0;0;0;0;0;0;0;0;0;289;128;7.38208;288.974;127.718;0;11;1;0.906565;-0.944637;-2.81542;0.944249;-0.940738;-2.85643;-0.687203;-0.347872;0.343094;-2.22239;-1.06869;2.82271;0;0;0;0;0;0;0;0;0;0;675;224;1024;1024;1024;224;1024;1024;1024;1;4;0;0;0;0;0; 
3363;3366;2019/10/09 14:40:25;0;-1;-1;-1;-1;-1;100;0;0;0;0;0;0;0;0;0;0;0;0;0;0;291;129;7.39727;290.849;128.834;0;12;1;0.891212;-0.948326;-2.80592;0.928338;-0.943014;-2.84128;-0.74177;-0.31114;0.460593;-2.31612;-0.876088;2.68198;0;0;0;0;0;0;0;0;0;0;675;224;1024;1024;1024;224;1024;1024;1024;1;4;0;0;0;0;0; 
3364;3367;2019/10/09 14:40:25;0;-1;-1;-1;-1;-1;101;0;0;0;0;0;0;0;0;0;0;0;0;0;0;292;130;7.43534;292.472;129.932;0;13;1;0.879938;-0.949072;-2.78786;0.913818;-0.944832;-2.82525;-0.76997;-0.294911;0.509461;-2.01911;-0.787964;1.86541;0;0;0;0;0.632232;-1.04907;-2.63405;0;0;0;675;650;1024;1024;1024;224;1024;1024;1024;1;4;0;0;0;0;0; 
3365;3368;2019/10/09 14:40:25;0;-1;-1;-1;-1;-1;102;0;0;0;0;0;0;0;0;0;0;0;0;0;0;292;130;7.43534;293.745;130.674;1;0;1;0.879938;-0.949072;-2.78786;0.913818;-0.944832;-2.82525;-0.76997;-0.294911;0.509461;-2.01911;-0.787964;1.86541;0;0;0;0;0.614326;-1.04907;-2.61212;0;0;0;675;650;1024;1024;1024;224;1024;1024;1024;1;4;0;0;0;0;0; 
3366;3369;2019/10/09 14:40:25;0;-1;-1;-1;-1;-1;103;0;0;0;0;0;0;0;0;0;0;0;0;0;0;295;131;7.37037;295.502;131.541;0;1;1;0.867384;-0.963088;-2.80871;0.899888;-0.950309;-2.82029;-0.756852;-0.253543;0.539042;-1.6114;-0.424057;1.479;0;0;0;0;0.596022;-1.06309;-2.62916;0;0;0;675;650;1024;1024;1024;224;1024;1024;1024;1;4;0;0;0;0;0; 
3367;3370;2019/10/09 14:40:25;0;-1;-1;-1;-1;-1;104;0;0;0;0;0;0;0;0;0;0;0;0;0;0;297;132;7.37726;297.323;132.45;0;2;1;0.853046;-0.967834;-2.80236;0.885835;-0.955566;-2.81491;-0.747154;-0.230206;0.540926;-1.19846;-0.061198;1.1981;0;0;0;0;0.581108;-1.06783;-2.60868;0;0;0;675;650;1024;1024;1024;224;1024;1024;1024;1;4;0;0;0;0;0; 
3368;3371;2019/10/09 14:40:25;0;-1;-1;-1;-1;-1;105;0;0;0;0;0;0;0;0;0;0;0;0;0;0;299;133;7.27241;299.203;133.389;0;3;1;0.851621;-0.987512;-2.83898;0.875571;-0.96515;-2.82213;-0.738607;-0.227391;0.502083;-0.92959;0.301309;1.14354;0;0;0;0;0.576837;-1.08751;-2.64004;0;0;0;675;650;1024;1024;1024;224;1024;1024;1024;1;4;0;0;0;0;0; 
3369;3372;2019/10/09 14:40:25;0;-1;-1;-1;-1;-1;106;0;0;0;0;0;0;0;0;0;0;0;0;0;0;300;133;7.25302;300.804;134.024;0;4;1;0.847018;-0.990153;-2.84657;0.867005;-0.972651;-2.82946;-0.707526;-0.245655;0.393543;-0.627308;0.530615;0.858786;0;0;0;0;0.57042;-1.09015;-2.65855;0;0;0;675;650;1024;1024;1024;224;1024;1024;1024;1;4;0;0;0;0;0; 
3370;3373;2019/10/09 14:40:25;0;-1;-1;-1;-1;-1;107;0;0;0;0;0;0;0;0;0;0;0;0;0;0;300;133;7.25302;302.156;134.78;1;0;1;0.847018;-0.990153;-2.84657;0.867005;-0.972651;-2.82946;-0.707526;-0.245655;0.393543;-0.627308;0.530615;0.858786;0;0;0;0;0.57923;-1.09015;-2.69762;0;0;0;675;650;1024;1024;1024;224;1024;1024;1024;1;4;0;0;0;0;0; 
3371;3374;2019/10/09 14:40:25;0;-1;-1;-1;-1;-1;108;0;0;0;0;0;0;0;0;0;0;0;0;0;0;303;135;7.36707;303.836;135.623;0;1;1;0.813586;-0.98613;-2.79504;0.850979;-0.976695;-2.81913;-0.656174;-0.248252;0.302435;-0.120059;0.506691;0.0416481;0;0;0;0;0.54344;-1.08613;-2.64478;0;0;0;675;650;1024;1024;1024;224;1024;1024;1024;1;4;0;0;0;0;0; 
3372;3375;2019/10/09 14:40:25;0;-1;-1;-1;-1;-1;109;0;0;0;0;0;0;0;0;0;0;0;0;0;0;303;135;7.36707;305.202;136.383;1;0;1;0.813586;-0.98613;-2.79504;0.850979;-0.976695;-2.81913;-0.656174;-0.248252;0.302435;-0.120059;0.506691;0.0416481;0;0;0;0;0.560403;-1.08613;-2.67834;0;0;0;675;650;1024;1024;1024;224;1024;1024;1024;1;4;0;0;0;0;0; 
3373;3376;2019/10/09 14:40:25;0;-1;-1;-1;-1;-1;110;0;0;0;0;0;0;0;0;0;0;0;0;0;0;307.333;136.667;7.41617;307.457;137.262;0;1;1;0.779042;-0.988959;-2.77035;0.829398;-0.980374;-2.8045;-0.61842;-0.243561;0.236702;0.331372;0.440703;-0.701062;0;0;0;0;0.522952;-1.08896;-2.65232;0;0;0;675;650;1024;1024;1024;224;1024;1024;1024;1;4;0;0;0;0;0; 
3374;3377;2019/10/09 14:40:25;0;-1;-1;-1;-1;-1;111;0;0;0;0;0;0;0;0;0;0;0;0;0;0;310;138;7.32688;309.793;138.298;0;2;1;0.770375;-1.00859;-2.79911;0.811691;-0.988839;-2.80288;-0.635167;-0.261519;0.194144;0.563222;0.240537;-1.45347;0;0;0;0;0.525939;-1.10859;-2.70555;0;0;0;675;650;1024;1024;1024;224;1024;1024;1024;1;4;0;0;0;0;0; 
3375;3378;2019/10/09 14:40:25;0;-1;-1;-1;-1;-1;112;0;0;0;0;0;0;0;0;0;0;0;0;0;0;312;139;7.24296;311.992;139.315;0;3;1;0.765521;-1.02602;-2.82775;0.79784;-0.999994;-2.81034;-0.644611;-0.289956;0.130164;0.645009;-0.0346087;-2.10216;0;0;0;0;0.509092;-1.12602;-2.74937;0;0;0;675;650;1024;1024;1024;224;1024;1024;1024;1;4;0;0;0;0;0; 
3376;3379;2019/10/09 14:40:25;0;-1;-1;-1;-1;-1;113;0;0;0;0;0;0;0;0;0;0;0;0;0;0;314;140;7.43844;314.132;140.329;0;4;1;0.731988;-1.00466;-2.74974;0.778084;-1.00139;-2.79216;-0.678701;-0.282511;0.167841;0.566403;-0.185827;-2.26222;0;0;0;0;0.469743;-1.10466;-2.69679;0;0;0;675;650;1024;1024;1024;224;1024;1024;1024;1;4;0;0;0;0;0; 
3377;3380;2019/10/09 14:40:25;0;-1;-1;-1;-1;-1;114;0;0;0;0;0;0;0;0;0;0;0;0;0;0;314;140;7.43844;315.636;141.126;1;0;1;0.731988;-1.00466;-2.74974;0.778084;-1.00139;-2.79216;-0.678701;-0.282511;0.167841;0.566403;-0.185827;-2.26222;0;0;0;0;0.448907;-1.10466;-2.67974;0;0;0;675;650;1024;1024;1024;224;1024;1024;1024;1;4;0;0;0;0;0; 
3378;3381;2019/10/09 14:40:25;0;-1;-1;-1;-1;-1;115;0;0;0;0;0;0;0;0;0;0;0;0;0;0;318;141;7.26982;318.064;141.873;0;1;1;0.72151;-1.03369;-2.80974;0.761112;-1.01108;-2.79743;-0.689093;-0.271807;0.185956;0.388909;-0.18111;-1.9099;0;0;0;0;0.43244;-1.13369;-2.73825;0;0;0;675;650;1024;1024;1024;224;1024;1024;1024;1;4;0;0;0;0;0; 
3379;3382;2019/10/09 14:40:25;0;-1;-1;-1;-1;-1;116;0;0;0;0;0;0;0;0;0;0;0;0;0;0;320;142;7.32316;320.294;142.713;0;2;1;0.702626;-1.03185;-2.78552;0.743566;-1.01731;-2.79386;-0.735116;-0.284719;0.187264;-0.0030542;-0.217869;-1.49083;0;0;0;0;0.404627;-1.13185;-2.7051;0;0;0;675;650;1024;1024;1024;224;1024;1024;1024;1;4;0;0;0;0;0; 
3380;3383;2019/10/09 14:40:25;0;-1;-1;-1;-1;-1;117;0;0;0;0;0;0;0;0;0;0;0;0;0;0;322;142;7.37062;322.441;143.269;0;3;1;0.684562;-1.0252;-2.76758;0.725865;-1.01968;-2.78598;-0.795401;-0.305352;0.175755;-0.607534;-0.342197;-1.10308;0;0;0;0;0.360218;-1.1252;-2.68496;0;0;0;675;650;1024;1024;1024;224;1024;1024;1024;1;4;0;0;0;0;0; 
3381;3384;2019/10/09 14:40:25;0;-1;-1;-1;-1;-1;118;0;0;0;0;0;0;0;0;0;0;0;0;0;0;324;142;7.30899;324.546;143.638;0;4;1;0.67668;-1.03385;-2.79092;0.71111;-1.02393;-2.78746;-0.821567;-0.303344;0.158259;-1.00264;-0.348502;-0.784697;0;0;0;0;0.316874;-1.13385;-2.71141;0;0;0;675;650;1024;1024;1024;224;1024;1024;1024;1;4;0;0;0;0;0; 
3382;3385;2019/10/09 14:40:25;0;-1;-1;-1;-1;-1;119;0;0;0;0;0;0;0;0;0;0;0;0;0;0;326;142;7.2591;326.636;143.876;0;5;1;0.667582;-1.04095;-2.8101;0.698051;-1.02904;-2.79425;-0.834552;-0.281431;0.150044;-1.25181;-0.179915;-0.402763;0;0;0;0;0.288187;-1.14095;-2.73701;0;0;0;675;650;939;1153;1024;224;1024;1024;1024;1;4;0;0;0;0;0; 
3383;3386;2019/10/09 14:40:25;0;-1;-1;-1;-1;-1;120;0;0;0;0;0;0;0;0;0;0;0;0;0;0;326;142;7.2591;328.275;144.622;1;0;1;0.667582;-1.04095;-2.8101;0.698051;-1.02904;-2.79425;-0.834552;-0.281431;0.150044;-1.25181;-0.179915;-0.402763;0;0;0;0;0.274777;-1.14095;-2.73947;0;0;0;675;650;939;1153;1024;224;1024;1024;1024;1;4;0;0;0;0;0; 
3384;3387;2019/10/09 14:40:25;0;-1;-1;-1;-1;-1;121;0;0;0;0;0;0;0;0;0;0;0;0;0;0;329;141;7.22531;330.196;143.963;0;1;1;0.649985;-1.04006;-2.82704;0.683632;-1.03234;-2.80409;-0.783648;-0.261562;0.054302;-1.06544;-0.0452022;-0.581744;0;0;0;0;0.250159;-1.14006;-2.75516;0;0;0;675;650;942;1160;1024;224;1024;1024;1024;1;4;0;0;0;0;0; 
3385;3388;2019/10/09 14:40:25;0;-1;-1;-1;-1;-1;122;0;0;0;0;0;0;0;0;0;0;0;0;0;0;331;140;7.2414;332.131;143.248;0;2;1;0.63476;-1.032;-2.82456;0.66897;-1.03224;-2.81023;-0.785626;-0.229365;-0.0112249;-0.969733;0.118176;-1.02407;0;0;0;0;0.255418;-1.132;-2.79828;0;0;0;675;650;947;1161;1024;224;1024;1024;1024;1;4;0;0;0;0;0; 
3386;3389;2019/10/09 14:40:25;0;-1;-1;-1;-1;-1;123;0;0;0;0;0;0;0;0;0;0;0;0;0;0;332;140;7.1686;333.751;142.781;0;3;1;0.634245;-1.04248;-2.85324;0.658552;-1.03531;-2.82313;-0.762407;-0.199233;-0.106955;-0.675269;0.363551;-1.62166;0;0;0;0;0.246601;-1.14248;-2.85878;0;0;0;675;650;948;1170;1024;224;1024;1024;1024;1;4;0;0;0;0;0; 
3387;3390;2019/10/09 14:40:25;0;-1;-1;-1;-1;-1;124;0;0;0;0;0;0;0;0;0;0;0;0;0;0;333;141;6.97897;335.167;142.775;0;4;1;0.644328;-1.07677;-2.92683;0.654285;-1.04775;-2.85424;-0.70249;-0.215629;-0.29788;-0.0870911;0.52529;-2.59443;0;0;0;0;0.260063;-1.17677;-2.98074;0;0;0;675;650;945;1191;1024;224;1024;1024;1024;1;4;0;0;0;0;0; 
3388;3391;2019/10/09 14:40:25;0;-1;-1;-1;-1;-1;125;0;0;0;0;0;0;0;0;0;0;0;0;0;0;333;141;6.97897;336.818;143.328;1;0;1;0.644328;-1.07677;-2.92683;0.654285;-1.04775;-2.85424;-0.70249;-0.215629;-0.29788;-0.0870911;0.52529;-2.59443;0;0;0;0;0.284625;-1.17677;-3.07936;0;0;0;675;1824;945;1191;1024;224;1024;1024;1024;1;4;0;0;0;0;0; 
3389;3392;2019/10/09 14:40:25;0;-1;-1;-1;-1;-1;126;0;0;0;0;0;0;0;0;0;0;0;0;0;0;333;141;6.97897;338.469;143.881;2;0;1;0.644328;-1.07677;-2.92683;0.654285;-1.04775;-2.85424;-0.70249;-0.215629;-0.29788;-0.0870911;0.52529;-2.59443;0;0;0;0;0.27876;-1.17677;-3.08185;0;0;0;675;1824;945;1191;1024;224;1024;1024;1024;1;4;0;0;0;0;0; 
3390;3393;2019/10/09 14:40:25;0;-1;-1;-1;-1;-1;127;0;0;0;0;0;0;0;0;0;0;0;0;0;0;337;140;7.09522;339.461;142.691;0;1;1;0.60564;-1.05326;-2.88275;0.639692;-1.0494;-2.8628;-0.6116;-0.197177;-0.379269;0.506653;0.597778;-2.98749;0;0;0;0;0.236658;-1.15326;-3.03921;0;0;0;675;1824;945;1191;1024;224;1024;1024;1024;1;4;0;0;0;0;0; 
3391;3394;2019/10/09 14:40:25;0;-1;-1;-1;-1;-1;128;0;0;0;0;0;0;0;0;0;0;0;0;0;0;337;140;7.09522;341.084;143.17;1;0;1;0.60564;-1.05326;-2.88275;0.639692;-1.0494;-2.8628;-0.6116;-0.197177;-0.379269;0.506653;0.597778;-2.98749;0;0;0;0;0.280519;-1.15326;-3.08437;0;0;0;675;1824;945;1191;1024;224;1024;1024;1024;1;4;0;0;0;0;0; 
3392;3395;2019/10/09 14:40:26;0;-1;-1;-1;-1;-1;129;0;0;0;0;0;0;0;0;0;0;0;0;0;0;337;140;7.09522;342.707;143.649;2;0;1;0.60564;-1.05326;-2.88275;0.639692;-1.0494;-2.8628;-0.6116;-0.197177;-0.379269;0.506653;0.597778;-2.98749;0;0;0;0;0.275413;-1.15326;-3.08753;0;0;0;675;1824;945;1191;1024;224;1024;1024;1024;1;4;0;0;0;0;0; 
3393;3396;2019/10/09 14:40:26;0;-1;-1;-1;-1;-1;130;0;0;0;0;0;0;0;0;0;0;0;0;0;0;337;140;7.09522;344.33;144.128;3;0;1;0.60564;-1.05326;-2.88275;0.639692;-1.0494;-2.8628;-0.6116;-0.197177;-0.379269;0.506653;0.597778;-2.98749;0;0;0;0;0.270307;-1.15326;-3.0907;0;0;0;675;1824;945;1191;1024;224;1024;1024;1024;1;4;0;0;0;0;0; 
3394;3397;2019/10/09 14:40:26;0;-1;-1;-1;-1;-1;131;0;0;0;0;0;0;0;0;0;0;0;0;0;0;344;139;7.12662;345.774;141.823;0;1;1;0.553958;-1.04277;-2.87391;0.613971;-1.04741;-2.86613;-0.534818;-0.154991;-0.371063;0.902383;0.611092;-2.83284;0;0;0;0;0.215078;-1.14277;-3.08406;0;0;0;675;1824;945;1191;1024;224;1024;1024;1024;1;4;0;0;0;0;0; 
3395;3398;2019/10/09 14:40:26;0;-1;-1;-1;-1;-1;132;0;0;0;0;0;0;0;0;0;0;0;0;0;0;346;139;6.92479;347.485;141.007;0;2;1;0.555692;-1.07317;-2.95767;0.596488;-1.05514;-2.89359;-0.510682;-0.142642;-0.417571;1.13593;0.625652;-2.7274;0;0;0;0;0.2546;-1.17317;-3.16658;0;0;0;675;1824;945;1191;1024;224;1024;1024;1024;1;4;0;0;0;0;0; 
3396;3399;2019/10/09 14:40:26;0;-1;-1;-1;-1;-1;133;0;0;0;0;0;0;0;0;0;0;0;0;0;0;348;139;6.88925;349.294;140.589;0;3;1;0.544072;-1.0787;-2.97293;0.580763;-1.06221;-2.91739;-0.498515;-0.150855;-0.483935;1.30685;0.546378;-2.66595;0;0;0;0;0.25203;-1.1787;-3.21172;0;0;0;675;650;945;1191;1024;224;1024;1024;1024;1;4;0;0;0;0;0; 
3397;3400;2019/10/09 14:40:26;0;-1;-1;-1;-1;-1;134;0;0;0;0;0;0;0;0;0;0;0;0;0;0;349;138;7.31159;350.821;139.991;0;4;1;0.50582;-1.0107;-2.80497;0.55828;-1.04676;-2.88367;-0.517493;-0.115439;-0.422192;1.31751;0.510323;-2.28613;0;0;0;0;0.219819;-1.1107;-3.0826;0;0;0;675;650;945;1191;1024;224;1024;1024;1024;1;4;0;0;0;0;0; 
3398;3401;2019/10/09 14:40:26;0;-1;-1;-1;-1;-1;135;0;0;0;0;0;0;0;0;0;0;0;0;0;0;350;138;7.09323;352.173;139.585;0;5;1;0.514357;-1.04181;-2.89131;0.545103;-1.04527;-2.88596;-0.548283;-0.0638716;-0.322388;1.12636;0.636706;-1.42505;0;0;0;0;0.211905;-1.14181;-3.13806;0;0;0;675;650;945;1191;1024;224;1024;1024;1024;1;4;0;0;0;0;0; 
3399;3402;2019/10/09 14:40:26;0;415.949;283.846;7.51318;415.949;283.846;0;1;1;0.0475999;-1.79195;-2.19601;0.0475999;-1.79195;-2.19601;0;0;0;0;0;0;352;137;6.9943;353.729;138.969;0;6;1;0.507363;-1.05059;-2.93614;0.533781;-1.04687;-2.90101;-0.610892;-0.0315821;-0.295162;0.677699;0.82282;-0.631151;1;0;0;0;0.181942;-1.15059;-3.12749;0;0;0;644.456;650;945;1191;1024;224;1024;1024;1024;1;4;0;56.8012;0;0;0; 
3400;3403;2019/10/09 14:40:26;0;412.235;272.235;7.53007;415.611;282.791;0;2;1;0.0721011;-1.72372;-2.23348;0.0549503;-1.77148;-2.20725;0;0;0;0;0;0;354;137;6.94258;355.426;138.524;0;7;1;0.496768;-1.05842;-2.95801;0.522677;-1.05033;-2.91811;-0.73106;-0.0306133;-0.384659;-0.376948;0.990317;-0.432977;1;0;0;0;0.416267;-1.15842;-2.99691;0;0;0;644.456;650;945;1191;1024;224;1024;1024;1024;1;4;0;0.0166975;0;0;0; 
3401;3404;2019/10/09 14:40:26;0;409.886;265.314;7.51431;414.691;279.982;0;3;1;0.0878551;-1.68899;-2.26349;0.0648217;-1.74674;-2.22412;0;0;0;0;0;0;356;136;7.0104;357.223;137.876;0;8;1;0.477726;-1.04224;-2.93332;0.509192;-1.04791;-2.92268;-0.787196;0.0105129;-0.346914;-1.33025;1.20572;0.0223396;1;0;0;0;0.382524;-1.14224;-2.98341;0;0;0;644.456;650;945;1191;1024;224;1024;1024;1024;1;4;0;0.0166963;0;0;0; 
3402;3405;2019/10/09 14:40:26;0;407.647;258;7.49831;413.225;275.407;0;4;1;0.10294;-1.65197;-2.29513;0.0762572;-1.7183;-2.24543;0;0;0;0;0;0;357.333;135.333;6.99293;358.88;137.189;0;9;1;0.469405;-1.04087;-2.94327;0.497256;-1.0458;-2.92885;-0.805749;0.0718372;-0.253901;-2.02489;1.61261;0.931895;1;0;0;0;0.370239;-1.14087;-2.98697;0;0;0;644.456;650;1024;1024;1024;224;1024;1024;1024;1;4;0;0.0166973;0;0;0; 
3403;3406;2019/10/09 14:40:26;0;404.424;250.909;7.49154;411.13;269.573;0;5;1;0.1245;-1.61404;-2.32323;0.09073;-1.68703;-2.26877;0;0;0;0;0;0;359;135;6.89203;360.541;136.58;0;10;1;0.464211;-1.0541;-2.98769;0.487342;-1.04829;-2.9465;-0.766694;0.0369854;-0.403243;-2.20996;1.57618;0.634796;1;0;0;0;0.366108;-1.1541;-3.0186;0;0;0;644.456;650;1339;1342;1024;224;1024;1024;1024;1;4;0;0.0166963;0;0;0; 
3404;3407;2019/10/09 14:40:26;0;402.056;243.667;7.48033;408.798;262.916;0;6;1;0.140488;-1.57614;-2.35333;0.105657;-1.65376;-2.29414;0;0;0;0;0;0;361;135;6.88257;362.312;136.135;0;11;1;0.450349;-1.05555;-2.9918;0.476244;-1.05047;-2.96009;-0.73496;0.00145447;-0.537942;-2.07136;1.20654;-0.479799;1;0;0;0;0.361294;-1.15555;-3.03863;0;0;0;644.456;650;1303;1362;1024;224;1024;1024;1024;1;4;0;0.0166973;0;0;0; 
3405;3408;2019/10/09 14:40:26;0;399.688;236.375;7.43233;406.344;255.768;0;7;1;0.157294;-1.54547;-2.3955;0.121148;-1.62127;-2.32455;0.73415;1.7037;-1.283;7.31982;17.3211;-12.4208;361;135;6.88257;363.943;136.173;1;0;1;0.450349;-1.05555;-2.9918;0.476244;-1.05047;-2.96009;-0.73496;0.00145447;-0.537942;-2.07136;1.20654;-0.479799;1;0;0;0;0.372709;-1.15555;-3.04862;0;0;0;644.456;650;1274;1358;1024;224;1024;1024;1024;1;4;0;0.0166963;0;0;0; 
3406;3409;2019/10/09 14:40:26;0;396.516;229.032;7.37403;403.611;248.324;0;8;1;0.179998;-1.51622;-2.44181;0.138803;-1.58976;-2.35973;0.775294;1.74781;-1.37859;5.72982;12.4766;-10.2692;361;135;6.88257;365.574;136.211;2;0;1;0.450349;-1.05555;-2.9918;0.476244;-1.05047;-2.96009;-0.73496;0.00145447;-0.537942;-2.07136;1.20654;-0.479799;1;0;0;0;0.378673;-1.15555;-3.04426;0;0;0;644.456;650;1256;1349;1024;224;1024;1024;1024;1;4;0;0.0166973;0;0;0; 
3407;3410;2019/10/09 14:40:26;0;394.25;222.312;7.3999;400.933;240.879;0;9;1;0.19465;-1.47311;-2.45825;0.155557;-1.55476;-2.38928;0.827461;1.81519;-1.48659;4.38108;8.81489;-8.06275;361;135;6.88257;367.205;136.248;3;0;1;0.450349;-1.05555;-2.9918;0.476244;-1.05047;-2.96009;-0.73496;0.00145447;-0.537942;-2.07136;1.20654;-0.479799;1;0;0;0;0.383458;-1.15555;-3.04076;0;0;0;644.456;650;1236;1365;1024;224;1024;1024;1024;1;4;0;0.0166963;0;0;0; 
3408;3411;2019/10/09 14:40:26;0;391.613;214.903;7.4092;398.201;233.261;0;10;1;0.212166;-1.42961;-2.48265;0.17254;-1.51722;-2.41729;0.880908;1.89201;-1.57818;3.41136;6.04478;-6.04484;368;134;6.92233;369.233;135.162;0;1;1;0.397302;-1.04347;-2.97858;0.452562;-1.04837;-2.96564;-0.657172;-0.00311604;-0.49479;-1.36601;0.799699;-0.819264;1;0;0;0;0.337666;-1.14347;-3.02223;0;0;0;644.456;650;1271;1340;1024;224;1024;1024;1024;1;4;0;0.0166975;0;0;0; 
3409;3412;2019/10/09 14:40:26;0;389;208;7.42113;395.437;225.664;0;11;1;0.229394;-1.38858;-2.50424;0.189596;-1.47863;-2.44338;0.923291;1.9673;-1.64408;2.27227;4.00193;-4.60943;370;134;6.76456;371.189;134.685;0;2;1;0.391815;-1.06781;-3.04805;0.434338;-1.0542;-2.99036;-0.629454;-0.0121576;-0.489195;-0.549138;0.528947;-0.769822;1;0;0;0;0.340176;-1.16781;-3.08693;0;0;0;644.456;1824;1271;1340;1024;224;1024;1024;1024;1;4;0;0.0166963;0;0;0; 
3410;3413;2019/10/09 14:40:26;0;386.828;200.828;7.2813;392.776;218.004;0;12;1;0.248687;-1.37422;-2.57941;0.207323;-1.4473;-2.48419;0.959902;2.00471;-1.74527;1.62651;2.45105;-3.66776;371;133;6.94404;372.781;134.051;0;3;1;0.374502;-1.03421;-2.97323;0.416387;-1.0482;-2.98522;-0.624708;-0.00808307;-0.460011;0.10304;0.267868;-0.762943;1;0;0;0;0.334674;-1.13421;-3.00418;0;0;0;644.456;1824;1271;1340;1024;224;1024;1024;1024;1;4;0;0.0166973;0;0;0; 
3411;3414;2019/10/09 14:40:26;0;385.357;193.143;7.21177;390.393;210.146;0;13;1;0.261259;-1.3431;-2.63357;0.223504;-1.41604;-2.529;0.984622;2.02226;-1.8635;1.97598;2.74255;-4.51847;373;133;6.9128;374.513;133.64;0;4;1;0.361757;-1.03888;-2.98666;0.399998;-1.04541;-2.98566;-0.633715;-0.00381188;-0.427209;0.519761;-0.0406497;-0.919094;1;0;0;0;0.327411;-1.13888;-3.01196;0;0;0;644.456;1824;1271;1340;1024;224;1024;1024;1024;1;4;0;0.0166963;0;0;0; 
3412;3415;2019/10/09 14:40:26;0;384.267;185.733;7.03377;388.326;202.217;0;14;1;0.275607;-1.33322;-2.72918;0.239135;-1.3912;-2.58906;0.991373;2.00616;-2.03376;2.04834;2.67705;-5.32701;374;133;6.78166;376.005;133.36;0;5;1;0.361395;-1.05897;-3.04442;0.388417;-1.04948;-3.00328;-0.643556;-0.00545304;-0.407471;0.639635;-0.137356;-0.56271;1;0;0;0;0.331241;-1.15897;-3.06475;0;0;0;644.456;1824;1271;1340;1024;224;1024;1024;1024;1;4;0;0.0166973;0;0;0; 
3413;3416;2019/10/09 14:40:26;0;383.5;179.188;6.85929;386.587;194.484;0;15;1;0.288195;-1.32739;-2.82484;0.253853;-1.37206;-2.65979;0.987294;1.9332;-2.30033;1.86718;2.07741;-6.44525;375.333;132.667;6.94165;377.441;133.057;0;6;1;0.343481;-1.03257;-2.97557;0.374936;-1.0444;-2.99497;-0.655806;0.0128647;-0.337329;0.594482;-0.0520407;0.196387;1;0;0;0;0.318068;-1.13257;-2.99166;0;0;0;644.456;1824;1271;1340;1024;224;1024;1024;1024;1;4;0;0.0166963;0;0;0; 
3414;3417;2019/10/09 14:40:26;0;383.29;172.581;6.75023;385.257;186.876;0;16;1;0.294401;-1.30808;-2.89739;0.266017;-1.35286;-2.73107;0.96561;1.81614;-2.63304;1.4585;0.943541;-8.07895;377;132;7.03514;378.944;132.629;0;7;1;0.327095;-1.0149;-2.93864;0.360584;-1.03555;-2.97807;-0.760739;0.0588865;-0.252035;-0.0568371;0.216343;1.08712;1;0;0;0;0.327095;-1.0149;-2.93864;0;0;0;644.456;650;1271;1340;1024;224;1024;1024;1024;1;4;0;0.0166973;0;0;0; 
3415;3418;2019/10/09 14:40:26;0;383.871;166.387;6.60176;384.464;179.481;0;17;1;0.296633;-1.29843;-2.98834;0.275202;-1.33653;-2.80825;0.92117;1.65702;-3.03669;0.866632;-0.672723;-10.4077;378;132;6.96331;380.28;132.325;0;8;1;0.323303;-1.02537;-2.96895;0.3494;-1.0325;-2.97533;-0.79559;0.121984;-0.0912143;-0.697461;0.665417;2.24135;1;0;0;0;0.323303;-1.02537;-2.96895;0;0;0;644.456;650;1271;1340;1024;224;1024;1024;1024;1;4;0;0.0166963;0;0;0; 
3416;3419;2019/10/09 14:40:26;0;383.478;160.428;6.51261;383.776;172.313;0;18;1;0.303704;-1.2781;-3.05441;0.283753;-1.319;-2.8821;0.857866;1.50649;-3.41078;0.112577;-2.39291;-12.8946;380;132;6.74502;381.815;132.11;0;9;1;0.31897;-1.05855;-3.06503;0.340271;-1.04031;-3.00224;-0.781276;0.10469;-0.12269;-1.04363;0.849537;2.69169;1;0;0;0;0.31897;-1.05855;-3.06503;0;0;0;644.456;650;1271;1340;1024;224;1024;1024;1024;1;4;0;0.0166975;0;0;0; 
3417;3420;2019/10/09 14:40:26;0;385.333;154.575;6.47068;383.843;165.346;0;19;1;0.291365;-1.24872;-3.09907;0.286036;-1.29792;-2.94719;0.764396;1.37554;-3.71619;-0.811762;-4.01796;-15.1341;381.556;131.111;6.92712;383.353;131.675;0;10;1;0.299379;-1.02538;-2.98799;0.328003;-1.03583;-2.99797;-0.756231;0.101038;-0.12277;-1.11536;0.928375;2.83059;1;0;0;0;0.299379;-1.02538;-2.98799;0;0;0;644.456;650;1271;1340;1024;224;1024;1024;1024;1;4;0;0.0166963;0;0;0; 
3418;3421;2019/10/09 14:40:26;0;387.804;149.155;6.35368;384.652;158.659;0;20;1;0.27733;-1.23619;-3.17959;0.283424;-1.2794;-3.01691;0.635474;1.2717;-3.93802;-1.90807;-5.34329;-16.6837;383;131;6.88282;384.858;131.33;0;11;1;0.290834;-1.03131;-3.00766;0.316853;-1.03448;-3.00088;-0.739486;0.120519;-0.0640423;-1.05225;1.06001;3.06962;1;0;0;0;0.290834;-1.03131;-3.00766;0;0;0;644.456;650;1271;1340;1024;224;1024;1024;1024;1;4;0;0.0166973;0;0;0; 
3419;3422;2019/10/09 14:40:26;0;390.417;144.405;6.18853;386.053;152.384;0;21;1;0.263661;-1.23721;-3.28554;0.277495;-1.26674;-3.0975;0.475683;1.18351;-4.11047;-3.18758;-6.19928;-17.2376;385;131;6.98897;386.516;131.085;0;12;1;0.272138;-1.01565;-2.96198;0.303438;-1.02883;-2.98921;-0.729174;0.134507;-0.0154153;-0.924298;1.12171;3.12713;1;0;0;0;0.272138;-1.01565;-2.96198;0;0;0;644.456;650;1310;641;1024;224;1024;1024;1024;1;4;0;0.0166963;0;0;0; 
3420;3423;2019/10/09 14:40:26;0;392.493;139.178;6.10168;387.723;146.27;0;22;1;0.250432;-1.21915;-3.35586;0.269376;-1.25247;-3.17501;0.298821;1.11097;-4.23881;-4.57487;-6.53514;-16.754;385;131;6.98897;388.13;130.941;1;0;1;0.272138;-1.01565;-2.96198;0.303438;-1.02883;-2.98921;-0.729174;0.134507;-0.0154153;-0.924298;1.12171;3.12713;1;0.0188463;-0.164936;-0.253602;0.25053;-1.08753;-2.9214;7.59174;11.4408;7.59174;644.456;676;1087;757;1024;224;1024;1024;1024;1;4;0;0.0166973;0.0565389;-0.23091;-0.634005; 
3421;3424;2019/10/09 14:40:26;0;395.893;135.813;5.94222;389.997;140.847;0;23;1;0.228599;-1.22829;-3.46148;0.257143;-1.24521;-3.26095;0.107188;1.03121;-4.35079;-5.99495;-6.41979;-15.2993;385;131;6.98897;389.745;130.797;2;0;1;0.272138;-1.01565;-2.96198;0.303438;-1.02883;-2.98921;-0.729174;0.134507;-0.0154153;-0.924298;1.12171;3.12713;1;0.0263326;-0.129567;-0.298092;0.23081;-1.11565;-2.96286;6.40752;11.0476;6.40752;644.456;674;1045;756;1024;224;1024;1024;1024;1;4;0;0.0166963;0.0789979;-0.181393;-0.74523; 
3422;3425;2019/10/09 14:40:26;0;399.444;132.361;5.78612;392.759;135.908;0;24;1;0.204141;-1.23658;-3.57127;0.241243;-1.24262;-3.35405;-0.10542;0.923699;-4.49485;-7.44314;-6.17881;-13.508;385;131;6.98897;391.359;130.653;3;0;1;0.272138;-1.01565;-2.96198;0.303438;-1.02883;-2.98921;-0.729174;0.134507;-0.0154153;-0.924298;1.12171;3.12713;1;0.0111784;-0.126977;-0.391173;0.230064;-1.11565;-2.96287;4.60102;9.69711;4.60102;644.456;648;994;822;1024;224;1024;1024;1024;1;4;0;0.0166973;0.0335353;-0.177768;-0.977932; 
3423;3426;2019/10/09 14:40:26;0;402.571;129.714;5.55705;395.746;131.575;0;25;1;0.184477;-1.26772;-3.73157;0.224213;-1.25015;-3.4673;-0.310097;0.744941;-4.7736;-8.75607;-6.2251;-12.3268;385;131;6.98897;392.974;130.509;4;0;1;0.272138;-1.01565;-2.96198;0.303438;-1.02883;-2.98921;-0.729174;0.134507;-0.0154153;-0.924298;1.12171;3.12713;1;-0.00386111;-0.134505;-0.504389;0.228074;-1.11565;-2.96291;2.85245;7.23624;2.85245;644.456;680;945;822;1024;224;1024;1024;1024;1;4;0;0.0166963;-0.0115833;-0.188307;-1.26097; 
3424;3427;2019/10/09 14:40:26;0;405.6;127.343;5.55571;398.864;127.774;0;26;1;0.15732;-1.25025;-3.74421;0.204145;-1.25018;-3.55038;-0.5026;0.563625;-4.99416;-9.79769;-6.56224;-11.613;385;131;6.98897;394.588;130.365;5;0;1;0.272138;-1.01565;-2.96198;0.303438;-1.02883;-2.98921;-0.729174;0.134507;-0.0154153;-0.924298;1.12171;3.12713;1;-0.0222763;-0.134535;-0.587426;0.226421;-1.11565;-2.96295;1.11821;4.8786;1.11821;644.456;715;900;822;1024;224;1024;1024;1024;1;4;0;0.0166975;-0.0668288;-0.188348;-1.46856; 
3425;3428;2019/10/09 14:40:26;0;410.667;124.116;5.51639;402.707;124.1;0;27;1;0.11261;-1.2348;-3.78698;0.176685;-1.24557;-3.62136;-0.704072;0.422731;-5.08814;-10.5891;-6.97496;-10.8714;398.533;132;6.9882;398.532;131.187;0;1;1;0.175532;-1.02172;-2.95837;0.265066;-1.02669;-2.97996;-0.645533;0.0999983;-0.0133591;-0.303671;0.762564;2.39609;1;0.04755;-0.12385;-0.662004;0.129135;-1.12172;-2.95935;0.588779;3.24143;0.588779;644.456;742;869;822;1024;224;1024;1024;1024;1;4;0;0.0166963;0.14265;-0.17339;-1.65501; 
3426;3429;2019/10/09 14:40:26;0;414.067;121.833;5.52452;406.559;120.813;0;28;1;0.0817339;-1.21578;-3.79277;0.148199;-1.23663;-3.67278;-0.906271;0.316869;-5.04037;-11.1651;-7.35563;-9.72329;401;133;6.86051;401.318;131.873;0;2;1;0.160857;-1.0468;-3.00943;0.233804;-1.03273;-2.9888;-0.639076;0.0595008;-0.0373391;0.158668;0.321456;1.55499;1;0.0280407;-0.0898274;-0.662512;0.120159;-1.1468;-3.01027;-1.28151;2.48443;-1.28151;644.456;756;824;822;1024;224;1024;1024;1024;1;4;0;0.0166973;0.0841221;-0.125758;-1.65628; 
3427;3430;2019/10/09 14:40:26;0;417;121;5.51486;410.267;118.263;0;29;1;0.0553357;-1.21161;-3.80357;0.12034;-1.22913;-3.71202;-1.08998;0.254354;-4.82523;-11.4791;-7.51517;-7.72829;402;134;7.00699;403.325;132.596;0;3;1;0.150373;-1.03086;-2.9426;0.208775;-1.03217;-2.97494;-0.669833;0.0534429;0.0370662;0.337914;0.0812618;1.28093;1;0.0084376;-0.0982622;-0.767175;0.111903;-1.13086;-2.94484;-2.76386;1.51823;-2.76386;644.456;771;824;822;1024;224;1024;1024;1024;1;4;0;0.0166963;0.0253128;-0.137567;-1.91794; 
3428;3431;2019/10/09 14:40:26;0;420.119;120.074;5.44649;413.924;116.222;0;30;1;0.0274589;-1.21974;-3.85599;0.0924759;-1.22631;-3.75521;-1.24798;0.21774;-4.49688;-11.4494;-7.32782;-4.6451;404;134;6.83766;405.32;133.041;0;4;1;0.139502;-1.05639;-3.01547;0.187993;-1.03943;-2.9871;-0.706829;0.024224;0.045914;0.310341;-0.118537;1.13593;1;-0.003501;-0.0699195;-0.74215;0.0959769;-1.15639;-3.01306;-3.86156;1.55809;-3.86156;644.456;768;824;822;1024;224;1024;1024;1024;1;4;0;0.0166973;-0.010503;-0.0978873;-1.85538; 
3429;3432;2019/10/09 14:40:26;0;424;119.308;5.09212;417.777;114.605;0;31;1;-0.00866628;-1.29836;-4.12847;0.0621332;-1.24793;-3.86719;-1.39593;0.139529;-4.29476;-11.2051;-6.81395;-0.875148;405;135;7;406.986;133.671;0;5;1;0.129138;-1.03784;-2.9416;0.170336;-1.03896;-2.97345;-0.743197;0.00477735;0.0872813;0.178123;-0.323197;1.01113;1;0.0117471;-0.110085;-0.930696;0.0503862;-1.13784;-2.93649;-4.32245;-0.189676;-4.32245;644.456;784;824;822;1024;224;1024;1024;1024;1;4;0;0.0166963;0.0352412;-0.154119;-2.32674; 
3430;3433;2019/10/09 14:40:26;0;427.92;118.387;4.84602;421.781;113.245;0;32;1;-0.049471;-1.35638;-4.34336;-0.049471;-1.35638;-4.34336;0;0;0;0;0;0;406;136;6.75088;408.433;134.435;0;6;1;0.126512;-1.08231;-3.04608;0.157189;-1.05196;-2.99524;-0.764434;-0.0475181;0.0392338;0.0300796;-0.590351;0.725698;1;-0.0527419;-0.174076;-1.31175;0.00327086;-1.18231;-3.03161;4.24346;-3.16819;4.24346;644.456;695;1091;911;1024;224;1024;1024;1024;1;4;0;0.0166973;-0.158226;-0.243707;-3.27937; 
3431;3434;2019/10/09 14:40:26;0;432.432;116.486;4.62769;426.077;111.765;0;33;1;-0.100462;-1.40328;-4.55956;-0.0647683;-1.37045;-4.40822;0;0;0;0;0;0;408;136;6.80091;410.047;134.977;0;7;1;0.110907;-1.07435;-3.02367;0.143304;-1.05868;-3.00377;-0.94484;-0.156215;-0.0715372;-1.17705;-1.37724;0.203121;1;-0.0259694;-0.196107;-1.39223;-0.0387989;-1.17435;-3.01599;6.06852;-3.56914;6.06852;644.456;693;1139;915;1024;224;1024;1024;1024;1;4;0;0.0166963;-0.0779082;-0.274549;-3.48057; 
3432;3435;2019/10/09 14:40:26;0;435.688;114.812;4.57794;430.185;110.266;0;34;1;-0.137034;-1.4033;-4.61917;-0.086448;-1.38031;-4.4715;0;0;0;0;0;0;408;138;6.99534;411.139;136.006;0;8;1;0.107824;-1.05639;-2.93177;0.13266;-1.05799;-2.98217;-0.970755;-0.194607;-0.0164584;-2.03058;-1.84096;0.205246;1;0.018453;-0.223915;-1.5;-0.104901;-1.15639;-2.94788;7.1828;-4.07526;7.1828;644.456;706;1171;909;1024;224;1024;1024;1024;1;4;0;0.0166975;0.0553589;-0.313482;-3.75; 
3433;3436;2019/10/09 14:40:26;0;438.25;114.25;4.58771;433.933;109.103;0;35;1;-0.164614;-1.39521;-4.6127;-0.109898;-1.38478;-4.51386;0;0;0;0;0;0;408;139;6.75156;411.856;137.065;0;9;1;0.111717;-1.1007;-3.03356;0.126377;-1.0708;-2.99759;-0.911454;-0.271036;-0.10031;-2.1831;-2.40017;-0.425378;1;-0.0148954;-0.184075;-1.4768;-0.0950024;-1.2007;-3.03706;6.06737;-3.35016;6.06737;644.456;693;1156;919;1024;224;1024;1024;1024;1;4;0;0.0166963;-0.0446863;-0.257704;-3.69199; 
3434;3437;2019/10/09 14:40:26;0;441;113;4.60499;437.473;107.965;0;36;1;-0.193795;-1.37867;-4.60285;-0.135067;-1.38294;-4.54056;0;0;0;0;0;0;408;140;6.61733;412.301;138.145;0;10;1;0.113983;-1.12932;-3.09094;0.122659;-1.08836;-3.02559;-0.80774;-0.357973;-0.213897;-1.71279;-2.96616;-1.29262;1;-0.0653302;-0.15362;-1.4294;-0.0697369;-1.22932;-3.11116;4.28225;-2.79589;4.28225;644.456;680;1118;931;1024;224;1024;1024;1024;1;4;0;0.0166973;-0.19599;-0.215069;-3.5735; 
3435;3438;2019/10/09 14:40:26;0;443.667;112.333;4.55266;440.831;107.028;0;37;1;-0.225251;-1.38841;-4.65978;-0.162122;-1.38458;-4.57632;0;0;0;0;0;0;408;140;6.61733;413.923;138.33;1;0;1;0.113983;-1.12932;-3.09094;0.122659;-1.08836;-3.02559;-0.80774;-0.357973;-0.213897;-1.71279;-2.96616;-1.29262;1;-0.110836;-0.155262;-1.44162;-0.051286;-1.22932;-3.1347;3.32662;-2.82577;3.32662;644.456;685;1103;932;1024;224;1024;1024;1024;1;4;0;0.0166963;-0.332509;-0.217367;-3.60405; 
3436;3439;2019/10/09 14:40:26;0;446;111.429;4.5045;443.949;106.159;0;38;1;-0.253507;-1.39489;-4.71512;-0.189538;-1.38768;-4.61796;-1.39814;-0.312371;-2.74111;52.763;61.7201;257.303;408;144;6.75298;413.259;140.703;0;1;1;0.111694;-1.1313;-3.01256;0.11937;-1.10124;-3.02168;-0.659074;-0.427954;-0.293421;-0.739767;-3.26069;-2.07849;1;-0.131928;-0.156374;-1.5;-0.0576095;-1.2313;-3.0574;-7.94394;-6.90683;-7.94394;644.456;305;1223;1222;1024;224;1024;1024;1024;1;4;0;0.0166973;-0.395785;-0.218924;-3.75; 
3437;3440;2019/10/09 14:40:26;0;447.667;110.333;4.48337;446.676;105.279;0;39;1;-0.273252;-1.3913;-4.74407;-0.214652;-1.38876;-4.6558;-1.43734;-0.260537;-2.63319;29.5771;39.356;159.379;408;145;7.11801;412.929;142.497;0;2;1;0.105966;-1.07914;-2.85421;0.115348;-1.09461;-2.97144;-0.538641;-0.402739;-0.0946097;0.328905;-3.17214;-1.70517;1;-0.170093;-0.209625;-1.5;-0.0445591;-1.17914;-2.92123;-9.86281;-7.20217;-9.86281;644.456;305;1222;1222;1024;224;1024;1024;1024;1;4;0;0.0166963;-0.510279;-0.293476;-3.75; 
3438;3441;2019/10/09 14:40:26;0;449;110;4.49294;449.013;104.627;0;40;1;-0.287479;-1.38524;-4.736;-0.2365;-1.38771;-4.67986;-1.46153;-0.185873;-2.41183;17.0948;25.228;101.13;408;147;6.85639;412.717;144.354;0;3;1;0.110009;-1.13246;-2.9551;0.113747;-1.10597;-2.96654;-0.424343;-0.40349;0.0706487;1.9787;-2.74957;-0.536481;1;-0.233675;-0.155245;-1.5;-0.00282523;-1.23246;-2.97492;-12.1675;-5.24182;-12.1675;644.456;434;1069;1222;1024;224;1024;1024;1024;1;4;0;0.0166973;-0.701025;-0.217343;-3.75; 
3439;3442;2019/10/09 14:40:26;0;450;109;4.48221;450.957;103.929;0;41;1;-0.299299;-1.37927;-4.75347;-0.25534;-1.38518;-4.70194;-1.45764;-0.11312;-2.19806;10.0447;15.754;62.0313;409;149;7.0644;412.871;146.286;0;4;1;0.0997065;-1.11091;-2.8603;0.109535;-1.10745;-2.93467;-0.333752;-0.411361;0.204962;3.36734;-2.39157;0.435913;1;-0.262382;-0.174269;-1.5;0.00704186;-1.21091;-2.84488;-13.3772;-4.64226;-13.3772;644.456;512;914;1110;1024;224;1024;1024;1024;1;4;0;0.0166963;-0.787145;-0.243977;-3.75; 
3440;3443;2019/10/09 14:40:26;0;452;109;4.47155;452.932;103.512;0;42;1;-0.322332;-1.38256;-4.7648;-0.275437;-1.38439;-4.7208;-1.43505;-0.0736477;-2.0385;6.31566;8.72;35.4636;408;150;6.9964;412.615;147.963;0;5;1;0.107808;-1.12766;-2.88418;0.109017;-1.11351;-2.91952;-0.259667;-0.392978;0.390149;4.2511;-1.85228;1.94011;1;-0.310823;-0.156733;-1.5;0.0353855;-1.22766;-2.8397;-14.755;-3.80996;-14.755;644.456;604;821;996;1024;224;1024;1024;1024;1;4;0;0.0166975;-0.932469;-0.219426;-3.75; 
3441;3444;2019/10/09 14:40:26;0;453.667;108.333;4.50811;454.82;103.088;0;43;1;-0.338166;-1.36519;-4.73023;-0.294256;-1.37863;-4.72363;-1.38877;-0.020402;-1.81143;4.71463;5.54319;22.5994;408;152;7.16171;412.382;149.786;0;6;1;0.105319;-1.11326;-2.80992;0.107907;-1.11343;-2.88664;-0.206301;-0.321627;0.709767;4.6096;-0.986945;4.32611;1;-0.340853;-0.165373;-1.5;0.0465974;-1.21326;-2.72169;-15.4352;-3.27502;-15.4352;644.456;639;821;932;1024;224;1024;1024;1024;1;4;0;0.0166653;-1.02256;-0.231522;-3.75; 
3442;3445;2019/10/09 14:40:26;0;455;108;4.50757;456.546;102.755;0;44;1;-0.352967;-1.36227;-4.73283;-0.311869;-1.37372;-4.72639;-1.32186;0.0434987;-1.5199;3.13344;4.74727;18.4372;408;154;7.21823;412.166;151.719;0;7;1;0.104495;-1.11608;-2.7803;0.106884;-1.11423;-2.85474;-0.173651;-0.244838;1.09265;4.70459;0.139219;8.13177;1;-0.365943;-0.157644;-1.5;0.0540737;-1.21608;-2.60683;-15.7223;-2.30364;-15.7223;644.456;637;821;897;1024;224;1024;1024;1024;1;4;0;0.016697;-1.09783;-0.220702;-3.75; 
3443;3446;2019/10/09 14:40:26;0;456;107;4.49037;458.043;102.277;0;45;1;-0.365432;-1.35822;-4.75708;-0.327938;-1.36907;-4.7356;-1.24558;0.104755;-1.23067;2.64593;4.30735;16.664;408;155;7.13414;411.961;153.41;0;8;1;0.105726;-1.13507;-2.80922;0.106536;-1.12048;-2.84108;-0.139387;-0.250224;1.17625;4.41742;0.692694;9.95501;1;-0.387473;-0.134001;-1.5;0.0595351;-1.23507;-2.51858;-15.8803;-1.07699;-15.8803;644.456;626;821;889;1024;224;1024;1024;1024;1;4;0;0.0166963;-1.16242;-0.187601;-3.75; 
3444;3447;2019/10/09 14:40:26;0;458;106.571;4.46428;459.693;101.873;0;46;1;-0.389922;-1.36215;-4.78751;-0.346533;-1.36699;-4.75117;-1.18682;0.145581;-1.02323;2.68473;3.90825;15.5445;408;157;7.30947;411.764;155.245;0;9;1;0.10319;-1.11924;-2.73431;0.105533;-1.12011;-2.80905;-0.11644;-0.206613;1.33477;3.88025;1.20197;11.022;1;-0.409761;-0.147758;-1.5;0.0632279;-1.21924;-2.39708;-16.0977;-0.796639;-16.0977;644.456;628;821;883;1024;224;1024;1024;1024;1;4;0;0.016697;-1.22928;-0.206861;-3.75; 
3445;3448;2019/10/09 14:40:26;0;460;106;4.43826;461.453;101.475;0;47;1;-0.414694;-1.36478;-4.81912;-0.366981;-1.36633;-4.77155;-1.15799;0.16262;-0.891981;2.80762;3.44626;14.5433;408;157;7.30947;412.776;155.983;1;0;1;0.10319;-1.11924;-2.73431;0.105533;-1.12011;-2.80905;-0.11644;-0.206613;1.33477;3.88025;1.20197;11.022;1;-0.434841;-0.147092;-1.5;0.06786;-1.21924;-2.32932;-16.4225;-0.56302;-16.4225;644.456;630;821;884;1024;224;1024;1024;1024;1;4;0;0.0166963;-1.30452;-0.205929;-3.75; 
3446;3449;2019/10/09 14:40:26;0;461.667;105.667;4.44473;463.188;101.154;0;48;1;-0.432802;-1.35967;-4.81418;-0.386728;-1.36433;-4.78434;-1.13929;0.177684;-0.788987;2.86582;3.07159;13.7166;408;159;7.19687;411.945;157.886;0;1;1;0.104805;-1.14832;-2.76946;0.105314;-1.12857;-2.79717;-0.084312;-0.196278;1.27155;3.18207;1.45749;10.2645;1;-0.456719;-0.11601;-1.5;0.0699914;-1.24832;-2.37039;-16.976;0.198499;-16.976;644.456;626;821;889;1024;224;1024;1024;1024;1;4;0;0.0166973;-1.37016;-0.162415;-3.75; 
3447;3450;2019/10/09 14:40:26;0;462.333;105.667;4.40823;464.586;100.993;0;49;1;-0.443932;-1.37093;-4.85403;-0.403889;-1.36631;-4.80525;-1.12132;0.155797;-0.799291;2.78738;2.54648;12.2712;408;160;7.26783;411.487;159.42;0;2;1;0.103781;-1.14284;-2.73863;0.104854;-1.13285;-2.77961;-0.064836;-0.183977;1.2419;2.57623;1.58998;9.07459;1;-0.482037;-0.123471;-1.5;0.0781477;-1.24284;-2.35204;-17.5182;-0.221824;-17.5182;644.456;638;821;890;1024;224;1024;1024;1024;1;4;0;0.016696;-1.44611;-0.17286;-3.75; 
3448;3451;2019/10/09 14:40:26;0;464;106;4.34495;466.058;101.051;0;50;1;-0.469539;-1.39409;-4.92262;-0.423584;-1.37464;-4.84046;-1.11885;0.0897958;-0.935043;2.48302;1.71274;9.69795;408;162;7.37957;411.188;161.108;0;3;1;0.10221;-1.13682;-2.68971;0.104061;-1.13404;-2.75264;-0.0520655;-0.180914;1.20375;2.0736;1.43557;7.13539;1;-0.505212;-0.137824;-1.5;0.0816279;-1.23682;-2.29547;-18.0769;-1.34105;-18.0769;644.456;663;821;887;1024;224;1024;1024;1024;1;4;0;0.0166973;-1.51564;-0.192954;-3.75; 
3449;3452;2019/10/09 14:40:26;0;465;106;4.30678;467.371;101.16;0;51;1;-0.485286;-1.40644;-4.96624;-0.442094;-1.38418;-4.87819;-1.12711;-0.00646782;-1.1304;1.96284;0.583552;6.21912;408;162;7.20022;410.966;162.258;0;4;1;0.104756;-1.16514;-2.75671;0.10427;-1.14337;-2.75386;-0.0401857;-0.208291;1.0675;1.70094;0.986425;4.19517;1;-0.530673;-0.119046;-1.5;0.0885788;-1.26514;-2.38269;-18.7526;-2.25072;-18.7526;644.456;690;821;887;1024;224;1024;1024;1024;1;4;0;0.016696;-1.59202;-0.166664;-3.75; 
3450;3453;2019/10/09 14:40:26;0;466.4;106.8;4.25495;468.698;101.557;0;52;1;-0.507616;-1.4314;-5.02157;-0.461751;-1.39835;-4.92121;-1.13631;-0.129076;-1.35716;1.3794;-0.746518;2.39813;409;164;7.32104;411.108;163.692;0;5;1;0.0962113;-1.15729;-2.70371;0.101852;-1.14755;-2.73882;-0.0401432;-0.217605;0.990512;1.36022;0.703492;1.88143;1;-0.545361;-0.141064;-1.5;0.08361;-1.25729;-2.36896;-19.1257;-4.24535;-19.1257;644.456;733;821;881;1024;224;1024;1024;1024;1;4;0;0.0166973;-1.63608;-0.19749;-3.75; 
3451;3454;2019/10/09 14:40:26;0;468;108;4.26813;470.098;102.288;0;53;1;-0.524755;-1.43869;-4.99834;-0.480652;-1.41045;-4.94435;-1.13565;-0.253623;-1.50423;0.916854;-2.10989;-1.0057;409;164;7.37289;411.18;164.686;0;6;1;0.0955346;-1.14915;-2.68469;0.0999569;-1.14803;-2.72258;-0.0431686;-0.226113;0.890266;1.0669;0.355355;-0.39244;1;-0.563853;-0.161307;-1.5;0.0832007;-1.24915;-2.38036;-19.4883;-6.23288;-19.4883;644.456;776;821;877;1024;224;1024;1024;1024;1;4;0;0.0166963;-1.69156;-0.22583;-3.75; 
3452;3455;2019/10/09 14:40:27;0;468.4;108.8;4.184;471.17;103.13;0;54;1;-0.540076;-1.47558;-5.09358;-0.498479;-1.42999;-4.98912;-1.12759;-0.414343;-1.72017;0.596833;-3.62979;-4.32144;409;165;7.2756;411.203;165.686;0;7;1;0.0968122;-1.17024;-2.71682;0.0990135;-1.15469;-2.72085;-0.0510595;-0.239954;0.838915;0.772916;0.0388208;-1.96294;1;-0.582047;-0.159755;-1.5;0.0835682;-1.27024;-2.44368;-19.7587;-8.294;-19.7587;644.456;823;821;871;1024;224;1024;1024;1024;1;4;0;0.016697;-1.74614;-0.223657;-3.75; 
3453;3456;2019/10/09 14:40:27;0;468.4;108.8;4.184;472.759;101.987;1;0;1;-0.540076;-1.47558;-5.09358;-0.498479;-1.42999;-4.98912;-1.12759;-0.414343;-1.72017;0.596833;-3.62979;-4.32144;409;166;7.31849;411.189;166.69;0;8;1;0.0962448;-1.16907;-2.69713;0.0981829;-1.159;-2.71374;-0.0572744;-0.248391;0.766385;0.493942;-0.233907;-3.07643;1;-0.579106;-0.160924;-1.5;0.0806273;-1.26907;-2.44054;-19.6535;-8.31528;-19.6535;644.456;823;821;876;1024;224;1024;1024;1024;1;4;0;0.016697;-1.73732;-0.225294;-3.75; 
3454;3457;2019/10/09 14:40:27;0;468.4;108.8;4.184;474.348;100.845;2;0;1;-0.540076;-1.47558;-5.09358;-0.498479;-1.42999;-4.98912;-1.12759;-0.414343;-1.72017;0.596833;-3.62979;-4.32144;409;166;7.31849;411.848;167.599;1;0;1;0.0962448;-1.16907;-2.69713;0.0981829;-1.159;-2.71374;-0.0572744;-0.248391;0.766385;0.493942;-0.233907;-3.07643;1;-0.577462;-0.160924;-1.5;0.0789827;-1.26907;-2.46615;-19.6189;-8.31528;-19.6189;644.456;823;821;876;1024;224;1024;1024;1024;1;4;0;0.016697;-1.73239;-0.225294;-3.75; 
3455;3458;2019/10/09 14:40:27;0;468.4;108.8;4.184;475.937;99.7026;3;0;1;-0.540076;-1.47558;-5.09358;-0.498479;-1.42999;-4.98912;-1.12759;-0.414343;-1.72017;0.596833;-3.62979;-4.32144;409;169;7.16649;411.408;169.048;0;1;1;0.0982861;-1.2113;-2.74283;0.0982138;-1.17469;-2.72246;-0.0543768;-0.288155;0.563114;0.288455;-0.507372;-4.03842;1;-0.579829;-0.118696;-1.5;0.0813501;-1.3113;-2.51621;-19.6889;-7.54673;-19.6889;644.456;813;821;884;1024;224;1024;1024;1024;1;4;0;0.016697;-1.73949;-0.166174;-3.75; 
3456;3459;2019/10/09 14:40:27;0;470;116;4.22929;474.565;106.688;0;1;1;-0.553171;-1.53068;-4.99223;-0.514887;-1.4602;-4.99005;-0.972017;-0.49852;-1.52402;0.755526;-3.91957;-4.522;409;171;6.94017;411.171;170.668;0;2;1;0.101491;-1.2628;-2.82435;0.0991971;-1.20112;-2.75303;-0.0499865;-0.370547;0.340713;0.13953;-0.859736;-4.91046;1;-0.601898;-0.0973989;-1.5;0.0870114;-1.3628;-2.6744;-19.0941;-8.25343;-19.0941;644.456;826;821;896;1024;224;1024;1024;1024;1;4;0;0.0667869;-1.80569;-0.136358;-3.75; 
3457;3460;2019/10/09 14:40:27;0;470.571;118;4.31721;474.428;110.426;0;2;1;-0.548511;-1.5188;-4.87783;-0.524974;-1.47778;-4.95639;-0.853098;-0.573641;-1.22299;1.16071;-4.11773;-3.47969;409;173;7.02311;411.017;172.413;0;3;1;0.100293;-1.25974;-2.78317;0.0995257;-1.21871;-2.76207;-0.0379538;-0.465885;0.124834;0.0912114;-1.36558;-5.90904;1;-0.612883;-0.118034;-1.5;0.0879093;-1.35974;-2.69876;-18.5766;-9.60554;-18.5766;644.456;847;821;913;1024;224;1024;1024;1024;1;4;0;0.016696;-1.83865;-0.165247;-3.75; 
3458;3461;2019/10/09 14:40:27;0;470.571;118;4.31721;475.827;109.81;1;0;1;-0.548511;-1.5188;-4.87783;-0.524974;-1.47778;-4.95639;-0.853098;-0.573641;-1.22299;1.16071;-4.11773;-3.47969;409;175;7.20807;410.9;174.255;0;4;1;0.0977192;-1.23897;-2.70413;0.0989838;-1.22479;-2.74469;-0.0261026;-0.542248;-0.000768512;0.113134;-1.9013;-6.59495;1;-0.613391;-0.138804;-1.5;0.0884171;-1.33897;-2.67353;-18.6702;-9.98356;-18.6702;644.456;851;821;919;1024;224;1024;1024;1024;1;4;0;0.016696;-1.84017;-0.194326;-3.75; 
3459;3462;2019/10/09 14:40:27;0;470.571;118;4.31721;477.227;109.193;2;0;1;-0.548511;-1.5188;-4.87783;-0.524974;-1.47778;-4.95639;-0.853098;-0.573641;-1.22299;1.16071;-4.11773;-3.47969;409;177;7.28448;410.801;176.174;0;5;1;0.0966941;-1.23741;-2.66821;0.0982969;-1.22857;-2.72175;-0.0181141;-0.578221;-0.00352513;0.180636;-2.2985;-6.84021;1;-0.615314;-0.140367;-1.5;0.0903406;-1.33741;-2.6684;-18.7665;-10.012;-18.7665;644.456;851;821;920;1024;224;1024;1024;1024;1;4;0;0.016696;-1.84594;-0.196514;-3.75; 
3460;3463;2019/10/09 14:40:27;0;470.571;118;4.31721;478.627;108.577;3;0;1;-0.548511;-1.5188;-4.87783;-0.524974;-1.47778;-4.95639;-0.853098;-0.573641;-1.22299;1.16071;-4.11773;-3.47969;408;180;7.36207;410.39;178.473;0;6;1;0.102453;-1.24134;-2.62889;0.0995437;-1.2324;-2.69389;-0.00621096;-0.598144;0.0658109;0.283144;-2.57611;-6.50181;1;-0.622954;-0.136439;-1.5;0.0979798;-1.34134;-2.62976;-19.0102;-9.94051;-19.0102;644.456;851;821;917;1024;224;1024;1024;1024;1;4;0;0.016696;-1.86886;-0.191014;-3.75; 
3461;3464;2019/10/09 14:40:27;0;470.571;118;4.31721;480.027;107.961;4;0;1;-0.548511;-1.5188;-4.87783;-0.524974;-1.47778;-4.95639;-0.853098;-0.573641;-1.22299;1.16071;-4.11773;-3.47969;407;181;7.26832;409.755;180.405;0;7;1;0.11064;-1.26308;-2.65901;0.102873;-1.24161;-2.68343;0.0148753;-0.626072;0.195362;0.446403;-2.89494;-5.36948;1;-0.634083;-0.114698;-1.5;0.109109;-1.36308;-2.64279;-19.3916;-9.54484;-19.3916;644.456;846;821;910;1024;224;1024;1024;1024;1;4;0;0.016696;-1.90225;-0.160578;-3.75; 
3462;3465;2019/10/09 14:40:27;0;477.75;138.25;4.05611;481.426;107.344;5;0;1;-0.548511;-1.5188;-4.87783;-0.524974;-1.47778;-4.95639;-0.853098;-0.573641;-1.22299;1.16071;-4.11773;-3.47969;406.667;183.333;7.4147;409.17;182.499;0;8;1;0.110699;-1.25125;-2.59787;0.10522;-1.2445;-2.65776;0.032976;-0.548837;0.497632;0.599102;-2.44885;-2.59513;1;-0.639529;-0.12653;-1.5;0.114555;-1.35125;-2.54722;-19.6326;-9.76017;-19.6326;644.456;848;821;893;1024;224;1024;1024;1024;1;4;0;0.016696;-1.91859;-0.177142;-3.75; 
3463;3466;2019/10/09 14:40:27;0;479;139;3.80899;482.826;106.728;6;0;1;-0.548511;-1.5188;-4.87783;-0.524974;-1.47778;-4.95639;-0.853098;-0.573641;-1.22299;1.16071;-4.11773;-3.47969;406;186;7.41576;408.518;184.816;0;9;1;0.115169;-1.26604;-2.58761;0.108205;-1.25096;-2.63671;0.054441;-0.458084;0.799123;0.728383;-1.43816;1.13528;1;-0.649276;-0.111734;-1.5;0.124302;-1.36604;-2.44978;-19.9876;-9.49088;-19.9876;644.456;845;821;873;1024;224;1024;1024;1024;1;4;0;0.016696;-1.94783;-0.156427;-3.75; 
3464;3467;2019/10/09 14:40:27;0;480;137;3.682;484.226;106.111;7;0;1;-0.548511;-1.5188;-4.87783;-0.524974;-1.47778;-4.95639;-0.853098;-0.573641;-1.22299;1.16071;-4.11773;-3.47969;406;186;7.34702;408.03;186.442;0;10;1;0.116247;-1.27789;-2.61182;0.110617;-1.25904;-2.62925;0.0791168;-0.411614;0.940424;0.85716;-0.341288;4.43925;1;-0.657149;-0.0998881;-1.5;0.132175;-1.37789;-2.37801;-20.3256;-9.27529;-20.3256;644.456;842;821;858;1024;224;1024;1024;1024;1;4;0;0.016696;-1.97145;-0.139843;-3.75; 
3465;3468;2019/10/09 14:40:27;0;480;137;3.682;485.625;105.495;8;0;1;-0.548511;-1.5188;-4.87783;-0.524974;-1.47778;-4.95639;-0.853098;-0.573641;-1.22299;1.16071;-4.11773;-3.47969;406;188;7.36612;407.663;188.204;0;11;1;0.115945;-1.28588;-2.59758;0.112216;-1.26709;-2.61975;0.103047;-0.400765;0.971521;0.998077;0.50379;6.5568;1;-0.66493;-0.0918958;-1.5;0.139956;-1.38588;-2.31218;-20.6565;-9.12983;-20.6565;644.456;840;821;849;1024;224;1024;1024;1024;1;4;0;0.016696;-1.99479;-0.128654;-3.75; 
3466;3469;2019/10/09 14:40:27;0;480;137;3.682;487.025;104.879;9;0;1;-0.548511;-1.5188;-4.87783;-0.524974;-1.47778;-4.95639;-0.853098;-0.573641;-1.22299;1.16071;-4.11773;-3.47969;405;189;7.25172;407.065;189.744;0;12;1;0.124655;-1.31191;-2.63477;0.115948;-1.28054;-2.62425;0.127327;-0.432652;0.860954;1.13205;0.963064;7.109;1;-0.68068;-0.0658672;-1.5;0.155706;-1.41191;-2.34202;-21.1573;-8.65611;-21.1573;644.456;834;821;850;1024;224;1024;1024;1024;1;4;0;0.016696;-2.04204;-0.0922141;-3.75; 
3467;3470;2019/10/09 14:40:27;0;486.4;134.8;4.17938;-1;-1;10;0;0;0;0;0;0;0;0;0;0;0;0;0;0;404;191;7.26666;406.302;191.442;0;13;1;0.131266;-1.32067;-2.62179;0.120543;-1.29258;-2.62351;0.146953;-0.463117;0.755795;1.2066;1.2285;6.50315;0;-0.68068;-0.0658672;-1.5;0.177806;-1.42067;-2.30709;-21.1573;-8.65611;-21.1573;644.456;224;1024;1024;1024;224;1024;1024;1024;1;4;0;0;-2.04204;-0.0922141;-3.75; 
3468;3471;2019/10/09 14:40:27;0;486.4;134.8;4.17938;-1;-1;11;0;0;0;0;0;0;0;0;0;0;0;0;0;0;403;191;7.39492;405.421;192.616;0;14;1;0.135737;-1.29777;-2.57631;0.125101;-1.29414;-2.60935;0.167554;-0.476065;0.646749;1.26131;1.02767;4.49729;0;-0.68068;-0.0658672;-1.5;0.187186;-1.39777;-2.31171;-21.1573;-8.65611;-21.1573;644.456;224;1024;1024;1024;224;1024;1024;1024;1;4;0;0;-2.04204;-0.0922141;-3.75; 
3469;3472;2019/10/09 14:40:27;0;-1;-1;-1;-1;-1;11;0;0;0;0;0;0;0;0;0;0;0;0;0;0;402;193;7.39316;404.456;194.047;0;15;1;0.142519;-1.30934;-2.56949;0.130327;-1.2987;-2.59739;0.188861;-0.476241;0.545046;1.29351;0.544101;1.68387;0;-0.68068;-0.0658672;-1.5;0.199651;-1.40934;-2.34896;-21.1573;-8.65611;-21.1573;644.456;224;1024;1024;1024;224;1024;1024;1024;1;4;0;0;-2.04204;-0.0922141;-3.75; 
3470;3473;2019/10/09 14:40:27;0;-1;-1;-1;-1;-1;11;0;0;0;0;0;0;0;0;0;0;0;0;0;0;400.667;194.667;7.40124;403.326;195.559;0;16;1;0.151353;-1.31729;-2.56049;0.136634;-1.30428;-2.58632;0.2172;-0.466364;0.498407;1.32746;0.107848;-0.754598;0;-0.68068;-0.0658672;-1.5;0.214185;-1.41729;-2.37916;-21.1573;-8.65611;-21.1573;644.456;224;1024;1024;1024;224;1024;1024;1024;1;4;0;0;-2.04204;-0.0922141;-3.75; 
3471;3474;2019/10/09 14:40:27;0;-1;-1;-1;-1;-1;11;0;0;0;0;0;0;0;0;0;0;0;0;0;0;399;197;7.45272;401.972;197.341;0;17;1;0.161467;-1.32123;-2.5342;0.144084;-1.30936;-2.57069;0.257567;-0.448595;0.494933;1.41346;-0.126273;-2.35572;0;-0.68068;-0.0658672;-1.5;0.232611;-1.42123;-2.37095;-21.1573;-8.65611;-21.1573;644.456;224;1024;1024;1024;224;1024;1024;1024;1;4;0;0;-2.04204;-0.0922141;-3.75; 
3472;3475;2019/10/09 14:40:27;0;-1;-1;-1;-1;-1;11;0;0;0;0;0;0;0;0;0;0;0;0;0;0;397;198;7.48621;400.351;198.894;0;18;1;0.174075;-1.32088;-2.51919;0.153081;-1.31282;-2.55524;0.302811;-0.398047;0.572531;1.54876;0.0624111;-2.56507;0;-0.68068;-0.0658672;-1.5;0.25838;-1.42088;-2.35719;-21.1573;-8.65611;-21.1573;644.456;224;1024;1024;1024;224;1024;1024;1024;1;4;0;0;-2.04204;-0.0922141;-3.75; 
3473;3476;2019/10/09 14:40:27;0;-1;-1;-1;-1;-1;11;0;0;0;0;0;0;0;0;0;0;0;0;0;0;396;200;7.46623;398.86;200.599;0;19;1;0.181224;-1.33557;-2.51857;0.161524;-1.31964;-2.54424;0.34532;-0.346895;0.660061;1.72131;0.501507;-1.9213;0;-0.68068;-0.0658672;-1.5;0.282865;-1.43557;-2.32639;-21.1573;-8.65611;-21.1573;644.456;224;1024;1024;1024;224;1024;1024;1024;1;4;0;0;-2.04204;-0.0922141;-3.75; 
3474;3477;2019/10/09 14:40:27;0;-1;-1;-1;-1;-1;11;0;0;0;0;0;0;0;0;0;0;0;0;0;0;394.667;202.667;7.51893;397.358;202.626;0;20;1;0.188803;-1.34098;-2.49116;0.169708;-1.32604;-2.52831;0.385301;-0.335544;0.719618;1.90223;0.86199;-0.861824;0;-0.68068;-0.0658672;-1.5;0.306792;-1.44098;-2.26563;-21.1573;-8.65611;-21.1573;644.456;224;1024;1024;1024;224;1024;1024;1024;1;4;0;0;-2.04204;-0.0922141;-3.75; 
3475;3478;2019/10/09 14:40:27;0;-1;-1;-1;-1;-1;11;0;0;0;0;0;0;0;0;0;0;0;0;0;0;393;204;7.37501;395.745;204.46;0;21;1;0.203764;-1.37468;-2.53481;0.179925;-1.34063;-2.53026;0.429221;-0.368771;0.699821;2.10107;0.946309;0.100906;0;-0.68068;-0.0658672;-1.5;0.340425;-1.47468;-2.27957;-21.1573;-8.65611;-21.1573;644.456;224;1024;1024;1024;224;1024;1024;1024;1;4;0;0;-2.04204;-0.0922141;-3.75; 
3476;3479;2019/10/09 14:40:27;0;-1;-1;-1;-1;-1;11;0;0;0;0;0;0;0;0;0;0;0;0;0;0;391;206;7.59734;393.948;206.367;0;22;1;0.210937;-1.34541;-2.45339;0.189229;-1.34207;-2.5072;0.467535;-0.372159;0.735823;2.2602;0.943937;1.00852;0;-0.68068;-0.0658672;-1.5;0.35901;-1.44541;-2.21197;-21.1573;-8.65611;-21.1573;644.456;224;1024;1024;1024;224;1024;1024;1024;1;4;0;0;-2.04204;-0.0922141;-3.75; 
3477;3480;2019/10/09 14:40:27;0;-1;-1;-1;-1;-1;11;0;0;0;0;0;0;0;0;0;0;0;0;0;0;390;208;7.74168;392.339;208.324;0;23;1;0.21345;-1.33108;-2.40054;0.196495;-1.33877;-2.4752;0.489792;-0.340725;0.822747;2.28337;0.997076;1.91404;0;-0.68068;-0.0658672;-1.5;0.373911;-1.43108;-2.14801;-21.1573;-8.65611;-21.1573;644.456;224;1024;1024;1024;224;1024;1024;1024;1;4;0;0;-2.04204;-0.0922141;-3.75; 
3478;3481;2019/10/09 14:40:27;0;-1;-1;-1;-1;-1;11;0;0;0;0;0;0;0;0;0;0;0;0;0;0;388.667;209.333;7.82975;390.763;210.106;0;24;1;0.219547;-1.3232;-2.36886;0.20341;-1.3341;-2.4433;0.494833;-0.289416;0.940599;2.13675;1.032;2.61808;0;-0.68068;-0.0658672;-1.5;0.389629;-1.4232;-2.08316;-21.1573;-8.65611;-21.1573;644.456;224;1024;1024;1024;224;1024;1024;1024;1;4;0;0;-2.04204;-0.0922141;-3.75; 
3479;3482;2019/10/09 14:40:27;0;-1;-1;-1;-1;-1;11;0;0;0;0;0;0;0;0;0;0;0;0;0;0;388.667;209.333;7.82975;390.308;211.579;1;0;1;0.219547;-1.3232;-2.36886;0.20341;-1.3341;-2.4433;0.494833;-0.289416;0.940599;2.13675;1.032;2.61808;0;-0.68068;-0.0658672;-1.5;0.396302;-1.4232;-2.03288;-21.1573;-8.65611;-21.1573;644.456;224;1024;1024;1024;224;1024;1024;1024;1;4;0;0;-2.04204;-0.0922141;-3.75; 
3480;3483;2019/10/09 14:40:27;0;-1;-1;-1;-1;-1;11;0;0;0;0;0;0;0;0;0;0;0;0;0;0;387;211;7.80837;388.576;212.829;0;1;1;0.230799;-1.33571;-2.36948;0.211627;-1.33458;-2.42116;0.468374;-0.224785;0.985602;1.70319;1.03712;2.68499;0;-0.68068;-0.0658672;-1.5;0.408029;-1.43571;-2.03259;-21.1573;-8.65611;-21.1573;644.456;224;1024;1024;1024;224;1024;1024;1024;1;4;0;0;-2.04204;-0.0922141;-3.75; 
3481;3484;2019/10/09 14:40:27;0;-1;-1;-1;-1;-1;11;0;0;0;0;0;0;0;0;0;0;0;0;0;0;386;212;7.66078;387.158;214.001;0;2;1;0.241759;-1.36688;-2.41154;0.220666;-1.34427;-2.41827;0.455429;-0.197264;0.967982;1.26193;1.09553;2.46102;0;-0.68068;-0.0658672;-1.5;0.413965;-1.46688;-2.04917;-21.1573;-8.65611;-21.1573;644.456;224;1024;1024;1024;224;1024;1024;1024;1;4;0;0;-2.04204;-0.0922141;-3.75; 
3482;3485;2019/10/09 14:40:27;0;-1;-1;-1;-1;-1;11;0;0;0;0;0;0;0;0;0;0;0;0;0;0;386.667;212.667;7.58939;386.443;215.004;0;3;1;0.23965;-1.3834;-2.43181;0.226361;-1.35601;-2.42233;0.432185;-0.170989;0.950175;0.7673;1.33422;2.33344;0;-0.68068;-0.0658672;-1.5;0.407605;-1.4834;-2.07483;-21.1573;-8.65611;-21.1573;644.456;224;1024;1024;1024;224;1024;1024;1024;1;4;0;0;-2.04204;-0.0922141;-3.75; 
3483;3486;2019/10/09 14:40:27;0;-1;-1;-1;-1;-1;11;0;0;0;0;0;0;0;0;0;0;0;0;0;0;385;214;7.67676;385.414;216.107;0;4;1;0.247756;-1.37489;-2.39936;0.23278;-1.36167;-2.41544;0.408364;-0.169699;0.884156;0.257866;1.49345;1.90773;0;-0.68068;-0.0658672;-1.5;0.404305;-1.47489;-2.05518;-21.1573;-8.65611;-21.1573;644.456;224;1024;1024;1024;224;1024;1024;1024;1;4;0;0;-2.04204;-0.0922141;-3.75; 
3484;3487;2019/10/09 14:40:27;0;-1;-1;-1;-1;-1;11;0;0;0;0;0;0;0;0;0;0;0;0;0;0;385;215;7.5876;384.703;217.167;0;5;1;0.250667;-1.39653;-2.42393;0.238146;-1.37213;-2.41799;0.387566;-0.215991;0.726316;-0.195143;1.32296;0.814607;0;-0.68068;-0.0658672;-1.5;0.397477;-1.49653;-2.10607;-21.1573;-8.65611;-21.1573;644.456;224;1024;1024;1024;224;1024;1024;1024;1;4;0;0;-2.04204;-0.0922141;-3.75; 
3485;3488;2019/10/09 14:40:27;0;-1;-1;-1;-1;-1;11;0;0;0;0;0;0;0;0;0;0;0;0;0;0;384;218;7.944;383.894;218.836;0;6;1;0.245703;-1.3496;-2.3048;0.240413;-1.36537;-2.38403;0.35918;-0.236624;0.638642;-0.581357;0.974456;-0.544678;0;-0.68068;-0.0658672;-1.5;0.373738;-1.4496;-2.06486;-21.1573;-8.65611;-21.1573;644.456;224;1024;1024;1024;224;1024;1024;1024;1;4;0;0;-2.04204;-0.0922141;-3.75; 
3486;3489;2019/10/09 14:40:27;0;-1;-1;-1;-1;-1;11;0;0;0;0;0;0;0;0;0;0;0;0;0;0;383;219;7.68644;383.015;220.303;0;7;1;0.260428;-1.40024;-2.37845;0.246417;-1.37583;-2.38236;0.354422;-0.306681;0.538098;-0.80381;0.25767;-2.11364;0;-0.68068;-0.0658672;-1.5;0.380107;-1.50024;-2.16566;-21.1573;-8.65611;-21.1573;644.456;224;1024;1024;1024;224;1024;1024;1024;1;4;0;0;-2.04204;-0.0922141;-3.75; 
3487;3490;2019/10/09 14:40:27;0;-1;-1;-1;-1;-1;11;0;0;0;0;0;0;0;0;0;0;0;0;0;0;383;220;7.71987;382.405;221.622;0;8;1;0.2593;-1.39957;-2.36459;0.250282;-1.38296;-2.37703;0.330905;-0.338461;0.48754;-0.979498;-0.409181;-3.18654;0;-0.68068;-0.0658672;-1.5;0.374232;-1.49957;-2.1901;-21.1573;-8.65611;-21.1573;644.456;224;1024;1024;1024;224;1024;1024;1024;1;4;0;0;-2.04204;-0.0922141;-3.75; 
3488;3491;2019/10/09 14:40:27;0;-1;-1;-1;-1;-1;11;0;0;0;0;0;0;0;0;0;0;0;0;0;0;382;221;7.74507;381.671;222.835;0;9;1;0.264899;-1.4004;-2.35335;0.254667;-1.38819;-2.36992;0.311564;-0.331558;0.501785;-1.06932;-0.886643;-3.70229;0;-0.68068;-0.0658672;-1.5;0.370377;-1.5004;-2.19794;-21.1573;-8.65611;-21.1573;644.456;224;1024;1024;1024;224;1024;1024;1024;1;4;0;0;-2.04204;-0.0922141;-3.75; 
3489;3492;2019/10/09 14:40:27;0;-1;-1;-1;-1;-1;11;0;0;0;0;0;0;0;0;0;0;0;0;0;0;381;223;7.61587;380.846;224.291;0;10;1;0.275945;-1.43509;-2.38605;0.26105;-1.40226;-2.37476;0.29982;-0.360988;0.463494;-1.075;-1.29578;-3.90103;0;-0.68068;-0.0658672;-1.5;0.376944;-1.53509;-2.22339;-21.1573;-8.65611;-21.1573;644.456;224;1024;1024;1024;224;1024;1024;1024;1;4;0;0;-2.04204;-0.0922141;-3.75; 
3490;3493;2019/10/09 14:40:27;0;-1;-1;-1;-1;-1;11;0;0;0;0;0;0;0;0;0;0;0;0;0;0;380;224;7.79446;379.956;225.604;0;11;1;0.276024;-1.40755;-2.32786;0.265543;-1.40385;-2.36069;0.289284;-0.343232;0.506875;-1.03743;-1.28552;-3.21682;0;-0.68068;-0.0658672;-1.5;0.370118;-1.50755;-2.1824;-21.1573;-8.65611;-21.1573;644.456;224;1024;1024;1024;224;1024;1024;1024;1;4;0;0;-2.04204;-0.0922141;-3.75; 
3491;3494;2019/10/09 14:40:27;0;-1;-1;-1;-1;-1;11;0;0;0;0;0;0;0;0;0;0;0;0;0;0;379;225;7.68318;379.019;226.813;0;12;1;0.286517;-1.43336;-2.35799;0.271835;-1.4127;-2.35988;0.299035;-0.394913;0.400554;-0.862608;-1.40335;-2.88076;0;-0.68068;-0.0658672;-1.5;0.379349;-1.53336;-2.19533;-21.1573;-8.65611;-21.1573;644.456;224;1024;1024;1024;224;1024;1024;1024;1;4;0;0;-2.04204;-0.0922141;-3.75; 
3492;3495;2019/10/09 14:40:27;0;-1;-1;-1;-1;-1;11;0;0;0;0;0;0;0;0;0;0;0;0;0;0;377.333;226.667;7.87052;377.836;228.159;0;13;1;0.290264;-1.40806;-2.29604;0.277363;-1.41131;-2.34073;0.302985;-0.378589;0.40655;-0.722947;-1.12913;-2.25371;0;-0.68068;-0.0658672;-1.5;0.382035;-1.50806;-2.17312;-21.1573;-8.65611;-21.1573;644.456;224;1024;1024;1024;224;1024;1024;1024;1;4;0;0;-2.04204;-0.0922141;-3.75; 
3493;3496;2019/10/09 14:40:27;0;-1;-1;-1;-1;-1;11;0;0;0;0;0;0;0;0;0;0;0;0;0;0;376;228;7.82867;376.581;229.499;0;14;1;0.300314;-1.42268;-2.30363;0.284249;-1.41472;-2.3296;0.317416;-0.353977;0.4333;-0.487627;-0.73943;-1.5688;0;-0.68068;-0.0658672;-1.5;0.393977;-1.52268;-2.17796;-21.1573;-8.65611;-21.1573;644.456;224;1024;1024;1024;224;1024;1024;1024;1;4;0;0;-2.04204;-0.0922141;-3.75; 
3494;3497;2019/10/09 14:40:27;0;-1;-1;-1;-1;-1;11;0;0;0;0;0;0;0;0;0;0;0;0;0;0;375;229;7.86142;375.382;230.729;0;15;1;0.30541;-1.42205;-2.29054;0.290597;-1.41692;-2.31788;0.333914;-0.327097;0.467774;-0.203337;-0.425848;-1.07709;0;-0.68068;-0.0658672;-1.5;0.403904;-1.52205;-2.15609;-21.1573;-8.65611;-21.1573;644.456;224;1024;1024;1024;224;1024;1024;1024;1;4;0;0;-2.04204;-0.0922141;-3.75; 
3495;3498;2019/10/09 14:40:27;0;-1;-1;-1;-1;-1;11;0;0;0;0;0;0;0;0;0;0;0;0;0;0;373;231;7.97563;373.906;232.197;0;16;1;0.31355;-1.41213;-2.25085;0.297483;-1.41548;-2.29777;0.345819;-0.24905;0.588078;0.0616685;0.191448;-0.148802;0;-0.68068;-0.0658672;-1.5;0.416737;-1.51213;-2.10629;-21.1573;-8.65611;-21.1573;644.456;224;1024;1024;1024;224;1024;1024;1024;1;4;0;0;-2.04204;-0.0922141;-3.75; 
3496;3499;2019/10/09 14:40:27;0;-1;-1;-1;-1;-1;11;0;0;0;0;0;0;0;0;0;0;0;0;0;0;372;232;7.77984;372.548;233.52;0;17;1;0.327855;-1.45302;-2.30396;0.306594;-1.42674;-2.29963;0.371407;-0.240846;0.596663;0.364911;0.523686;0.269234;0;-0.68068;-0.0658672;-1.5;0.440438;-1.55302;-2.11251;-21.1573;-8.65611;-21.1573;644.456;224;1024;1024;1024;224;1024;1024;1024;1;4;0;0;-2.04204;-0.0922141;-3.75; 
3497;3500;2019/10/09 14:40:27;0;-1;-1;-1;-1;-1;11;0;0;0;0;0;0;0;0;0;0;0;0;0;0;371;233;7.83372;371.278;234.737;0;18;1;0.331969;-1.44834;-2.2846;0.314207;-1.43322;-2.29512;0.392032;-0.226444;0.616581;0.590272;0.986888;1.02411;0;-0.68068;-0.0658672;-1.5;0.45274;-1.54834;-2.09058;-21.1573;-8.65611;-21.1573;644.456;224;1024;1024;1024;224;1024;1024;1024;1;4;0;0;-2.04204;-0.0922141;-3.75; 
3498;3501;2019/10/09 14:40:27;0;-1;-1;-1;-1;-1;11;0;0;0;0;0;0;0;0;0;0;0;0;0;0;369;234;8.1894;369.754;235.878;0;19;1;0.329738;-1.39052;-2.18202;0.318866;-1.42041;-2.26119;0.400936;-0.172215;0.68754;0.745268;1.41616;1.73643;0;-0.68068;-0.0658672;-1.5;0.452768;-1.49052;-1.98852;-21.1573;-8.65611;-21.1573;644.456;224;1024;1024;1024;224;1024;1024;1024;1;4;0;0;-2.04204;-0.0922141;-3.75; 
3499;3502;2019/10/09 14:40:27;0;-1;-1;-1;-1;-1;11;0;0;0;0;0;0;0;0;0;0;0;0;0;0;367;235;8.02133;368.046;236.963;0;20;1;0.349089;-1.42485;-2.22431;0.327933;-1.42174;-2.25013;0.414988;-0.131373;0.729855;0.836756;1.73853;2.22597;0;-0.68068;-0.0658672;-1.5;0.479754;-1.52485;-2.00024;-21.1573;-8.65611;-21.1573;644.456;224;1024;1024;1024;224;1024;1024;1024;1;4;0;0;-2.04204;-0.0922141;-3.75; 
3500;3503;2019/10/09 14:40:27;0;-1;-1;-1;-1;-1;11;0;0;0;0;0;0;0;0;0;0;0;0;0;0;366;235;8.04631;366.526;237.69;0;21;1;0.354207;-1.42042;-2.21741;0.335815;-1.42135;-2.24031;0.429544;-0.0965091;0.74765;0.883894;1.96383;2.4531;0;-0.68068;-0.0658672;-1.5;0.490639;-1.52042;-1.97746;-21.1573;-8.65611;-21.1573;644.456;224;1024;1024;1024;224;1024;1024;1024;1;4;0;0;-2.04204;-0.0922141;-3.75; 
3501;3504;2019/10/09 14:40:27;0;-1;-1;-1;-1;-1;11;0;0;0;0;0;0;0;0;0;0;0;0;0;0;364;236;8.24366;364.812;238.493;0;22;1;0.357833;-1.39147;-2.16099;0.342421;-1.41238;-2.21652;0.436777;-0.0455703;0.772353;0.892749;1.98905;2.20609;0;-0.68068;-0.0658672;-1.5;0.496677;-1.49147;-1.91932;-21.1573;-8.65611;-21.1573;644.456;224;1024;1024;1024;224;1024;1024;1024;1;4;0;0;-2.04204;-0.0922141;-3.75; 
3502;3505;2019/10/09 14:40:27;0;-1;-1;-1;-1;-1;11;0;0;0;0;0;0;0;0;0;0;0;0;0;0;363;236;8.03799;363.302;238.999;0;23;1;0.373197;-1.42707;-2.21628;0.351654;-1.41679;-2.21644;0.4416;0.0123032;0.794847;0.815323;2.20207;2.1133;0;-0.68068;-0.0658672;-1.5;0.518888;-1.52707;-1.95866;-21.1573;-8.65611;-21.1573;644.456;224;1024;1024;1024;224;1024;1024;1024;1;4;0;0;-2.04204;-0.0922141;-3.75; 
3503;3506;2019/10/09 14:40:27;0;-1;-1;-1;-1;-1;11;0;0;0;0;0;0;0;0;0;0;0;0;0;0;362;236;8.28803;361.93;239.309;0;24;1;0.367959;-1.38402;-2.14942;0.356545;-1.40696;-2.19634;0.433651;0.112012;0.870494;0.655019;2.66978;2.27967;0;-0.68068;-0.0658672;-1.5;0.51183;-1.48402;-1.89046;-21.1573;-8.65611;-21.1573;644.456;224;1024;1024;1024;224;1024;1024;1024;1;4;0;0;-2.04204;-0.0922141;-3.75; 
3504;3507;2019/10/09 14:40:27;0;-1;-1;-1;-1;-1;11;0;0;0;0;0;0;0;0;0;0;0;0;0;0;361;237;8.17641;360.658;239.798;0;25;1;0.379085;-1.40801;-2.1754;0.363307;-1.40728;-2.19006;0.437258;0.119544;0.805719;0.537731;2.76433;1.83866;0;-0.68068;-0.0658672;-1.5;0.524712;-1.50801;-1.88307;-21.1573;-8.65611;-21.1573;644.456;224;1024;1024;1024;224;1024;1024;1024;1;4;0;0;-2.04204;-0.0922141;-3.75; 
3505;3508;2019/10/09 14:40:27;0;-1;-1;-1;-1;-1;11;0;0;0;0;0;0;0;0;0;0;0;0;0;0;361;237;8.17641;359.67;240.992;1;0;1;0.379085;-1.40801;-2.1754;0.363307;-1.40728;-2.19006;0.437258;0.119544;0.805719;0.537731;2.76433;1.83866;0;-0.68068;-0.0658672;-1.5;0.523755;-1.50801;-1.90882;-21.1573;-8.65611;-21.1573;644.456;224;1024;1024;1024;224;1024;1024;1024;1;4;0;0;-2.04204;-0.0922141;-3.75; 
3506;3509;2019/10/09 14:40:27;0;-1;-1;-1;-1;-1;11;0;0;0;0;0;0;0;0;0;0;0;0;0;0;358;238;8.14648;358.038;241.03;0;1;1;0.398854;-1.41829;-2.18002;0.373971;-1.41058;-2.18705;0.419627;0.109854;0.698929;0.338485;2.48266;0.997551;0;-0.68068;-0.0658672;-1.5;0.544182;-1.51829;-1.91223;-21.1573;-8.65611;-21.1573;644.456;224;1024;1024;1024;224;1024;1024;1024;1;4;0;0;-2.04204;-0.0922141;-3.75; 
3507;3510;2019/10/09 14:40:27;0;-1;-1;-1;-1;-1;11;0;0;0;0;0;0;0;0;0;0;0;0;0;0;356;238;8.32648;356.304;241.106;0;2;1;0.402217;-1.38763;-2.13289;0.382445;-1.4037;-2.1708;0.41107;0.126208;0.656823;0.139983;2.25043;0.288253;0;-0.68068;-0.0658672;-1.5;0.535238;-1.48763;-1.91133;-21.1573;-8.65611;-21.1573;644.456;224;1024;1024;1024;224;1024;1024;1024;1;4;0;0;-2.04204;-0.0922141;-3.75; 
3508;3511;2019/10/09 14:40:27;0;-1;-1;-1;-1;-1;11;0;0;0;0;0;0;0;0;0;0;0;0;0;0;354;239;8.17115;354.483;241.496;0;3;1;0.422077;-1.41911;-2.17007;0.394334;-1.40832;-2.17058;0.424308;0.0896341;0.551297;0.0413164;1.81297;-0.583572;0;-0.68068;-0.0658672;-1.5;0.553486;-1.51911;-1.9601;-21.1573;-8.65611;-21.1573;644.456;224;1024;1024;1024;224;1024;1024;1024;1;4;0;0;-2.04204;-0.0922141;-3.75; 
3509;3512;2019/10/09 14:40:27;0;-1;-1;-1;-1;-1;11;0;0;0;0;0;0;0;0;0;0;0;0;0;0;353;240;8.35197;352.917;242.073;0;4;1;0.418914;-1.39337;-2.1198;0.401708;-1.40384;-2.15535;0.425889;0.09812;0.53988;-0.0289766;1.38148;-1.22273;0;-0.68068;-0.0658672;-1.5;0.549031;-1.49337;-1.95074;-21.1573;-8.65611;-21.1573;644.456;224;1024;1024;1024;224;1024;1024;1024;1;4;0;0;-2.04204;-0.0922141;-3.75; 
3510;3513;2019/10/09 14:40:27;0;-1;-1;-1;-1;-1;11;0;0;0;0;0;0;0;0;0;0;0;0;0;0;353;240;8.35197;351.817;243.119;1;0;1;0.418914;-1.39337;-2.1198;0.401708;-1.40384;-2.15535;0.425889;0.09812;0.53988;-0.0289766;1.38148;-1.22273;0;-0.68068;-0.0658672;-1.5;0.549243;-1.49337;-1.95459;-21.1573;-8.65611;-21.1573;644.456;224;1024;1024;1024;224;1024;1024;1024;1;4;0;0;-2.04204;-0.0922141;-3.75; 
3511;3514;2019/10/09 14:40:27;0;-1;-1;-1;-1;-1;11;0;0;0;0;0;0;0;0;0;0;0;0;0;0;349;242;8.311;349.618;243.729;0;1;1;0.444995;-1.41026;-2.12363;0.414694;-1.40576;-2.14583;0.429663;0.0624582;0.475171;-0.0293269;0.680496;-1.91745;0;-0.68068;-0.0658672;-1.5;0.576149;-1.51026;-1.95737;-21.1573;-8.65611;-21.1573;644.456;224;1024;1024;1024;224;1024;1024;1024;1;4;0;0;-2.04204;-0.0922141;-3.75; 
3512;3515;2019/10/09 14:40:28;0;-1;-1;-1;-1;-1;11;0;0;0;0;0;0;0;0;0;0;0;0;0;0;346;243;8.40573;347.189;244.498;0;2;1;0.457789;-1.39932;-2.09643;0.427623;-1.40383;-2.13101;0.450393;0.0477894;0.461917;0.0217395;0.193425;-2.18;0;-0.68068;-0.0658672;-1.5;0.587222;-1.49932;-1.95329;-21.1573;-8.65611;-21.1573;644.456;224;1024;1024;1024;224;1024;1024;1024;1;4;0;0;-2.04204;-0.0922141;-3.75; 
3513;3516;2019/10/09 14:40:28;0;-1;-1;-1;-1;-1;11;0;0;0;0;0;0;0;0;0;0;0;0;0;0;344;244;8.39446;344.913;245.347;0;3;1;0.470292;-1.40616;-2.09597;0.440424;-1.40453;-2.1205;0.497659;0.0493833;0.504898;0.280097;-0.0908965;-1.97204;0;-0.68068;-0.0658672;-1.5;0.60642;-1.50616;-1.95636;-21.1573;-8.65611;-21.1573;644.456;224;1024;1024;1024;224;1024;1024;1024;1;4;0;0;-2.04204;-0.0922141;-3.75; 
3514;3517;2019/10/09 14:40:28;0;-1;-1;-1;-1;-1;11;0;0;0;0;0;0;0;0;0;0;0;0;0;0;343;245;8.33733;343.037;246.242;0;4;1;0.4795;-1.42079;-2.10703;0.452146;-1.40941;-2.11646;0.537137;0.0100832;0.48891;0.599496;-0.451953;-1.75788;0;-0.68068;-0.0658672;-1.5;0.633511;-1.52079;-1.95078;-21.1573;-8.65611;-21.1573;644.456;224;1024;1024;1024;224;1024;1024;1024;1;4;0;0;-2.04204;-0.0922141;-3.75; 
3515;3518;2019/10/09 14:40:28;0;-1;-1;-1;-1;-1;11;0;0;0;0;0;0;0;0;0;0;0;0;0;0;340;246;8.47029;340.779;247.168;0;5;1;0.489646;-1.4034;-2.07071;0.463396;-1.40761;-2.10273;0.558636;0.00849045;0.525541;0.819418;-0.548874;-1.14287;0;-0.68068;-0.0658672;-1.5;0.654291;-1.5034;-1.92085;-21.1573;-8.65611;-21.1573;644.456;224;1024;1024;1024;224;1024;1024;1024;1;4;0;0;-2.04204;-0.0922141;-3.75; 
3516;3519;2019/10/09 14:40:28;0;-1;-1;-1;-1;-1;11;0;0;0;0;0;0;0;0;0;0;0;0;0;0;336.667;247.333;8.44437;338.14;248.222;0;6;1;0.510847;-1.41429;-2.07273;0.477632;-1.40961;-2.09373;0.595016;-0.0146716;0.52619;1.07046;-0.715334;-0.732576;0;-0.68068;-0.0658672;-1.5;0.68469;-1.51429;-1.90918;-21.1573;-8.65611;-21.1573;644.456;224;1024;1024;1024;224;1024;1024;1024;1;4;0;0;-2.04204;-0.0922141;-3.75; 
3517;3520;2019/10/09 14:40:28;0;-1;-1;-1;-1;-1;11;0;0;0;0;0;0;0;0;0;0;0;0;0;0;334;248;8.27925;335.439;249.154;0;7;1;0.537108;-1.44585;-2.11185;0.495474;-1.42048;-2.09917;0.679544;-0.0675716;0.502032;1.63998;-0.948375;-0.332297;0;-0.68068;-0.0658672;-1.5;0.72745;-1.54585;-1.94353;-21.1573;-8.65611;-21.1573;644.456;224;1024;1024;1024;224;1024;1024;1024;1;4;0;0;-2.04204;-0.0922141;-3.75; 
3518;3521;2019/10/09 14:40:28;0;-1;-1;-1;-1;-1;11;0;0;0;0;0;0;0;0;0;0;0;0;0;0;332;248;8.4247;332.907;249.785;0;8;1;0.53968;-1.42089;-2.07539;0.508736;-1.4206;-2.09203;0.731591;-0.10751;0.456841;2.10674;-1.18909;-0.219643;0;-0.68068;-0.0658672;-1.5;0.75648;-1.52089;-1.91522;-21.1573;-8.65611;-21.1573;644.456;224;1024;1024;1024;224;1024;1024;1024;1;4;0;0;-2.04204;-0.0922141;-3.75; 
3519;3522;2019/10/09 14:40:28;0;-1;-1;-1;-1;-1;11;0;0;0;0;0;0;0;0;0;0;0;0;0;0;329;249;8.46191;330.179;250.519;0;9;1;0.554999;-1.41956;-2.06302;0.522615;-1.42029;-2.08333;0.767123;-0.127432;0.42251;2.33994;-1.41943;-0.460741;0;-0.68068;-0.0658672;-1.5;0.788836;-1.51956;-1.917;-21.1573;-8.65611;-21.1573;644.456;224;1024;1024;1024;224;1024;1024;1024;1;4;0;0;-2.04204;-0.0922141;-3.75; 
3520;3523;2019/10/09 14:40:28;0;-1;-1;-1;-1;-1;11;0;0;0;0;0;0;0;0;0;0;0;0;0;0;327;249;8.41132;327.63;251.007;0;10;1;0.570201;-1.4281;-2.07542;0.536891;-1.42263;-2.08096;0.798636;-0.129257;0.395251;2.44806;-1.40801;-0.650398;0;-0.68068;-0.0658672;-1.5;0.817934;-1.5281;-1.93898;-21.1573;-8.65611;-21.1573;644.456;224;1024;1024;1024;224;1024;1024;1024;1;4;0;0;-2.04204;-0.0922141;-3.75; 
3521;3524;2019/10/09 14:40:28;0;-1;-1;-1;-1;-1;11;0;0;0;0;0;0;0;0;0;0;0;0;0;0;324;249;8.45892;324.892;251.319;0;11;1;0.58469;-1.42006;-2.06374;0.551231;-1.42186;-2.07579;0.82988;-0.134464;0.344715;2.55184;-1.41558;-1.11223;0;-0.68068;-0.0658672;-1.5;0.84262;-1.52006;-1.93609;-21.1573;-8.65611;-21.1573;644.456;224;1024;1024;1024;224;1024;1024;1024;1;4;0;0;-2.04204;-0.0922141;-3.75; 
3522;3525;2019/10/09 14:40:28;0;-1;-1;-1;-1;-1;11;0;0;0;0;0;0;0;0;0;0;0;0;0;0;322;250;8.50356;322.34;251.822;0;12;1;0.593357;-1.4175;-2.04968;0.563868;-1.42055;-2.06796;0.842249;-0.124366;0.309732;2.51824;-1.28733;-1.53159;0;-0.68068;-0.0658672;-1.5;0.860832;-1.5175;-1.93857;-21.1573;-8.65611;-21.1573;644.456;224;1024;1024;1024;224;1024;1024;1024;1;4;0;0;-2.04204;-0.0922141;-3.75; 
3523;3526;2019/10/09 14:40:28;0;-1;-1;-1;-1;-1;11;0;0;0;0;0;0;0;0;0;0;0;0;0;0;320;250;8.47283;319.923;252.146;0;13;1;0.607287;-1.42264;-2.05711;0.576894;-1.42118;-2.0647;0.830437;-0.0774066;0.323441;2.11342;-0.811668;-1.63202;0;-0.68068;-0.0658672;-1.5;0.879897;-1.52264;-1.95686;-21.1573;-8.65611;-21.1573;644.456;224;1024;1024;1024;224;1024;1024;1024;1;4;0;0;-2.04204;-0.0922141;-3.75; 
3524;3527;2019/10/09 14:40:28;0;-1;-1;-1;-1;-1;11;0;0;0;0;0;0;0;0;0;0;0;0;0;0;318;250;8.49938;317.607;252.342;0;14;1;0.617133;-1.4182;-2.05069;0.588966;-1.42029;-2.0605;0.818597;-0.0451784;0.319976;1.61544;-0.238127;-1.52568;0;-0.68068;-0.0658672;-1.5;0.884948;-1.5182;-1.94638;-21.1573;-8.65611;-21.1573;644.456;224;1024;1024;1024;224;1024;1024;1024;1;4;0;0;-2.04204;-0.0922141;-3.75; 
3525;3528;2019/10/09 14:40:28;0;-1;-1;-1;-1;-1;11;0;0;0;0;0;0;0;0;0;0;0;0;0;0;315;251;8.47696;315.046;252.764;0;15;1;0.636424;-1.42686;-2.05287;0.603203;-1.42226;-2.05821;0.812926;-0.0349701;0.292282;1.15214;0.2263;-1.43537;0;-0.68068;-0.0658672;-1.5;0.900676;-1.52686;-1.94957;-21.1573;-8.65611;-21.1573;644.456;224;1024;1024;1024;224;1024;1024;1024;1;4;0;0;-2.04204;-0.0922141;-3.75; 
3526;3529;2019/10/09 14:40:28;0;-1;-1;-1;-1;-1;11;0;0;0;0;0;0;0;0;0;0;0;0;0;0;313.333;250.667;8.47191;312.734;252.927;0;16;1;0.64662;-1.42608;-2.05517;0.616228;-1.4234;-2.0573;0.804529;-0.0240659;0.269834;0.714817;0.555781;-1.36198;0;-0.68068;-0.0658672;-1.5;0.908386;-1.52608;-1.96106;-21.1573;-8.65611;-21.1573;644.456;224;1024;1024;1024;224;1024;1024;1024;1;4;0;0;-2.04204;-0.0922141;-3.75; 
3527;3530;2019/10/09 14:40:28;0;-1;-1;-1;-1;-1;11;0;0;0;0;0;0;0;0;0;0;0;0;0;0;311;251;8.52027;310.391;253.115;0;17;1;0.656616;-1.41961;-2.04243;0.628345;-1.42227;-2.05284;0.790614;-0.0160597;0.253554;0.27211;0.806225;-1.18117;0;-0.68068;-0.0658672;-1.5;0.913551;-1.51961;-1.95626;-21.1573;-8.65611;-21.1573;644.456;224;1024;1024;1024;224;1024;1024;1024;1;4;0;0;-2.04204;-0.0922141;-3.75; 
3528;3531;2019/10/09 14:40:28;0;-1;-1;-1;-1;-1;11;0;0;0;0;0;0;0;0;0;0;0;0;0;0;310;252;8.50814;308.452;253.535;0;18;1;0.663417;-1.42653;-2.04211;0.638866;-1.42354;-2.04962;0.773815;-0.0215818;0.225352;-0.109972;0.894127;-1.04561;0;-0.68068;-0.0658672;-1.5;0.915196;-1.52653;-1.96137;-21.1573;-8.65611;-21.1573;644.456;224;1024;1024;1024;224;1024;1024;1024;1;4;0;0;-2.04204;-0.0922141;-3.75; 
3529;3532;2019/10/09 14:40:28;0;-1;-1;-1;-1;-1;11;0;0;0;0;0;0;0;0;0;0;0;0;0;0;307;251;8.48569;306.17;253.486;0;19;1;0.682813;-1.4254;-2.05076;0.65205;-1.4241;-2.04996;0.764368;-0.0246084;0.194077;-0.329779;0.747285;-1.14388;0;-0.68068;-0.0658672;-1.5;0.928712;-1.5254;-1.97914;-21.1573;-8.65611;-21.1573;644.456;224;1024;1024;1024;224;1024;1024;1024;1;4;0;0;-2.04204;-0.0922141;-3.75; 
3530;3533;2019/10/09 14:40:28;0;-1;-1;-1;-1;-1;11;0;0;0;0;0;0;0;0;0;0;0;0;0;0;304;252;8.60439;303.638;253.737;0;20;1;0.690792;-1.41057;-2.01927;0.663673;-1.42004;-2.04075;0.756907;-0.0137888;0.195285;-0.44418;0.573701;-1.18419;0;-0.68068;-0.0658672;-1.5;0.929778;-1.51057;-1.95859;-21.1573;-8.65611;-21.1573;644.456;224;1024;1024;1024;224;1024;1024;1024;1;4;0;0;-2.04204;-0.0922141;-3.75; 
3531;3534;2019/10/09 14:40:28;0;-1;-1;-1;-1;-1;11;0;0;0;0;0;0;0;0;0;0;0;0;0;0;302.667;252.667;8.49487;301.459;254.1;0;21;1;0.70753;-1.43203;-2.04314;0.67683;-1.42364;-2.04147;0.748117;-0.0137741;0.184002;-0.525274;0.428851;-1.14284;0;-0.68068;-0.0658672;-1.5;0.946913;-1.53203;-1.98138;-21.1573;-8.65611;-21.1573;644.456;224;1024;1024;1024;224;1024;1024;1024;1;4;0;0;-2.04204;-0.0922141;-3.75; 
3532;3535;2019/10/09 14:40:28;0;-1;-1;-1;-1;-1;11;0;0;0;0;0;0;0;0;0;0;0;0;0;0;299.333;252.667;8.52134;298.897;254.332;0;22;1;0.724851;-1.42758;-2.0368;0.691236;-1.42482;-2.04007;0.748357;-0.0139133;0.179193;-0.539445;0.297847;-1.04761;0;-0.68068;-0.0658672;-1.5;0.960521;-1.52758;-1.97883;-21.1573;-8.65611;-21.1573;644.456;224;1024;1024;1024;224;1024;1024;1024;1;4;0;0;-2.04204;-0.0922141;-3.75; 
3533;3536;2019/10/09 14:40:28;0;-1;-1;-1;-1;-1;11;0;0;0;0;0;0;0;0;0;0;0;0;0;0;298;254;8.50464;296.698;254.895;0;23;1;0.734098;-1.43691;-2.03649;0.704095;-1.42845;-2.03899;0.751465;-0.0330219;0.162791;-0.479977;0.110983;-0.990961;0;-0.68068;-0.0658672;-1.5;0.970452;-1.53691;-1.97989;-21.1573;-8.65611;-21.1573;644.456;224;1024;1024;1024;224;1024;1024;1024;1;4;0;0;-2.04204;-0.0922141;-3.75; 
3534;3537;2019/10/09 14:40:28;0;-1;-1;-1;-1;-1;11;0;0;0;0;0;0;0;0;0;0;0;0;0;0;296;254;8.48481;294.55;255.274;0;24;1;0.747576;-1.44027;-2.04125;0.717139;-1.43199;-2.03967;0.763401;-0.0535394;0.137406;-0.329566;-0.0610086;-0.945722;0;-0.68068;-0.0658672;-1.5;0.985709;-1.54027;-1.98966;-21.1573;-8.65611;-21.1573;644.456;224;1024;1024;1024;224;1024;1024;1024;1;4;0;0;-2.04204;-0.0922141;-3.75; 
3535;3538;2019/10/09 14:40:28;0;-1;-1;-1;-1;-1;11;0;0;0;0;0;0;0;0;0;0;0;0;0;0;292;254;8.49409;291.802;255.52;0;25;1;0.770258;-1.43869;-2.03902;0.733075;-1.434;-2.03947;0.781549;-0.0716598;0.124317;-0.129139;-0.224469;-0.84597;0;-0.68068;-0.0658672;-1.5;1.01296;-1.53869;-1.99533;-21.1573;-8.65611;-21.1573;644.456;224;1024;1024;1024;224;1024;1024;1024;1;4;0;0;-2.04204;-0.0922141;-3.75; 
3536;3539;2019/10/09 14:40:28;0;-1;-1;-1;-1;-1;11;0;0;0;0;0;0;0;0;0;0;0;0;0;0;289;255;8.56379;288.937;255.989;0;26;1;0.78147;-1.43185;-2.01921;0.747593;-1.43336;-2.0334;0.804001;-0.0961557;0.10397;0.110553;-0.463551;-0.872181;0;-0.68068;-0.0658672;-1.5;1.02949;-1.53185;-1.97976;-21.1573;-8.65611;-21.1573;644.456;224;1024;1024;1024;224;1024;1024;1024;1;4;0;0;-2.04204;-0.0922141;-3.75; 
3537;3540;2019/10/09 14:40:28;0;-1;-1;-1;-1;-1;11;0;0;0;0;0;0;0;0;0;0;0;0;0;0;286.667;254.667;8.46553;286.204;256.194;0;27;1;0.804293;-1.44683;-2.04373;0.764603;-1.4374;-2.0365;0.832856;-0.112634;0.082247;0.404676;-0.672851;-0.929591;0;-0.68068;-0.0658672;-1.5;1.06403;-1.54683;-2.01014;-21.1573;-8.65611;-21.1573;644.456;224;1024;1024;1024;224;1024;1024;1024;1;4;0;0;-2.04204;-0.0922141;-3.75; 
3538;3541;2019/10/09 14:40:28;0;-1;-1;-1;-1;-1;11;0;0;0;0;0;0;0;0;0;0;0;0;0;0;284;254;8.46159;283.459;256.103;0;28;1;0.820393;-1.44422;-2.04685;0.78134;-1.43944;-2.0396;0.859475;-0.125973;0.0512159;0.686471;-0.851136;-1.06873;0;-0.68068;-0.0658672;-1.5;1.0919;-1.54422;-2.02003;-21.1573;-8.65611;-21.1573;644.456;224;1024;1024;1024;224;1024;1024;1024;1;4;0;0;-2.04204;-0.0922141;-3.75; 
3539;3542;2019/10/09 14:40:28;0;-1;-1;-1;-1;-1;11;0;0;0;0;0;0;0;0;0;0;0;0;0;0;281;254;8.63259;280.603;256.01;0;29;1;0.821484;-1.41561;-2.0063;0.793383;-1.43229;-2.02961;0.872192;-0.0909486;0.0681904;0.893911;-0.741968;-1.01896;0;-0.68068;-0.0658672;-1.5;1.0986;-1.51561;-1.98979;-21.1573;-8.65611;-21.1573;644.456;224;1024;1024;1024;224;1024;1024;1024;1;4;0;0;-2.04204;-0.0922141;-3.75; 
3540;3543;2019/10/09 14:40:28;0;-1;-1;-1;-1;-1;11;0;0;0;0;0;0;0;0;0;0;0;0;0;0;278;253;8.52072;277.667;255.599;0;30;1;0.849839;-1.42931;-2.03587;0.81032;-1.4314;-2.03149;0.895363;-0.0522017;0.0735745;1.06323;-0.439839;-0.866235;0;-0.68068;-0.0658672;-1.5;1.13626;-1.52931;-2.01348;-21.1573;-8.65611;-21.1573;644.456;224;1024;1024;1024;224;1024;1024;1024;1;4;0;0;-2.04204;-0.0922141;-3.75; 
3541;3544;2019/10/09 14:40:28;0;-1;-1;-1;-1;-1;11;0;0;0;0;0;0;0;0;0;0;0;0;0;0;275.333;252.667;8.49808;274.78;255.171;0;31;1;0.867761;-1.43148;-2.04237;0.827552;-1.43142;-2.03475;0.914443;-0.02103;0.0629855;1.16855;-0.0617525;-0.76462;0;-0.68068;-0.0658672;-1.5;1.16494;-1.53148;-2.01795;-21.1573;-8.65611;-21.1573;644.456;224;1024;1024;1024;224;1024;1024;1024;1;4;0;0;-2.04204;-0.0922141;-3.75; 
3542;3545;2019/10/09 14:40:28;0;-1;-1;-1;-1;-1;11;0;0;0;0;0;0;0;0;0;0;0;0;0;0;274;252;8.50926;272.356;254.626;0;32;1;0.87444;-1.42634;-2.04184;0.841619;-1.4299;-2.03688;0.924085;0.00117992;0.0238701;1.18059;0.351584;-0.778589;0;-0.68068;-0.0658672;-1.5;1.17932;-1.52634;-2.02084;-21.1573;-8.65611;-21.1573;644.456;224;1024;1024;1024;224;1024;1024;1024;1;4;0;0;-2.04204;-0.0922141;-3.75; 
3543;3546;2019/10/09 14:40:28;0;-1;-1;-1;-1;-1;11;0;0;0;0;0;0;0;0;0;0;0;0;0;0;271;251;8.50946;269.738;253.891;0;33;1;0.892011;-1.42141;-2.04503;0.856736;-1.42735;-2.03933;0.922315;0.0408062;0.00302441;1.06554;0.823596;-0.783469;0;-0.68068;-0.0658672;-1.5;1.20138;-1.52141;-2.03703;-21.1573;-8.65611;-21.1573;644.456;224;1024;1024;1024;224;1024;1024;1024;1;4;0;0;-2.04204;-0.0922141;-3.75; 
3544;3547;2019/10/09 14:40:28;0;-1;-1;-1;-1;-1;11;0;0;0;0;0;0;0;0;0;0;0;0;0;0;269;249;8.5254;267.298;252.702;0;34;1;0.90205;-1.40899;-2.04765;0.87033;-1.42184;-2.04182;0.908703;0.0947533;-0.00705937;0.835877;1.37546;-0.702759;0;-0.68068;-0.0658672;-1.5;1.21052;-1.50899;-2.04664;-21.1573;-8.65611;-21.1573;644.456;224;1024;1024;1024;224;1024;1024;1024;1;4;0;0;-2.04204;-0.0922141;-3.75; 
3545;3548;2019/10/09 14:40:28;0;-1;-1;-1;-1;-1;11;0;0;0;0;0;0;0;0;0;0;0;0;0;0;266;248;8.55157;264.669;251.506;0;35;1;0.916794;-1.3998;-2.0446;0.88427;-1.41523;-2.04266;0.908105;0.124974;-0.0563191;0.64492;1.6874;-0.918788;0;-0.68068;-0.0658672;-1.5;1.21938;-1.4998;-2.04695;-21.1573;-8.65611;-21.1573;644.456;224;1024;1024;1024;224;1024;1024;1024;1;4;0;0;-2.04204;-0.0922141;-3.75; 
3546;3549;2019/10/09 14:40:28;0;-1;-1;-1;-1;-1;11;0;0;0;0;0;0;0;0;0;0;0;0;0;0;264.667;246.667;8.7462;262.436;250.2;0;36;1;0.904;-1.36231;-2.00329;0.890189;-1.39935;-2.03085;0.863758;0.202928;-0.0312279;0.260764;2.03111;-0.969722;0;-0.68068;-0.0658672;-1.5;1.20023;-1.46231;-2.02167;-21.1573;-8.65611;-21.1573;644.456;224;1024;1024;1024;224;1024;1024;1024;1;4;0;0;-2.04204;-0.0922141;-3.75; 
3547;3550;2019/10/09 14:40:28;0;-1;-1;-1;-1;-1;11;0;0;0;0;0;0;0;0;0;0;0;0;0;0;262;245;8.50294;260.064;248.712;0;37;1;0.945512;-1.39312;-2.06599;0.906786;-1.39748;-2.04139;0.834613;0.257273;-0.045236;-0.162283;2.32985;-1.01393;0;-0.68068;-0.0658672;-1.5;1.23219;-1.49312;-2.07636;-21.1573;-8.65611;-21.1573;644.456;224;1024;1024;1024;224;1024;1024;1024;1;4;0;0;-2.04204;-0.0922141;-3.75; 
3548;3551;2019/10/09 14:40:28;0;-1;-1;-1;-1;-1;11;0;0;0;0;0;0;0;0;0;0;0;0;0;0;259;245;8.51498;257.485;247.626;0;38;1;0.961756;-1.39115;-2.06307;0.923277;-1.39558;-2.0479;0.826807;0.29138;-0.0711185;-0.485778;2.55661;-0.987625;0;-0.68068;-0.0658672;-1.5;1.23694;-1.49115;-2.07799;-21.1573;-8.65611;-21.1573;644.456;224;1024;1024;1024;224;1024;1024;1024;1;4;0;0;-2.04204;-0.0922141;-3.75; 
3549;3552;2019/10/09 14:40:28;0;-1;-1;-1;-1;-1;11;0;0;0;0;0;0;0;0;0;0;0;0;0;0;256;243;8.5132;254.758;246.197;0;39;1;0.979542;-1.38166;-2.06996;0.940156;-1.39141;-2.05452;0.829157;0.318361;-0.103326;-0.663421;2.64217;-1.0172;0;-0.68068;-0.0658672;-1.5;1.2524;-1.48166;-2.09343;-21.1573;-8.65611;-21.1573;644.456;224;1024;1024;1024;224;1024;1024;1024;1;4;0;0;-2.04204;-0.0922141;-3.75; 
3550;3553;2019/10/09 14:40:28;0;-1;-1;-1;-1;-1;11;0;0;0;0;0;0;0;0;0;0;0;0;0;0;254;242;8.59176;252.242;244.841;0;40;1;0.982201;-1.36418;-2.05424;0.95277;-1.38324;-2.05443;0.826651;0.345165;-0.112339;-0.725663;2.58513;-1.03068;0;-0.68068;-0.0658672;-1.5;1.25424;-1.46418;-2.08814;-21.1573;-8.65611;-21.1573;644.456;224;1024;1024;1024;224;1024;1024;1024;1;4;0;0;-2.04204;-0.0922141;-3.75; 
3551;3554;2019/10/09 14:40:28;0;-1;-1;-1;-1;-1;11;0;0;0;0;0;0;0;0;0;0;0;0;0;0;250;242;8.55432;249.242;243.858;0;41;1;1.00983;-1.37015;-2.06323;0.969888;-1.37931;-2.05707;0.837844;0.350528;-0.124955;-0.715934;2.45165;-0.892451;0;-0.68068;-0.0658672;-1.5;1.28297;-1.47015;-2.10035;-21.1573;-8.65611;-21.1573;644.456;224;1024;1024;1024;224;1024;1024;1024;1;4;0;0;-2.04204;-0.0922141;-3.75; 
3552;3555;2019/10/09 14:40:28;0;-1;-1;-1;-1;-1;11;0;0;0;0;0;0;0;0;0;0;0;0;0;0;246;241;8.49058;245.891;242.831;0;42;1;1.04092;-1.37553;-2.08195;0.991198;-1.37818;-2.06454;0.90601;0.29488;-0.20948;-0.260858;1.83813;-1.24718;0;-0.68068;-0.0658672;-1.5;1.32163;-1.47553;-2.12382;-21.1573;-8.65611;-21.1573;644.456;224;1024;1024;1024;224;1024;1024;1024;1;4;0;0;-2.04204;-0.0922141;-3.75; 
3553;3556;2019/10/09 14:40:28;0;-1;-1;-1;-1;-1;11;0;0;0;0;0;0;0;0;0;0;0;0;0;0;244;240;8.53959;242.927;241.772;0;43;1;1.04663;-1.36276;-2.07323;1.00783;-1.37355;-2.06714;0.947046;0.27249;-0.228503;0.292401;1.16364;-1.48005;0;-0.68068;-0.0658672;-1.5;1.35567;-1.46276;-2.14468;-21.1573;-8.65611;-21.1573;644.456;224;1024;1024;1024;224;1024;1024;1024;1;4;0;0;-2.04204;-0.0922141;-3.75; 
3554;3557;2019/10/09 14:40:28;0;-1;-1;-1;-1;-1;11;0;0;0;0;0;0;0;0;0;0;0;0;0;0;240;240;8.61249;239.605;241.012;0;44;1;1.06095;-1.35122;-2.05568;1.02377;-1.36685;-2.0637;0.969452;0.278213;-0.200211;0.744987;0.645607;-1.40346;0;-0.68068;-0.0658672;-1.5;1.3862;-1.45122;-2.13415;-21.1573;-8.65611;-21.1573;644.456;224;1024;1024;1024;224;1024;1024;1024;1;4;0;0;-2.04204;-0.0922141;-3.75; 
3555;3558;2019/10/09 14:40:28;0;-1;-1;-1;-1;-1;11;0;0;0;0;0;0;0;0;0;0;0;0;0;0;237.333;239.333;8.51521;236.452;240.257;0;45;1;1.0887;-1.3634;-2.08131;1.04325;-1.36582;-2.06899;0.993278;0.269099;-0.177898;1.10228;0.190675;-1.13982;0;-0.68068;-0.0658672;-1.5;1.4275;-1.4634;-2.15128;-21.1573;-8.65611;-21.1573;644.456;224;1024;1024;1024;224;1024;1024;1024;1;4;0;0;-2.04204;-0.0922141;-3.75; 
3556;3559;2019/10/09 14:40:28;0;-1;-1;-1;-1;-1;11;0;0;0;0;0;0;0;0;0;0;0;0;0;0;234;239;8.58784;233.21;239.613;0;46;1;1.09886;-1.35025;-2.06478;1.05993;-1.36115;-2.06772;1.02383;0.249661;-0.159804;1.44865;-0.266918;-0.873409;0;-0.68068;-0.0658672;-1.5;1.44589;-1.45025;-2.12693;-21.1573;-8.65611;-21.1573;644.456;224;1024;1024;1024;224;1024;1024;1024;1;4;0;0;-2.04204;-0.0922141;-3.75; 
3557;3560;2019/10/09 14:40:28;0;-1;-1;-1;-1;-1;11;0;0;0;0;0;0;0;0;0;0;0;0;0;0;230;240;8.53647;229.692;239.476;0;47;1;1.12885;-1.36326;-2.07398;1.08061;-1.36178;-2.0696;1.05637;0.219791;-0.145913;1.74169;-0.682148;-0.607724;0;-0.68068;-0.0658672;-1.5;1.49251;-1.46326;-2.13074;-21.1573;-8.65611;-21.1573;644.456;224;1024;1024;1024;224;1024;1024;1024;1;4;0;0;-2.04204;-0.0922141;-3.75; 
3558;3561;2019/10/09 14:40:28;0;-1;-1;-1;-1;-1;11;0;0;0;0;0;0;0;0;0;0;0;0;0;0;227.333;239.333;8.54555;226.401;239.176;0;48;1;1.14323;-1.35856;-2.07392;1.09939;-1.36081;-2.0709;1.06581;0.201197;-0.112951;1.68306;-0.783343;0.0207789;0;-0.68068;-0.0658672;-1.5;1.52199;-1.45856;-2.12624;-21.1573;-8.65611;-21.1573;644.456;224;1024;1024;1024;224;1024;1024;1024;1;4;0;0;-2.04204;-0.0922141;-3.75; 
3559;3562;2019/10/09 14:40:28;0;-1;-1;-1;-1;-1;11;0;0;0;0;0;0;0;0;0;0;0;0;0;0;224;240;8.54497;223.063;239.182;0;49;1;1.16277;-1.3619;-2.07192;1.1184;-1.36114;-2.0712;1.08099;0.170273;-0.083988;1.54463;-0.878132;0.58948;0;-0.68068;-0.0658672;-1.5;1.54661;-1.4619;-2.1126;-21.1573;-8.65611;-21.1573;644.456;224;1024;1024;1024;224;1024;1024;1024;1;4;0;0;-2.04204;-0.0922141;-3.75; 
3560;3563;2019/10/09 14:40:28;0;-1;-1;-1;-1;-1;11;0;0;0;0;0;0;0;0;0;0;0;0;0;0;220.667;240.667;8.47447;219.694;239.41;0;50;1;1.19207;-1.3765;-2.08699;1.1405;-1.36575;-2.07594;1.1147;0.106568;-0.0992578;1.5067;-1.21221;0.756767;0;-0.68068;-0.0658672;-1.5;1.587;-1.4765;-2.11768;-21.1573;-8.65611;-21.1573;644.456;224;1024;1024;1024;224;1024;1024;1024;1;4;0;0;-2.04204;-0.0922141;-3.75; 
3561;3564;2019/10/09 14:40:28;0;-1;-1;-1;-1;-1;11;0;0;0;0;0;0;0;0;0;0;0;0;0;0;218;240;8.6195;216.515;239.373;0;51;1;1.18745;-1.35012;-2.054;1.15459;-1.36106;-2.06936;1.11338;0.0829269;-0.0610474;1.38357;-1.47067;0.920617;0;-0.68068;-0.0658672;-1.5;1.59283;-1.45012;-2.0901;-21.1573;-8.65611;-21.1573;644.456;224;1024;1024;1024;224;1024;1024;1024;1;4;0;0;-2.04204;-0.0922141;-3.75; 
3562;3565;2019/10/09 14:40:28;0;-1;-1;-1;-1;-1;11;0;0;0;0;0;0;0;0;0;0;0;0;0;0;215;241;8.52828;213.37;239.676;0;52;1;1.2177;-1.36945;-2.07275;1.17352;-1.36358;-2.07038;1.12158;0.040053;-0.0472236;1.22043;-1.71931;1.00188;0;-0.68068;-0.0658672;-1.5;1.62744;-1.46945;-2.09522;-21.1573;-8.65611;-21.1573;644.456;224;1024;1024;1024;224;1024;1024;1024;1;4;0;0;-2.04204;-0.0922141;-3.75; 
3563;3566;2019/10/09 14:40:28;0;-1;-1;-1;-1;-1;11;0;0;0;0;0;0;0;0;0;0;0;0;0;0;212;241;8.49308;210.25;239.904;0;53;1;1.24038;-1.37512;-2.08134;1.19358;-1.36704;-2.07367;1.12402;0.00302424;-0.0445639;1.00236;-1.89708;1.00579;0;-0.68068;-0.0658672;-1.5;1.65676;-1.47512;-2.09887;-21.1573;-8.65611;-21.1573;644.456;224;1024;1024;1024;224;1024;1024;1024;1;4;0;0;-2.04204;-0.0922141;-3.75; 
3564;3567;2019/10/09 14:40:28;0;-1;-1;-1;-1;-1;11;0;0;0;0;0;0;0;0;0;0;0;0;0;0;210.667;240.667;8.64176;207.681;239.972;0;54;1;1.22674;-1.34986;-2.04659;1.20353;-1.36189;-2.06554;1.09019;-0.00247064;-0.00536143;0.698753;-1.95144;1.03305;0;-0.68068;-0.0658672;-1.5;1.63784;-1.44986;-2.06289;-21.1573;-8.65611;-21.1573;644.456;224;1024;1024;1024;224;1024;1024;1024;1;4;0;0;-2.04204;-0.0922141;-3.75; 
3565;3568;2019/10/09 14:40:28;0;-1;-1;-1;-1;-1;11;0;0;0;0;0;0;0;0;0;0;0;0;0;0;207;241;8.57189;204.767;240.135;0;55;1;1.25808;-1.36248;-2.0622;1.21989;-1.36206;-2.06454;1.05932;-0.00517784;0.0233824;0.332754;-1.8714;1.04853;0;-0.68068;-0.0658672;-1.5;1.65753;-1.46248;-2.06417;-21.1573;-8.65611;-21.1573;644.456;224;1024;1024;1024;224;1024;1024;1024;1;4;0;0;-2.04204;-0.0922141;-3.75; 
3566;3569;2019/10/09 14:40:28;0;-1;-1;-1;-1;-1;11;0;0;0;0;0;0;0;0;0;0;0;0;0;0;204.667;241.333;8.63738;202.029;240.367;0;56;1;1.26202;-1.35376;-2.04551;1.23253;-1.35957;-2.05883;1.00303;0.0215535;0.0823392;-0.246203;-1.46228;1.35419;0;-0.68068;-0.0658672;-1.5;1.64496;-1.45376;-2.03706;-21.1573;-8.65611;-21.1573;644.456;224;1024;1024;1024;224;1024;1024;1024;1;4;0;0;-2.04204;-0.0922141;-3.75; 
3567;3570;2019/10/09 14:40:28;0;-1;-1;-1;-1;-1;11;0;0;0;0;0;0;0;0;0;0;0;0;0;0;203;241;8.57548;199.632;240.435;0;57;1;1.28083;-1.36191;-2.06134;1.24702;-1.36027;-2.05958;0.970875;0.0160759;0.0884312;-0.716711;-1.14429;1.40934;0;-0.68068;-0.0658672;-1.5;1.64133;-1.46191;-2.03175;-21.1573;-8.65611;-21.1573;644.456;224;1024;1024;1024;224;1024;1024;1024;1;4;0;0;-2.04204;-0.0922141;-3.75; 
3568;3571;2019/10/09 14:40:28;0;-1;-1;-1;-1;-1;11;0;0;0;0;0;0;0;0;0;0;0;0;0;0;200.4;240.8;8.57255;197.183;240.426;0;58;1;1.2964;-1.3614;-2.06269;1.26183;-1.36061;-2.06052;0.935131;0.0214796;0.0924292;-1.17446;-0.76073;1.4032;0;-0.68068;-0.0658672;-1.5;1.64338;-1.4614;-2.03108;-21.1573;-8.65611;-21.1573;644.456;224;1024;1024;1024;224;1024;1024;1024;1;4;0;0;-2.04204;-0.0922141;-3.75; 
3569;3572;2019/10/09 14:40:28;0;-1;-1;-1;-1;-1;11;0;0;0;0;0;0;0;0;0;0;0;0;0;0;197;241;8.51754;194.442;240.489;0;59;1;1.32469;-1.37117;-2.07536;1.28069;-1.36378;-2.06497;0.908897;0.0259023;0.0901758;-1.56359;-0.365092;1.3799;0;-0.68068;-0.0658672;-1.5;1.65893;-1.47117;-2.04233;-21.1573;-8.65611;-21.1573;644.456;224;1024;1024;1024;224;1024;1024;1024;1;4;0;0;-2.04204;-0.0922141;-3.75; 
3570;3573;2019/10/09 14:40:28;0;-1;-1;-1;-1;-1;11;0;0;0;0;0;0;0;0;0;0;0;0;0;0;195;241;8.59969;191.934;240.54;0;60;1;1.32364;-1.35808;-2.05554;1.29358;-1.36207;-2.06214;0.904887;0.0148098;0.0676935;-1.67801;-0.150059;1.11963;0;-0.68068;-0.0658672;-1.5;1.64386;-1.45808;-2.02377;-21.1573;-8.65611;-21.1573;644.456;224;1024;1024;1024;224;1024;1024;1024;1;4;0;0;-2.04204;-0.0922141;-3.75; 
3571;3574;2019/10/09 14:40:28;0;-1;-1;-1;-1;-1;11;0;0;0;0;0;0;0;0;0;0;0;0;0;0;193;241;8.58594;189.597;240.582;0;61;1;1.33739;-1.36025;-2.05883;1.30672;-1.36152;-2.06115;0.889611;0.0110444;0.0541708;-1.68442;-0.0252646;0.794708;0;-0.68068;-0.0658672;-1.5;1.6568;-1.46025;-2.03493;-21.1573;-8.65611;-21.1573;644.456;224;1024;1024;1024;224;1024;1024;1024;1;4;0;0;-2.04204;-0.0922141;-3.75; 
3572;3575;2019/10/09 14:40:29;0;-1;-1;-1;-1;-1;11;0;0;0;0;0;0;0;0;0;0;0;0;0;0;190;241;8.6379;187.062;240.617;0;62;1;1.34667;-1.35207;-2.04645;1.3187;-1.35869;-2.05674;0.877839;0.0101612;0.0408682;-1.51052;-0.060645;0.311242;0;-0.68068;-0.0658672;-1.5;1.65843;-1.45207;-2.02746;-21.1573;-8.65611;-21.1573;644.456;224;1024;1024;1024;224;1024;1024;1024;1;4;0;0;-2.04204;-0.0922141;-3.75; 
