ID;RS_ID;insect_log;imLx_drone;imLy_drone;disparity_drone;imLx_pred_drone;imLy_pred_drone;n_frames_lost_drone;n_frames_tracking_drone;foundL_drone;posX_drone;posY_drone;posZ_drone;sposX_drone;sposY_drone;sposZ_drone;svelX_drone;svelY_drone;svelZ_drone;saccX_drone;saccY_drone;saccZ_drone;imLx_insect;imLy_insect;disparity_insect;imLx_pred_insect;imLy_pred_insect;n_frames_lost_insect;n_frames_tracking_insect;foundL_insect;posX_insect;posY_insect;posZ_insect;sposX_insect;sposY_insect;sposZ_insect;svelX_insect;svelY_insect;svelZ_insect;saccX_insect;saccY_insect;saccZ_insect;valid;posErrX;posErrY;posErrZ;velX;velY;velZ;accX;accY;accZ;hoverthrottle;autoThrottle;autoRoll;autoPitch;autoYaw;joyThrottle;joyRoll;joyPitch;joyYaw;joyArmSwitch;joyModeSwitch;joyTakeoffSwitch;dt;velx_sp;vely_sp;velz_sp;Unnamed: 70;time
5939.0;5954.0;0.0;-1.0;-1.0;-1.0;-1.0;-1.0;100.0;0.0;0.0;0.0;0.0;0.0;0.0;0.0;0.0;0.0;0.0;0.0;0.0;0.0;0.0;540.25;473.75;15.435;540.25;473.75;0.0;1.0;1.0;-0.375996;-0.44497;-0.571429;-0.375996;-0.44497;-0.571429;0.0;0.0;0.0;0.0;0.0;0.0;0.0;0.0;0.0;0.0;0.0;0.0;0.0;0.0;0.0;0.0;675.0;304.0;1024.0;1024.0;1024.0;224.0;1024.0;1024.0;1024.0;1.0;4.0;0.0;0.0;0.0;0.0;0.0;;1970-01-01 00:00:00.000
5940.0;5955.0;0.0;-1.0;-1.0;-1.0;-1.0;-1.0;100.0;0.0;0.0;0.0;0.0;0.0;0.0;0.0;0.0;0.0;0.0;0.0;0.0;0.0;0.0;535.75;468.25;15.4349;539.841;473.25;0.0;2.0;1.0;-0.361433;-0.43138000000000004;-0.582924;-0.371627;-0.4409;-0.574878;0.0;0.0;0.0;0.0;0.0;0.0;0.0;0.0;0.0;0.0;0.0;0.0;0.0;0.0;0.0;0.0;675.0;304.0;1024.0;1024.0;1024.0;224.0;1024.0;1024.0;1024.0;1.0;4.0;0.0;0.0;0.0;0.0;0.0;;1970-01-01 00:00:00.011
5941.0;5956.0;0.0;-1.0;-1.0;-1.0;-1.0;-1.0;100.0;0.0;0.0;0.0;0.0;0.0;0.0;0.0;0.0;0.0;0.0;0.0;0.0;0.0;0.0;533.3330000000001;462.667;15.4947;538.795;471.54900000000004;0.0;3.0;1.0;-0.352246;-0.41211000000000003;-0.592295;-0.365813;-0.43226000000000003;-0.5801029999999999;0.0;0.0;0.0;0.0;0.0;0.0;0.0;0.0;0.0;0.0;0.0;0.0;0.0;0.0;0.0;0.0;675.0;304.0;1024.0;1024.0;1024.0;224.0;1024.0;1024.0;1024.0;1.0;4.0;0.0;0.0;0.0;0.0;0.0;;1970-01-01 00:00:00.022
5941.0;5956.0;0.0;-1.0;-1.0;-1.0;-1.0;-1.0;100.0;0.0;0.0;0.0;0.0;0.0;0.0;0.0;0.0;0.0;0.0;0.0;0.0;0.0;0.0;533.3330000000001;462.667;15.4947;538.795;471.54900000000004;0.0;3.0;1.0;-0.352246;-0.41211000000000003;-0.592295;-0.365813;-0.43226000000000003;-0.5801029999999999;0.0;0.0;0.0;0.0;0.0;0.0;0.0;0.0;0.0;0.0;0.0;0.0;0.0;0.0;0.0;0.0;675.0;304.0;1024.0;1024.0;1024.0;224.0;1024.0;1024.0;1024.0;1.0;4.0;0.0;0.0;0.0;0.0;0.0;;1970-01-01 00:00:00.033
5942.0;5957.0;0.0;-1.0;-1.0;-1.0;-1.0;-1.0;100.0;0.0;0.0;0.0;0.0;0.0;0.0;0.0;0.0;0.0;0.0;0.0;0.0;0.0;0.0;528.222;455.333;15.2927;536.595;468.175;0.0;4.0;1.0;-0.34020300000000003;-0.41248;-0.615587;-0.35813;-0.42633000000000004;-0.5907479999999999;0.0;0.0;0.0;0.0;0.0;0.0;0.0;0.0;0.0;0.0;0.0;0.0;0.0;0.0;0.0;0.0;675.0;304.0;1024.0;1024.0;1024.0;224.0;1024.0;1024.0;1024.0;1.0;4.0;0.0;0.0;0.0;0.0;0.0;;1970-01-01 00:00:00.044
5943.0;5958.0;0.0;-1.0;-1.0;-1.0;-1.0;-1.0;100.0;0.0;0.0;0.0;0.0;0.0;0.0;0.0;0.0;0.0;0.0;0.0;0.0;0.0;0.0;524.5;449.25;15.2028;533.715;463.66900000000004;0.0;5.0;1.0;-0.329982;-0.40556;-0.632131;-0.349686;-0.42008999999999996;-0.603163;0.0;0.0;0.0;0.0;0.0;0.0;0.0;0.0;0.0;0.0;0.0;0.0;0.0;0.0;0.0;0.0;675.0;304.0;1024.0;1024.0;1024.0;224.0;1024.0;1024.0;1024.0;1.0;4.0;0.0;0.0;0.0;0.0;0.0;;1970-01-01 00:00:00.055
5943.0;5958.0;0.0;-1.0;-1.0;-1.0;-1.0;-1.0;100.0;0.0;0.0;0.0;0.0;0.0;0.0;0.0;0.0;0.0;0.0;0.0;0.0;0.0;0.0;524.5;449.25;15.2028;533.715;463.66900000000004;0.0;5.0;1.0;-0.329982;-0.40556;-0.632131;-0.349686;-0.42008999999999996;-0.603163;0.0;0.0;0.0;0.0;0.0;0.0;0.0;0.0;0.0;0.0;0.0;0.0;0.0;0.0;0.0;0.0;675.0;304.0;1024.0;1024.0;1024.0;224.0;1024.0;1024.0;1024.0;1.0;4.0;0.0;0.0;0.0;0.0;0.0;;1970-01-01 00:00:00.066
5944.0;5959.0;0.0;-1.0;-1.0;-1.0;-1.0;-1.0;100.0;0.0;0.0;0.0;0.0;0.0;0.0;0.0;0.0;0.0;0.0;0.0;0.0;0.0;0.0;521.75;444.25;15.1761;530.64;458.68;0.0;6.0;1.0;-0.321511;-0.39546;-0.643871;-0.341233;-0.41271;-0.615375;0.0;0.0;0.0;0.0;0.0;0.0;0.0;0.0;0.0;0.0;0.0;0.0;0.0;0.0;0.0;0.0;675.0;304.0;1024.0;1024.0;1024.0;224.0;1024.0;1024.0;1024.0;1.0;4.0;0.0;0.0;0.0;0.0;0.0;;1970-01-01 00:00:00.077
5945.0;5960.0;0.0;-1.0;-1.0;-1.0;-1.0;-1.0;100.0;0.0;0.0;0.0;0.0;0.0;0.0;0.0;0.0;0.0;0.0;0.0;0.0;0.0;0.0;519.75;438.25;15.0104;527.702;453.17900000000003;0.0;7.0;1.0;-0.318404;-0.39561999999999997;-0.66387;-0.334385;-0.40758;-0.6299239999999999;0.0;0.0;0.0;0.0;0.0;0.0;0.0;0.0;0.0;0.0;0.0;0.0;0.0;0.0;0.0;0.0;675.0;304.0;1024.0;1024.0;1024.0;224.0;1024.0;1024.0;1024.0;1.0;4.0;0.0;0.0;0.0;0.0;0.0;;1970-01-01 00:00:00.088
5945.0;5960.0;0.0;-1.0;-1.0;-1.0;-1.0;-1.0;100.0;0.0;0.0;0.0;0.0;0.0;0.0;0.0;0.0;0.0;0.0;0.0;0.0;0.0;0.0;519.75;438.25;15.0104;527.702;453.17900000000003;0.0;7.0;1.0;-0.318404;-0.39561999999999997;-0.66387;-0.334385;-0.40758;-0.6299239999999999;0.0;0.0;0.0;0.0;0.0;0.0;0.0;0.0;0.0;0.0;0.0;0.0;0.0;0.0;0.0;0.0;675.0;304.0;1024.0;1024.0;1024.0;224.0;1024.0;1024.0;1024.0;1.0;4.0;0.0;0.0;0.0;0.0;0.0;;1970-01-01 00:00:00.099
5946.0;5961.0;0.0;-1.0;-1.0;-1.0;-1.0;-1.0;100.0;0.0;0.0;0.0;0.0;0.0;0.0;0.0;0.0;0.0;0.0;0.0;0.0;0.0;0.0;516.0;432.57099999999997;14.922;524.442;447.444;0.0;8.0;1.0;-0.307735;-0.38936;-0.680074;-0.32639;-0.40210999999999997;-0.644969;0.45154799999999995;0.38711999999999996;-0.699629;1.8953099999999998;1.42696;-4.9219;0.0;0.0;0.0;0.0;0.0;0.0;0.0;0.0;0.0;0.0;675.0;304.0;1024.0;1024.0;1024.0;224.0;1024.0;1024.0;1024.0;1.0;4.0;0.0;0.0;0.0;0.0;0.0;;1970-01-01 00:00:00.110
5947.0;5962.0;0.0;-1.0;-1.0;-1.0;-1.0;-1.0;100.0;0.0;0.0;0.0;0.0;0.0;0.0;0.0;0.0;0.0;0.0;0.0;0.0;0.0;0.0;514.0;428.57099999999997;14.9275;521.444;442.034;0.0;9.0;1.0;-0.300929;-0.37863;-0.6884680000000001;-0.318751;-0.39507;-0.6580189999999999;0.45885;0.380785;-0.730905;1.5789600000000001;0.31155900000000003;-4.62214;0.0;0.0;0.0;0.0;0.0;0.0;0.0;0.0;0.0;0.0;675.0;304.0;1024.0;1024.0;1024.0;224.0;1024.0;1024.0;1024.0;1.0;4.0;0.0;0.0;0.0;0.0;0.0;;1970-01-01 00:00:00.121
5947.0;5962.0;0.0;-1.0;-1.0;-1.0;-1.0;-1.0;100.0;0.0;0.0;0.0;0.0;0.0;0.0;0.0;0.0;0.0;0.0;0.0;0.0;0.0;0.0;514.0;428.57099999999997;14.9275;521.444;442.034;0.0;9.0;1.0;-0.300929;-0.37863;-0.6884680000000001;-0.318751;-0.39507;-0.6580189999999999;0.45885;0.380785;-0.730905;1.5789600000000001;0.31155900000000003;-4.62214;0.0;0.0;0.0;0.0;0.0;0.0;0.0;0.0;0.0;0.0;675.0;304.0;1024.0;1024.0;1024.0;224.0;1024.0;1024.0;1024.0;1.0;4.0;0.0;0.0;0.0;0.0;0.0;;1970-01-01 00:00:00.132
5948.0;5963.0;0.0;-1.0;-1.0;-1.0;-1.0;-1.0;100.0;0.0;0.0;0.0;0.0;0.0;0.0;0.0;0.0;0.0;0.0;0.0;0.0;0.0;0.0;513.429;424.0;14.7473;519.055;436.727;0.0;10.0;1.0;-0.30267;-0.38365;-0.706878;-0.313927;-0.39164;-0.6726770000000001;0.45181800000000005;0.36696100000000004;-0.765692;0.9141530000000001;0.232652;-3.28491;0.0;0.0;0.0;0.0;0.0;0.0;0.0;0.0;0.0;0.0;675.0;304.0;1024.0;1024.0;1024.0;224.0;1024.0;1024.0;1024.0;1.0;4.0;0.0;0.0;0.0;0.0;0.0;;1970-01-01 00:00:00.143
5949.0;5964.0;0.0;-1.0;-1.0;-1.0;-1.0;-1.0;100.0;0.0;0.0;0.0;0.0;0.0;0.0;0.0;0.0;0.0;0.0;0.0;0.0;0.0;0.0;510.0;418.57099999999997;14.7619;516.314;431.259;0.0;11.0;1.0;-0.29076799999999997;-0.36825;-0.718039;-0.306979;-0.38463;-0.686285;0.44162299999999993;0.361808;-0.791333;0.292572;0.09425610000000001;-2.1619599999999997;0.0;0.0;0.0;0.0;0.0;0.0;0.0;0.0;0.0;0.0;675.0;304.0;1024.0;1024.0;1024.0;224.0;1024.0;1024.0;1024.0;1.0;4.0;0.0;0.0;0.0;0.0;0.0;;1970-01-01 00:00:00.154
5949.0;5964.0;0.0;-1.0;-1.0;-1.0;-1.0;-1.0;100.0;0.0;0.0;0.0;0.0;0.0;0.0;0.0;0.0;0.0;0.0;0.0;0.0;0.0;0.0;510.0;418.57099999999997;14.7619;516.314;431.259;0.0;11.0;1.0;-0.29076799999999997;-0.36825;-0.718039;-0.306979;-0.38463;-0.686285;0.44162299999999993;0.361808;-0.791333;0.292572;0.09425610000000001;-2.1619599999999997;0.0;0.0;0.0;0.0;0.0;0.0;0.0;0.0;0.0;0.0;675.0;304.0;1024.0;1024.0;1024.0;224.0;1024.0;1024.0;1024.0;1.0;4.0;0.0;0.0;0.0;0.0;0.0;;1970-01-01 00:00:00.165
5950.0;5965.0;0.0;-1.0;-1.0;-1.0;-1.0;-1.0;100.0;0.0;0.0;0.0;0.0;0.0;0.0;0.0;0.0;0.0;0.0;0.0;0.0;0.0;0.0;509.333;414.222;14.8007;514.102;425.98;0.0;12.0;1.0;-0.28775500000000004;-0.35345;-0.725633;-0.301212;-0.37527;-0.69809;0.424785;0.366555;-0.805088;-0.149649;-0.24690900000000002;-1.59133;0.0;0.0;0.0;0.0;0.0;0.0;0.0;0.0;0.0;0.0;675.0;304.0;1024.0;1024.0;1024.0;224.0;1024.0;1024.0;1024.0;1.0;4.0;0.0;0.0;0.0;0.0;0.0;;1970-01-01 00:00:00.176
5951.0;5966.0;0.0;-1.0;-1.0;-1.0;-1.0;-1.0;100.0;0.0;0.0;0.0;0.0;0.0;0.0;0.0;0.0;0.0;0.0;0.0;0.0;0.0;0.0;508.25;409.75;14.8238;512.1619999999999;420.80300000000005;0.0;13.0;1.0;-0.283655;-0.33983;-0.734232;-0.29594499999999996;-0.36464;-0.708933;0.408366;0.391391;-0.7985439999999999;-0.0969697;0.18883;-0.664323;0.0;0.0;0.0;0.0;0.0;0.0;0.0;0.0;0.0;0.0;675.0;304.0;1024.0;1024.0;1024.0;224.0;1024.0;1024.0;1024.0;1.0;4.0;0.0;0.0;0.0;0.0;0.0;;1970-01-01 00:00:00.187
5952.0;5967.0;0.0;-1.0;-1.0;-1.0;-1.0;-1.0;100.0;0.0;0.0;0.0;0.0;0.0;0.0;0.0;0.0;0.0;0.0;0.0;0.0;0.0;0.0;507.42900000000003;406.0;14.5604;510.501;415.909;0.0;14.0;1.0;-0.28596900000000003;-0.35425;-0.755825;-0.292952;-0.36152;-0.723;0.378539;0.396917;-0.790714;-0.349715;0.152417;-0.762306;0.0;0.0;0.0;0.0;0.0;0.0;0.0;0.0;0.0;0.0;675.0;304.0;1024.0;1024.0;1024.0;224.0;1024.0;1024.0;1024.0;1.0;4.0;0.0;0.0;0.0;0.0;0.0;;1970-01-01 00:00:00.198
5952.0;5967.0;0.0;-1.0;-1.0;-1.0;-1.0;-1.0;100.0;0.0;0.0;0.0;0.0;0.0;0.0;0.0;0.0;0.0;0.0;0.0;0.0;0.0;0.0;507.42900000000003;406.0;14.5604;510.501;415.909;0.0;14.0;1.0;-0.28596900000000003;-0.35425;-0.755825;-0.292952;-0.36152;-0.723;0.378539;0.396917;-0.790714;-0.349715;0.152417;-0.762306;0.0;0.0;0.0;0.0;0.0;0.0;0.0;0.0;0.0;0.0;675.0;304.0;1024.0;1024.0;1024.0;224.0;1024.0;1024.0;1024.0;1.0;4.0;0.0;0.0;0.0;0.0;0.0;;1970-01-01 00:00:00.209
5953.0;5968.0;0.0;-1.0;-1.0;-1.0;-1.0;-1.0;100.0;0.0;0.0;0.0;0.0;0.0;0.0;0.0;0.0;0.0;0.0;0.0;0.0;0.0;0.0;505.75;401.75;14.5363;508.793;411.077;0.0;15.0;1.0;-0.280674;-0.34534000000000004;-0.766504;-0.289269;-0.35667;-0.736051;0.34483800000000003;0.391477;-0.785987;-0.665043;0.134139;-0.677308;0.0;0.0;0.0;0.0;0.0;0.0;0.0;0.0;0.0;0.0;675.0;304.0;1024.0;1024.0;1024.0;224.0;1024.0;1024.0;1024.0;1.0;4.0;0.0;0.0;0.0;0.0;0.0;;1970-01-01 00:00:00.220
5954.0;5969.0;0.0;-1.0;-1.0;-1.0;-1.0;-1.0;100.0;0.0;0.0;0.0;0.0;0.0;0.0;0.0;0.0;0.0;0.0;0.0;0.0;0.0;0.0;504.0;396.57099999999997;14.5601;507.031;406.015;0.0;16.0;1.0;-0.27421100000000004;-0.32957;-0.776726;-0.28475100000000003;-0.34854;-0.748254;0.323391;0.406989;-0.773347;-0.911795;0.240302;-0.43694700000000003;0.0;0.0;0.0;0.0;0.0;0.0;0.0;0.0;0.0;0.0;675.0;304.0;1024.0;1024.0;1024.0;224.0;1024.0;1024.0;1024.0;1.0;4.0;0.0;0.0;0.0;0.0;0.0;;1970-01-01 00:00:00.231
5954.0;5969.0;0.0;-1.0;-1.0;-1.0;-1.0;-1.0;100.0;0.0;0.0;0.0;0.0;0.0;0.0;0.0;0.0;0.0;0.0;0.0;0.0;0.0;0.0;504.0;396.57099999999997;14.5601;507.031;406.015;0.0;16.0;1.0;-0.27421100000000004;-0.32957;-0.776726;-0.28475100000000003;-0.34854;-0.748254;0.323391;0.406989;-0.773347;-0.911795;0.240302;-0.43694700000000003;0.0;0.0;0.0;0.0;0.0;0.0;0.0;0.0;0.0;0.0;675.0;304.0;1024.0;1024.0;1024.0;224.0;1024.0;1024.0;1024.0;1.0;4.0;0.0;0.0;0.0;0.0;0.0;;1970-01-01 00:00:00.242
5955.0;5970.0;0.0;-1.0;-1.0;-1.0;-1.0;-1.0;100.0;0.0;0.0;0.0;0.0;0.0;0.0;0.0;0.0;0.0;0.0;0.0;0.0;0.0;0.0;502.25;391.75;14.6109;505.226;400.88800000000003;0.0;17.0;1.0;-0.26727399999999996;-0.31235999999999997;-0.784667;-0.279508;-0.33768000000000004;-0.759178;0.303716;0.431613;-0.755043;-1.09769;0.422892;-0.117274;0.0;0.0;0.0;0.0;0.0;0.0;0.0;0.0;0.0;0.0;675.0;304.0;1024.0;1024.0;1024.0;224.0;1024.0;1024.0;1024.0;1.0;4.0;0.0;0.0;0.0;0.0;0.0;;1970-01-01 00:00:00.253
5956.0;5971.0;0.0;-1.0;-1.0;-1.0;-1.0;-1.0;100.0;0.0;0.0;0.0;0.0;0.0;0.0;0.0;0.0;0.0;0.0;0.0;0.0;0.0;0.0;501.75;387.75;14.5893;503.765;395.95599999999996;0.0;18.0;1.0;-0.26595799999999997;-0.30384;-0.794672;-0.275443;-0.32753000000000004;-0.769826;0.285115;0.449583;-0.739445;-1.21627;0.585237;0.191724;0.0;0.0;0.0;0.0;0.0;0.0;0.0;0.0;0.0;0.0;675.0;304.0;1024.0;1024.0;1024.0;224.0;1024.0;1024.0;1024.0;1.0;4.0;0.0;0.0;0.0;0.0;0.0;;1970-01-01 00:00:00.264
5956.0;5971.0;0.0;-1.0;-1.0;-1.0;-1.0;-1.0;100.0;0.0;0.0;0.0;0.0;0.0;0.0;0.0;0.0;0.0;0.0;0.0;0.0;0.0;0.0;501.75;387.75;14.5893;503.765;395.95599999999996;0.0;18.0;1.0;-0.26595799999999997;-0.30384;-0.794672;-0.275443;-0.32753000000000004;-0.769826;0.285115;0.449583;-0.739445;-1.21627;0.585237;0.191724;0.0;0.0;0.0;0.0;0.0;0.0;0.0;0.0;0.0;0.0;675.0;304.0;1024.0;1024.0;1024.0;224.0;1024.0;1024.0;1024.0;1.0;4.0;0.0;0.0;0.0;0.0;0.0;;1970-01-01 00:00:00.275
5957.0;5972.0;0.0;-1.0;-1.0;-1.0;-1.0;-1.0;100.0;0.0;0.0;0.0;0.0;0.0;0.0;0.0;0.0;0.0;0.0;0.0;0.0;0.0;0.0;498.0;383.0;14.4452;501.58;390.94599999999997;0.0;19.0;1.0;-0.255643;-0.30430999999999997;-0.813207;-0.269503;-0.32056;-0.78284;0.276642;0.44573199999999996;-0.7387560000000001;-1.25569;0.5681109999999999;0.353745;0.0;0.0;0.0;0.0;0.0;0.0;0.0;0.0;0.0;0.0;675.0;304.0;1024.0;1024.0;1024.0;224.0;1024.0;1024.0;1024.0;1.0;4.0;0.0;0.0;0.0;0.0;0.0;;1970-01-01 00:00:00.286
5958.0;5973.0;0.0;-1.0;-1.0;-1.0;-1.0;-1.0;100.0;0.0;0.0;0.0;0.0;0.0;0.0;0.0;0.0;0.0;0.0;0.0;0.0;0.0;0.0;495.0;378.0;14.4999;499.088;385.801;0.0;20.0;1.0;-0.244342;-0.28623000000000004;-0.821259;-0.261955;-0.31026;-0.794366;0.289748;0.472104;-0.728193;-1.10792;0.641066;0.461872;0.0;0.0;0.0;0.0;0.0;0.0;0.0;0.0;0.0;0.0;675.0;304.0;1024.0;1024.0;1024.0;224.0;1024.0;1024.0;1024.0;1.0;4.0;0.0;0.0;0.0;0.0;0.0;;1970-01-01 00:00:00.297
5958.0;5973.0;0.0;-1.0;-1.0;-1.0;-1.0;-1.0;100.0;0.0;0.0;0.0;0.0;0.0;0.0;0.0;0.0;0.0;0.0;0.0;0.0;0.0;0.0;495.0;378.0;14.4999;499.088;385.801;0.0;20.0;1.0;-0.244342;-0.28623000000000004;-0.821259;-0.261955;-0.31026;-0.794366;0.289748;0.472104;-0.728193;-1.10792;0.641066;0.461872;0.0;0.0;0.0;0.0;0.0;0.0;0.0;0.0;0.0;0.0;675.0;304.0;1024.0;1024.0;1024.0;224.0;1024.0;1024.0;1024.0;1.0;4.0;0.0;0.0;0.0;0.0;0.0;;1970-01-01 00:00:00.308
5959.0;5974.0;0.0;-1.0;-1.0;-1.0;-1.0;-1.0;100.0;0.0;0.0;0.0;0.0;0.0;0.0;0.0;0.0;0.0;0.0;0.0;0.0;0.0;0.0;492.85699999999997;372.57099999999997;14.5456;496.63;380.43;0.0;21.0;1.0;-0.23621399999999998;-0.26795;-0.830715;-0.254232;-0.29757;-0.805271;0.313737;0.5192220000000001;-0.7132850000000001;-0.788932;0.8946850000000001;0.567397;0.0;0.0;0.0;0.0;0.0;0.0;0.0;0.0;0.0;0.0;675.0;304.0;1024.0;1024.0;1024.0;224.0;1024.0;1024.0;1024.0;1.0;4.0;0.0;0.0;0.0;0.0;0.0;;1970-01-01 00:00:00.319
5960.0;5975.0;0.0;-1.0;-1.0;-1.0;-1.0;-1.0;100.0;0.0;0.0;0.0;0.0;0.0;0.0;0.0;0.0;0.0;0.0;0.0;0.0;0.0;0.0;491.75;368.25;14.3975;494.515;375.231;0.0;22.0;1.0;-0.234803;-0.26954;-0.848943;-0.24840399999999999;-0.28916;-0.818372;0.333367;0.548608;-0.707932;-0.43352700000000005;1.10225;0.601619;0.0;0.0;0.0;0.0;0.0;0.0;0.0;0.0;0.0;0.0;675.0;304.0;1024.0;1024.0;1024.0;224.0;1024.0;1024.0;1024.0;1.0;4.0;0.0;0.0;0.0;0.0;0.0;;1970-01-01 00:00:00.330
5960.0;5975.0;0.0;-1.0;-1.0;-1.0;-1.0;-1.0;100.0;0.0;0.0;0.0;0.0;0.0;0.0;0.0;0.0;0.0;0.0;0.0;0.0;0.0;0.0;491.75;368.25;14.3975;494.515;375.231;0.0;22.0;1.0;-0.234803;-0.26954;-0.848943;-0.24840399999999999;-0.28916;-0.818372;0.333367;0.548608;-0.707932;-0.43352700000000005;1.10225;0.601619;0.0;0.0;0.0;0.0;0.0;0.0;0.0;0.0;0.0;0.0;675.0;304.0;1024.0;1024.0;1024.0;224.0;1024.0;1024.0;1024.0;1.0;4.0;0.0;0.0;0.0;0.0;0.0;;1970-01-01 00:00:00.341
5961.0;5976.0;0.0;-1.0;-1.0;-1.0;-1.0;-1.0;100.0;0.0;0.0;0.0;0.0;0.0;0.0;0.0;0.0;0.0;0.0;0.0;0.0;0.0;0.0;488.0;363.42900000000003;14.2945;491.843;370.009;0.0;23.0;1.0;-0.22338899999999998;-0.26582;-0.8659389999999999;-0.24089899999999997;-0.28215999999999997;-0.832642;0.354173;0.550858;-0.718079;-0.05865940000000001;1.1374600000000001;0.508558;0.0;0.0;0.0;0.0;0.0;0.0;0.0;0.0;0.0;0.0;675.0;304.0;1024.0;1024.0;1024.0;224.0;1024.0;1024.0;1024.0;1.0;4.0;0.0;0.0;0.0;0.0;0.0;;1970-01-01 00:00:00.352
5962.0;5977.0;0.0;-1.0;-1.0;-1.0;-1.0;-1.0;100.0;0.0;0.0;0.0;0.0;0.0;0.0;0.0;0.0;0.0;0.0;0.0;0.0;0.0;0.0;485.0;358.25;14.3891;488.995;364.662;0.0;24.0;1.0;-0.21150500000000003;-0.24377;-0.8718530000000001;-0.23208099999999998;-0.27064;-0.844405;0.385635;0.557656;-0.728618;0.366147;1.1139700000000001;0.348364;0.0;0.0;0.0;0.0;0.0;0.0;0.0;0.0;0.0;0.0;675.0;304.0;1024.0;1024.0;1024.0;224.0;1024.0;1024.0;1024.0;1.0;4.0;0.0;0.0;0.0;0.0;0.0;;1970-01-01 00:00:00.363
5963.0;5978.0;0.0;-1.0;-1.0;-1.0;-1.0;-1.0;100.0;0.0;0.0;0.0;0.0;0.0;0.0;0.0;0.0;0.0;0.0;0.0;0.0;0.0;0.0;483.333;354.222;14.3461;486.43;359.583;0.0;25.0;1.0;-0.20633400000000002;-0.23678000000000002;-0.883518;-0.22435700000000003;-0.26048000000000004;-0.856139;0.41163500000000003;0.574473;-0.729829;0.758667;1.1824;0.24466;0.0;0.0;0.0;0.0;0.0;0.0;0.0;0.0;0.0;0.0;675.0;304.0;1024.0;1024.0;1024.0;224.0;1024.0;1024.0;1024.0;1.0;4.0;0.0;0.0;0.0;0.0;0.0;;1970-01-01 00:00:00.374
5963.0;5978.0;0.0;-1.0;-1.0;-1.0;-1.0;-1.0;100.0;0.0;0.0;0.0;0.0;0.0;0.0;0.0;0.0;0.0;0.0;0.0;0.0;0.0;0.0;483.333;354.222;14.3461;486.43;359.583;0.0;25.0;1.0;-0.20633400000000002;-0.23678000000000002;-0.883518;-0.22435700000000003;-0.26048000000000004;-0.856139;0.41163500000000003;0.574473;-0.729829;0.758667;1.1824;0.24466;0.0;0.0;0.0;0.0;0.0;0.0;0.0;0.0;0.0;0.0;675.0;304.0;1024.0;1024.0;1024.0;224.0;1024.0;1024.0;1024.0;1.0;4.0;0.0;0.0;0.0;0.0;0.0;;1970-01-01 00:00:00.385
5964.0;5979.0;0.0;-1.0;-1.0;-1.0;-1.0;-1.0;100.0;0.0;0.0;0.0;0.0;0.0;0.0;0.0;0.0;0.0;0.0;0.0;0.0;0.0;0.0;481.42900000000003;350.0;14.1974;484.001;354.64300000000003;0.0;26.0;1.0;-0.201794;-0.2384;-0.902367;-0.217588;-0.25386;-0.870008;0.424122;0.569894;-0.739911;0.9917100000000001;1.09988;0.100011;0.0;0.0;0.0;0.0;0.0;0.0;0.0;0.0;0.0;0.0;675.0;304.0;1024.0;1024.0;1024.0;224.0;1024.0;1024.0;1024.0;1.0;4.0;0.0;0.0;0.0;0.0;0.0;;1970-01-01 00:00:00.396
5965.0;5980.0;0.0;-1.0;-1.0;-1.0;-1.0;-1.0;100.0;0.0;0.0;0.0;0.0;0.0;0.0;0.0;0.0;0.0;0.0;0.0;0.0;0.0;0.0;478.25;344.25;14.1152;481.278;349.334;0.0;27.0;1.0;-0.191719;-0.23006;-0.920758;-0.20982699999999999;-0.24672;-0.885233;0.43176899999999996;0.544962;-0.763209;1.06629;0.7627010000000001;-0.139324;0.0;0.0;0.0;0.0;0.0;0.0;0.0;0.0;0.0;0.0;675.0;304.0;1024.0;1024.0;1024.0;224.0;1024.0;1024.0;1024.0;1.0;4.0;0.0;0.0;0.0;0.0;0.0;;1970-01-01 00:00:00.407
5965.0;5980.0;0.0;-1.0;-1.0;-1.0;-1.0;-1.0;100.0;0.0;0.0;0.0;0.0;0.0;0.0;0.0;0.0;0.0;0.0;0.0;0.0;0.0;0.0;478.25;344.25;14.1152;481.278;349.334;0.0;27.0;1.0;-0.191719;-0.23006;-0.920758;-0.20982699999999999;-0.24672;-0.885233;0.43176899999999996;0.544962;-0.763209;1.06629;0.7627010000000001;-0.139324;0.0;0.0;0.0;0.0;0.0;0.0;0.0;0.0;0.0;0.0;675.0;304.0;1024.0;1024.0;1024.0;224.0;1024.0;1024.0;1024.0;1.0;4.0;0.0;0.0;0.0;0.0;0.0;;1970-01-01 00:00:00.418
5966.0;5981.0;0.0;-1.0;-1.0;-1.0;-1.0;-1.0;100.0;0.0;0.0;0.0;0.0;0.0;0.0;0.0;0.0;0.0;0.0;0.0;0.0;0.0;0.0;475.42900000000003;340.0;14.1791;478.45300000000003;344.225;0.0;28.0;1.0;-0.18091400000000002;-0.21308000000000002;-0.926276;-0.201153;-0.23663;-0.897546;0.44771700000000003;0.536723;-0.774039;1.0963399999999999;0.41016400000000003;-0.347541;0.0;0.0;0.0;0.0;0.0;0.0;0.0;0.0;0.0;0.0;675.0;304.0;1024.0;1024.0;1024.0;224.0;1024.0;1024.0;1024.0;1.0;4.0;0.0;0.0;0.0;0.0;0.0;;1970-01-01 00:00:00.429
5967.0;5982.0;0.0;-1.0;-1.0;-1.0;-1.0;-1.0;100.0;0.0;0.0;0.0;0.0;0.0;0.0;0.0;0.0;0.0;0.0;0.0;0.0;0.0;0.0;474.25;335.75;14.1321;476.06800000000004;339.267;0.0;29.0;1.0;-0.17735;-0.20565;-0.939058;-0.194012;-0.22733000000000003;-0.91;0.45583599999999996;0.540932;-0.7732859999999999;1.06371;0.206467;-0.428951;0.0;0.0;0.0;0.0;0.0;0.0;0.0;0.0;0.0;0.0;675.0;304.0;1024.0;1024.0;1024.0;224.0;1024.0;1024.0;1024.0;1.0;4.0;0.0;0.0;0.0;0.0;0.0;;1970-01-01 00:00:00.440
5967.0;5982.0;0.0;-1.0;-1.0;-1.0;-1.0;-1.0;100.0;0.0;0.0;0.0;0.0;0.0;0.0;0.0;0.0;0.0;0.0;0.0;0.0;0.0;0.0;474.25;335.75;14.1321;476.06800000000004;339.267;0.0;29.0;1.0;-0.17735;-0.20565;-0.939058;-0.194012;-0.22733000000000003;-0.91;0.45583599999999996;0.540932;-0.7732859999999999;1.06371;0.206467;-0.428951;0.0;0.0;0.0;0.0;0.0;0.0;0.0;0.0;0.0;0.0;675.0;304.0;1024.0;1024.0;1024.0;224.0;1024.0;1024.0;1024.0;1.0;4.0;0.0;0.0;0.0;0.0;0.0;;1970-01-01 00:00:00.451
5968.0;5983.0;0.0;-1.0;-1.0;-1.0;-1.0;-1.0;100.0;0.0;0.0;0.0;0.0;0.0;0.0;0.0;0.0;0.0;0.0;0.0;0.0;0.0;0.0;473.42900000000003;330.0;13.9629;474.11800000000005;333.954;0.0;30.0;1.0;-0.17656;-0.20455;-0.96372;-0.188776;-0.2205;-0.9261159999999999;0.446402;0.52477;-0.7902140000000001;0.880848;-0.00742257;-0.503301;0.0;0.0;0.0;0.0;0.0;0.0;0.0;0.0;0.0;0.0;675.0;304.0;1024.0;1024.0;1024.0;224.0;1024.0;1024.0;1024.0;1.0;4.0;0.0;0.0;0.0;0.0;0.0;;1970-01-01 00:00:00.462
5969.0;5984.0;0.0;-1.0;-1.0;-1.0;-1.0;-1.0;100.0;0.0;0.0;0.0;0.0;0.0;0.0;0.0;0.0;0.0;0.0;0.0;0.0;0.0;0.0;471.6;325.0;13.8785;472.17199999999997;328.62;0.0;31.0;1.0;-0.171051;-0.19812000000000002;-0.981194;-0.18345899999999998;-0.21379;-0.9426389999999999;0.43113500000000005;0.501317;-0.8194950000000001;0.606366;-0.29654400000000003;-0.659986;0.0;0.0;0.0;0.0;0.0;0.0;0.0;0.0;0.0;0.0;675.0;304.0;1024.0;1024.0;1024.0;224.0;1024.0;1024.0;1024.0;1.0;4.0;0.0;0.0;0.0;0.0;0.0;;1970-01-01 00:00:00.473
5969.0;5984.0;0.0;-1.0;-1.0;-1.0;-1.0;-1.0;100.0;0.0;0.0;0.0;0.0;0.0;0.0;0.0;0.0;0.0;0.0;0.0;0.0;0.0;0.0;471.6;325.0;13.8785;472.17199999999997;328.62;0.0;31.0;1.0;-0.171051;-0.19812000000000002;-0.981194;-0.18345899999999998;-0.21379;-0.9426389999999999;0.43113500000000005;0.501317;-0.8194950000000001;0.606366;-0.29654400000000003;-0.659986;0.0;0.0;0.0;0.0;0.0;0.0;0.0;0.0;0.0;0.0;675.0;304.0;1024.0;1024.0;1024.0;224.0;1024.0;1024.0;1024.0;1.0;4.0;0.0;0.0;0.0;0.0;0.0;;1970-01-01 00:00:00.484
5970.0;5985.0;0.0;-1.0;-1.0;-1.0;-1.0;-1.0;100.0;0.0;0.0;0.0;0.0;0.0;0.0;0.0;0.0;0.0;0.0;0.0;0.0;0.0;0.0;469.42900000000003;320.0;13.855;470.12300000000005;323.276;0.0;32.0;1.0;-0.163512;-0.18639;-0.994503;-0.177475;-0.20556999999999997;-0.958198;0.41884;0.49359899999999995;-0.843814;0.34273000000000003;-0.48254600000000003;-0.8108420000000001;0.0;0.0;0.0;0.0;0.0;0.0;0.0;0.0;0.0;0.0;675.0;304.0;1024.0;1024.0;1024.0;224.0;1024.0;1024.0;1024.0;1.0;4.0;0.0;0.0;0.0;0.0;0.0;;1970-01-01 00:00:00.495
5971.0;5986.0;0.0;-1.0;-1.0;-1.0;-1.0;-1.0;100.0;0.0;0.0;0.0;0.0;0.0;0.0;0.0;0.0;0.0;0.0;0.0;0.0;0.0;0.0;468.25;315.75;14.0357;468.31199999999995;318.16200000000003;0.0;33.0;1.0;-0.157211;-0.15955999999999998;-0.9914620000000001;-0.171396;-0.19177;-0.9681770000000001;0.404748;0.515573;-0.8374590000000001;0.09775239999999999;-0.40687;-0.782959;0.0;0.0;0.0;0.0;0.0;0.0;0.0;0.0;0.0;0.0;675.0;304.0;1024.0;1024.0;1024.0;224.0;1024.0;1024.0;1024.0;1.0;4.0;0.0;0.0;0.0;0.0;0.0;;1970-01-01 00:00:00.506
5971.0;5986.0;0.0;-1.0;-1.0;-1.0;-1.0;-1.0;100.0;0.0;0.0;0.0;0.0;0.0;0.0;0.0;0.0;0.0;0.0;0.0;0.0;0.0;0.0;468.25;315.75;14.0357;468.31199999999995;318.16200000000003;0.0;33.0;1.0;-0.157211;-0.15955999999999998;-0.9914620000000001;-0.171396;-0.19177;-0.9681770000000001;0.404748;0.515573;-0.8374590000000001;0.09775239999999999;-0.40687;-0.782959;0.0;0.0;0.0;0.0;0.0;0.0;0.0;0.0;0.0;0.0;675.0;304.0;1024.0;1024.0;1024.0;224.0;1024.0;1024.0;1024.0;1.0;4.0;0.0;0.0;0.0;0.0;0.0;;1970-01-01 00:00:00.517
5972.0;5987.0;0.0;-1.0;-1.0;-1.0;-1.0;-1.0;100.0;0.0;0.0;0.0;0.0;0.0;0.0;0.0;0.0;0.0;0.0;0.0;0.0;0.0;0.0;468.0;311.42900000000003;13.8007;466.968;313.2;0.0;34.0;1.0;-0.15898299999999999;-0.16735999999999998;-1.01844;-0.16767200000000002;-0.18444000000000002;-0.9832569999999999;0.37652800000000003;0.517701;-0.844693;-0.225582;-0.320067;-0.7518739999999999;0.0;0.0;0.0;0.0;0.0;0.0;0.0;0.0;0.0;0.0;675.0;304.0;1024.0;1024.0;1024.0;224.0;1024.0;1024.0;1024.0;1.0;4.0;0.0;0.0;0.0;0.0;0.0;;1970-01-01 00:00:00.528
5973.0;5988.0;0.0;-1.0;-1.0;-1.0;-1.0;-1.0;100.0;0.0;0.0;0.0;0.0;0.0;0.0;0.0;0.0;0.0;0.0;0.0;0.0;0.0;0.0;466.0;306.4;13.6671;465.413;308.128;0.0;35.0;1.0;-0.153227;-0.16473;-1.04027;-0.163338;-0.17853;-1.0003600000000001;0.348387;0.5054770000000001;-0.8675959999999999;-0.5643560000000001;-0.3336;-0.8276709999999999;0.0;0.0;0.0;0.0;0.0;0.0;0.0;0.0;0.0;0.0;675.0;304.0;1024.0;1024.0;1024.0;224.0;1024.0;1024.0;1024.0;1.0;4.0;0.0;0.0;0.0;0.0;0.0;;1970-01-01 00:00:00.539
5974.0;5989.0;0.0;-1.0;-1.0;-1.0;-1.0;-1.0;100.0;0.0;0.0;0.0;0.0;0.0;0.0;0.0;0.0;0.0;0.0;0.0;0.0;0.0;0.0;463.091;301.27299999999997;13.7157;463.417;302.948;0.0;36.0;1.0;-0.14208900000000002;-0.14635;-1.04864;-0.15696400000000002;-0.16888;-1.01484;0.33605100000000004;0.509394;-0.874822;-0.779211;-0.261549;-0.834417;0.0;0.0;0.0;0.0;0.0;0.0;0.0;0.0;0.0;0.0;675.0;304.0;1024.0;1024.0;1024.0;224.0;1024.0;1024.0;1024.0;1.0;4.0;0.0;0.0;0.0;0.0;0.0;;1970-01-01 00:00:00.550
5974.0;5989.0;0.0;-1.0;-1.0;-1.0;-1.0;-1.0;100.0;0.0;0.0;0.0;0.0;0.0;0.0;0.0;0.0;0.0;0.0;0.0;0.0;0.0;0.0;463.091;301.27299999999997;13.7157;463.417;302.948;0.0;36.0;1.0;-0.14208900000000002;-0.14635;-1.04864;-0.15696400000000002;-0.16888;-1.01484;0.33605100000000004;0.509394;-0.874822;-0.779211;-0.261549;-0.834417;0.0;0.0;0.0;0.0;0.0;0.0;0.0;0.0;0.0;0.0;675.0;304.0;1024.0;1024.0;1024.0;224.0;1024.0;1024.0;1024.0;1.0;4.0;0.0;0.0;0.0;0.0;0.0;;1970-01-01 00:00:00.561
5975.0;5990.0;0.0;-1.0;-1.0;-1.0;-1.0;-1.0;100.0;0.0;0.0;0.0;0.0;0.0;0.0;0.0;0.0;0.0;0.0;0.0;0.0;0.0;0.0;461.75;296.25;13.9477;461.598;297.726;0.0;37.0;1.0;-0.13492200000000001;-0.11354000000000002;-1.04281;-0.150351;-0.15228;-1.0232299999999999;0.333818;0.551219;-0.846685;-0.856081;0.042314199999999996;-0.609213;0.0;0.0;0.0;0.0;0.0;0.0;0.0;0.0;0.0;0.0;675.0;304.0;1024.0;1024.0;1024.0;224.0;1024.0;1024.0;1024.0;1.0;4.0;0.0;0.0;0.0;0.0;0.0;;1970-01-01 00:00:00.572
5976.0;5991.0;0.0;-1.0;-1.0;-1.0;-1.0;-1.0;100.0;0.0;0.0;0.0;0.0;0.0;0.0;0.0;0.0;0.0;0.0;0.0;0.0;0.0;0.0;460.0;292.0;13.6225;459.778;292.722;0.0;38.0;1.0;-0.131725;-0.12822;-1.0777700000000001;-0.144763;-0.14506;-1.0396;0.330896;0.572314;-0.833002;-0.864783;0.339672;-0.322359;0.0;0.0;0.0;0.0;0.0;0.0;0.0;0.0;0.0;0.0;675.0;304.0;1024.0;1024.0;1024.0;224.0;1024.0;1024.0;1024.0;1.0;4.0;0.0;0.0;0.0;0.0;0.0;;1970-01-01 00:00:00.583
5976.0;5991.0;0.0;-1.0;-1.0;-1.0;-1.0;-1.0;100.0;0.0;0.0;0.0;0.0;0.0;0.0;0.0;0.0;0.0;0.0;0.0;0.0;0.0;0.0;460.0;292.0;13.6225;459.778;292.722;0.0;38.0;1.0;-0.131725;-0.12822;-1.0777700000000001;-0.144763;-0.14506;-1.0396;0.330896;0.572314;-0.833002;-0.864783;0.339672;-0.322359;0.0;0.0;0.0;0.0;0.0;0.0;0.0;0.0;0.0;0.0;675.0;304.0;1024.0;1024.0;1024.0;224.0;1024.0;1024.0;1024.0;1.0;4.0;0.0;0.0;0.0;0.0;0.0;;1970-01-01 00:00:00.594
5977.0;5992.0;0.0;-1.0;-1.0;-1.0;-1.0;-1.0;100.0;0.0;0.0;0.0;0.0;0.0;0.0;0.0;0.0;0.0;0.0;0.0;0.0;0.0;0.0;457.0;288.0;13.5525;457.56300000000005;287.959;0.0;39.0;1.0;-0.121347;-0.12279000000000001;-1.09285;-0.137739;-0.13838;-1.0555700000000001;0.332919;0.5565439999999999;-0.8487399999999999;-0.80566;0.36738699999999996;-0.238456;0.0;0.0;0.0;0.0;0.0;0.0;0.0;0.0;0.0;0.0;675.0;580.0;1088.0;897.0;1024.0;224.0;1024.0;1024.0;1024.0;1.0;4.0;0.0;0.0;0.0;0.0;0.0;;1970-01-01 00:00:00.605
5978.0;5993.0;0.0;-1.0;-1.0;-1.0;-1.0;-1.0;101.0;0.0;0.0;0.0;0.0;0.0;0.0;0.0;0.0;0.0;0.0;0.0;0.0;0.0;0.0;454.0;282.57099999999997;13.6109;455.06199999999995;282.921;0.0;40.0;1.0;-0.10981600000000001;-0.10275999999999999;-1.10103;-0.12936199999999998;-0.12769;-1.06921;0.352713;0.560517;-0.8524229999999999;-0.578485;0.39138;-0.173934;0.0;0.0;0.0;0.0;-0.009514100000000001;-1.20276;-1.35674;0.0;0.0;0.0;675.0;580.0;1085.0;900.0;1024.0;224.0;1024.0;1024.0;1024.0;1.0;4.0;0.0;0.0;0.0;0.0;0.0;;1970-01-01 00:00:00.616
5978.0;5993.0;0.0;-1.0;-1.0;-1.0;-1.0;-1.0;101.0;0.0;0.0;0.0;0.0;0.0;0.0;0.0;0.0;0.0;0.0;0.0;0.0;0.0;0.0;454.0;282.57099999999997;13.6109;455.06199999999995;282.921;0.0;40.0;1.0;-0.10981600000000001;-0.10275999999999999;-1.10103;-0.12936199999999998;-0.12769;-1.06921;0.352713;0.560517;-0.8524229999999999;-0.578485;0.39138;-0.173934;0.0;0.0;0.0;0.0;-0.009514100000000001;-1.20276;-1.35674;0.0;0.0;0.0;675.0;580.0;1085.0;900.0;1024.0;224.0;1024.0;1024.0;1024.0;1.0;4.0;0.0;0.0;0.0;0.0;0.0;;1970-01-01 00:00:00.627
5979.0;5994.0;0.0;-1.0;-1.0;-1.0;-1.0;-1.0;102.0;0.0;0.0;0.0;0.0;0.0;0.0;0.0;0.0;0.0;0.0;0.0;0.0;0.0;0.0;452.0;278.4;13.745;452.67199999999997;278.085;0.0;41.0;1.0;-0.101475;-0.08042;-1.10007;-0.120996;-0.11350999999999999;-1.07847;0.380689;0.595919;-0.8233159999999999;-0.218119;0.595932;0.0724354;0.0;0.0;0.0;0.0;0.00859585;-1.18042;-1.36609;0.0;0.0;0.0;675.0;580.0;1083.0;902.0;1024.0;224.0;1024.0;1024.0;1024.0;1.0;4.0;0.0;0.0;0.0;0.0;0.0;;1970-01-01 00:00:00.638
5980.0;5995.0;0.0;-1.0;-1.0;-1.0;-1.0;-1.0;103.0;0.0;0.0;0.0;0.0;0.0;0.0;0.0;0.0;0.0;0.0;0.0;0.0;0.0;0.0;449.0;275.0;13.4961;450.04699999999997;273.643;0.0;42.0;1.0;-0.0922412;-0.09072999999999999;-1.12848;-0.11236900000000001;-0.10668;-1.0934700000000002;0.406464;0.6059;-0.80793;0.150267;0.742876;0.310541;0.0;0.0;0.0;0.0;0.0282598;-1.1907299999999998;-1.38909;0.0;0.0;0.0;675.0;580.0;1082.0;905.0;1024.0;224.0;1024.0;1024.0;1024.0;1.0;4.0;0.0;0.0;0.0;0.0;0.0;;1970-01-01 00:00:00.649
5980.0;5995.0;0.0;-1.0;-1.0;-1.0;-1.0;-1.0;103.0;0.0;0.0;0.0;0.0;0.0;0.0;0.0;0.0;0.0;0.0;0.0;0.0;0.0;0.0;449.0;275.0;13.4961;450.04699999999997;273.643;0.0;42.0;1.0;-0.0922412;-0.09072999999999999;-1.12848;-0.11236900000000001;-0.10668;-1.0934700000000002;0.406464;0.6059;-0.80793;0.150267;0.742876;0.310541;0.0;0.0;0.0;0.0;0.0282598;-1.1907299999999998;-1.38909;0.0;0.0;0.0;675.0;580.0;1082.0;905.0;1024.0;224.0;1024.0;1024.0;1024.0;1.0;4.0;0.0;0.0;0.0;0.0;0.0;;1970-01-01 00:00:00.660
5981.0;5996.0;0.0;-1.0;-1.0;-1.0;-1.0;-1.0;104.0;0.0;0.0;0.0;0.0;0.0;0.0;0.0;0.0;0.0;0.0;0.0;0.0;0.0;0.0;445.667;271.66700000000003;13.6172;447.147;269.51099999999997;0.0;43.0;1.0;-0.079192;-0.07169;-1.12634;-0.10241600000000001;-0.09618;-1.10333;0.43526800000000004;0.587516;-0.804571;0.49521899999999996;0.590646;0.354476;0.0;0.0;0.0;0.0;0.053465099999999995;-1.17169;-1.3900299999999999;0.0;0.0;0.0;675.0;580.0;1079.0;907.0;1024.0;224.0;1024.0;1024.0;1024.0;1.0;4.0;0.0;0.0;0.0;0.0;0.0;;1970-01-01 00:00:00.671
5982.0;5997.0;0.0;-1.0;-1.0;-1.0;-1.0;-1.0;105.0;0.0;0.0;0.0;0.0;0.0;0.0;0.0;0.0;0.0;0.0;0.0;0.0;0.0;0.0;441.75;268.25;13.5117;443.86400000000003;265.579;0.0;44.0;1.0;-0.0653294;-0.07042000000000001;-1.1433;-0.09129010000000001;-0.08845;-1.11532;0.474662;0.578533;-0.7851020000000001;0.8711450000000001;0.37922100000000003;0.403932;0.0;0.0;0.0;0.0;0.0799658;-1.17042;-1.4118700000000002;0.0;0.0;0.0;675.0;580.0;1077.0;909.0;1024.0;224.0;1024.0;1024.0;1024.0;1.0;4.0;0.0;0.0;0.0;0.0;0.0;;1970-01-01 00:00:00.682
5982.0;5997.0;0.0;-1.0;-1.0;-1.0;-1.0;-1.0;105.0;0.0;0.0;0.0;0.0;0.0;0.0;0.0;0.0;0.0;0.0;0.0;0.0;0.0;0.0;441.75;268.25;13.5117;443.86400000000003;265.579;0.0;44.0;1.0;-0.0653294;-0.07042000000000001;-1.1433;-0.09129010000000001;-0.08845;-1.11532;0.474662;0.578533;-0.7851020000000001;0.8711450000000001;0.37922100000000003;0.403932;0.0;0.0;0.0;0.0;0.0799658;-1.17042;-1.4118700000000002;0.0;0.0;0.0;675.0;580.0;1077.0;909.0;1024.0;224.0;1024.0;1024.0;1024.0;1.0;4.0;0.0;0.0;0.0;0.0;0.0;;1970-01-01 00:00:00.693
5983.0;5998.0;0.0;-1.0;-1.0;-1.0;-1.0;-1.0;106.0;0.0;0.0;0.0;0.0;0.0;0.0;0.0;0.0;0.0;0.0;0.0;0.0;0.0;0.0;438.0;266.57099999999997;13.4412;440.36;262.346;0.0;45.0;1.0;-0.0517341;-0.07126;-1.1533200000000001;-0.0794233;-0.08329;-1.1267200000000002;0.5176310000000001;0.567056;-0.755139;1.2601799999999999;0.269503;0.616075;0.0;0.0;0.0;0.0;0.110202;-1.17126;-1.42116;0.0;0.0;0.0;675.0;1824.0;1077.0;909.0;1024.0;224.0;1024.0;1024.0;1024.0;1.0;4.0;0.0;0.0;0.0;0.0;0.0;;1970-01-01 00:00:00.704
5984.0;5999.0;0.0;-1.0;-1.0;-1.0;-1.0;-1.0;107.0;0.0;0.0;0.0;0.0;0.0;0.0;0.0;0.0;0.0;0.0;0.0;0.0;0.0;0.0;435.0;263.0;13.357000000000001;436.935;259.019;0.0;46.0;1.0;-0.0408399;-0.06781000000000001;-1.16921;-0.0678483;-0.07865;-1.13947;0.556181;0.536043;-0.733608;1.56849;0.06398490000000001;0.844031;0.0;0.0;0.0;0.0;0.139543;-1.16781;-1.43236;0.0;0.0;0.0;675.0;1824.0;1077.0;909.0;1024.0;224.0;1024.0;1024.0;1024.0;1.0;4.0;0.0;0.0;0.0;0.0;0.0;;1970-01-01 00:00:00.715
5985.0;6000.0;0.0;-1.0;-1.0;-1.0;-1.0;-1.0;108.0;0.0;0.0;0.0;0.0;0.0;0.0;0.0;0.0;0.0;0.0;0.0;0.0;0.0;0.0;431.0;262.0;13.0768;433.254;256.44;0.0;47.0;1.0;-0.0264339;-0.08778;-1.1967299999999998;-0.055423900000000005;-0.08139;-1.15665;0.595515;0.449876;-0.752311;1.79882;-0.544708;0.7899189999999999;0.0;0.0;0.0;0.0;0.169856;-1.1877799999999998;-1.45564;0.0;0.0;0.0;675.0;1824.0;1077.0;909.0;1024.0;224.0;1024.0;1024.0;1024.0;1.0;4.0;0.0;0.0;0.0;0.0;0.0;;1970-01-01 00:00:00.726
5985.0;6000.0;0.0;-1.0;-1.0;-1.0;-1.0;-1.0;108.0;0.0;0.0;0.0;0.0;0.0;0.0;0.0;0.0;0.0;0.0;0.0;0.0;0.0;0.0;431.0;262.0;13.0768;433.254;256.44;0.0;47.0;1.0;-0.0264339;-0.08778;-1.1967299999999998;-0.055423900000000005;-0.08139;-1.15665;0.595515;0.449876;-0.752311;1.79882;-0.544708;0.7899189999999999;0.0;0.0;0.0;0.0;0.169856;-1.1877799999999998;-1.45564;0.0;0.0;0.0;675.0;1824.0;1077.0;909.0;1024.0;224.0;1024.0;1024.0;1024.0;1.0;4.0;0.0;0.0;0.0;0.0;0.0;;1970-01-01 00:00:00.737
5986.0;6001.0;0.0;-1.0;-1.0;-1.0;-1.0;-1.0;109.0;0.0;0.0;0.0;0.0;0.0;0.0;0.0;0.0;0.0;0.0;0.0;0.0;0.0;0.0;426.667;259.778;13.210999999999999;429.284;254.016;0.0;48.0;1.0;-0.0097789;-0.07031;-1.19;-0.0417304;-0.07806;-1.16665;0.639346;0.38416;-0.743574;2.0091200000000002;-1.2121600000000001;0.7309060000000001;0.0;0.0;0.0;0.0;0.207452;-1.17031;-1.46443;0.0;0.0;0.0;675.0;1824.0;1077.0;909.0;1024.0;224.0;1024.0;1024.0;1024.0;1.0;4.0;0.0;0.0;0.0;0.0;0.0;;1970-01-01 00:00:00.748
5987.0;6002.0;0.0;-1.0;-1.0;-1.0;-1.0;-1.0;110.0;0.0;0.0;0.0;0.0;0.0;0.0;0.0;0.0;0.0;0.0;0.0;0.0;0.0;0.0;423.42900000000003;260.0;12.8737;425.45599999999996;252.479;0.0;49.0;1.0;0.00253052;-0.09902000000000001;-1.2206299999999999;-0.028452099999999998;-0.08435;-1.18285;0.678921;0.27773000000000003;-0.76361;2.1783;-1.96417;0.602086;0.0;0.0;0.0;0.0;0.23836300000000002;-1.19902;-1.49491;0.0;0.0;0.0;675.0;1824.0;1077.0;909.0;1024.0;224.0;1024.0;1024.0;1024.0;1.0;4.0;0.0;0.0;0.0;0.0;0.0;;1970-01-01 00:00:00.759
5987.0;6002.0;0.0;-1.0;-1.0;-1.0;-1.0;-1.0;110.0;0.0;0.0;0.0;0.0;0.0;0.0;0.0;0.0;0.0;0.0;0.0;0.0;0.0;0.0;423.42900000000003;260.0;12.8737;425.45599999999996;252.479;0.0;49.0;1.0;0.00253052;-0.09902000000000001;-1.2206299999999999;-0.028452099999999998;-0.08435;-1.18285;0.678921;0.27773000000000003;-0.76361;2.1783;-1.96417;0.602086;0.0;0.0;0.0;0.0;0.23836300000000002;-1.19902;-1.49491;0.0;0.0;0.0;675.0;1824.0;1077.0;909.0;1024.0;224.0;1024.0;1024.0;1024.0;1.0;4.0;0.0;0.0;0.0;0.0;0.0;;1970-01-01 00:00:00.770
5988.0;6003.0;0.0;-1.0;-1.0;-1.0;-1.0;-1.0;111.0;0.0;0.0;0.0;0.0;0.0;0.0;0.0;0.0;0.0;0.0;0.0;0.0;0.0;0.0;418.222;258.66700000000003;12.6482;421.10900000000004;251.09;0.0;50.0;1.0;0.0231392;-0.11458;-1.2457799999999999;-0.012974700000000002;-0.09342;-1.20173;0.72004;0.146798;-0.803149;2.28669;-2.9022799999999997;0.289196;0.0;0.0;0.0;0.0;0.277952;-1.21458;-1.5323799999999999;0.0;0.0;0.0;675.0;1824.0;1077.0;909.0;1024.0;224.0;1024.0;1024.0;1024.0;1.0;4.0;0.0;0.0;0.0;0.0;0.0;;1970-01-01 00:00:00.781
5989.0;6004.0;0.0;-1.0;-1.0;-1.0;-1.0;-1.0;112.0;0.0;0.0;0.0;0.0;0.0;0.0;0.0;0.0;0.0;0.0;0.0;0.0;0.0;0.0;414.0;258.0;12.6418;416.702;250.016;0.0;51.0;1.0;0.039836199999999995;-0.11314;-1.2481200000000001;0.00286856;-0.09934;-1.21565;0.760588;0.0240295;-0.836933;2.34206;-3.9094900000000004;-0.153057;0.0;0.0;0.0;0.0;0.31761100000000003;-1.2131399999999999;-1.55796;0.0;0.0;0.0;675.0;1824.0;1077.0;909.0;1024.0;224.0;1024.0;1024.0;1024.0;1.0;4.0;0.0;0.0;0.0;0.0;0.0;;1970-01-01 00:00:00.792
5989.0;6004.0;0.0;-1.0;-1.0;-1.0;-1.0;-1.0;112.0;0.0;0.0;0.0;0.0;0.0;0.0;0.0;0.0;0.0;0.0;0.0;0.0;0.0;0.0;414.0;258.0;12.6418;416.702;250.016;0.0;51.0;1.0;0.039836199999999995;-0.11314;-1.2481200000000001;0.00286856;-0.09934;-1.21565;0.760588;0.0240295;-0.836933;2.34206;-3.9094900000000004;-0.153057;0.0;0.0;0.0;0.0;0.31761100000000003;-1.2131399999999999;-1.55796;0.0;0.0;0.0;675.0;1824.0;1077.0;909.0;1024.0;224.0;1024.0;1024.0;1024.0;1.0;4.0;0.0;0.0;0.0;0.0;0.0;;1970-01-01 00:00:00.803
5990.0;6005.0;0.0;-1.0;-1.0;-1.0;-1.0;-1.0;113.0;0.0;0.0;0.0;0.0;0.0;0.0;0.0;0.0;0.0;0.0;0.0;0.0;0.0;0.0;407.0;259.0;12.5664;411.371;249.69799999999998;0.0;52.0;1.0;0.06790310000000001;-0.12285;-1.25304;0.0223789;-0.10639000000000001;-1.22686;0.816601;-0.09633660000000001;-0.851093;2.44501;-4.87058;-0.56091;0.0;0.0;0.0;0.0;0.36793000000000003;-1.22285;-1.58318;0.0;0.0;0.0;675.0;1824.0;1077.0;909.0;1024.0;224.0;1024.0;1024.0;1024.0;1.0;4.0;0.0;0.0;0.0;0.0;0.0;;1970-01-01 00:00:00.814
5991.0;6006.0;0.0;-1.0;-1.0;-1.0;-1.0;-1.0;114.0;0.0;0.0;0.0;0.0;0.0;0.0;0.0;0.0;0.0;0.0;0.0;0.0;0.0;0.0;402.0;260.0;12.5404;406.01199999999994;249.923;0.0;53.0;1.0;0.0879625;-0.12822;-1.25306;0.042054;-0.11294000000000001;-1.23472;0.879158;-0.183772;-0.822383;2.5995;-5.4522900000000005;-0.61632;0.0;0.0;0.0;0.0;0.417862;-1.22822;-1.5969;0.0;0.0;0.0;675.0;1824.0;1077.0;909.0;1024.0;224.0;1024.0;1024.0;1024.0;1.0;4.0;0.0;0.0;0.0;0.0;0.0;;1970-01-01 00:00:00.825
5991.0;6006.0;0.0;-1.0;-1.0;-1.0;-1.0;-1.0;114.0;0.0;0.0;0.0;0.0;0.0;0.0;0.0;0.0;0.0;0.0;0.0;0.0;0.0;0.0;402.0;260.0;12.5404;406.01199999999994;249.923;0.0;53.0;1.0;0.0879625;-0.12822;-1.25306;0.042054;-0.11294000000000001;-1.23472;0.879158;-0.183772;-0.822383;2.5995;-5.4522900000000005;-0.61632;0.0;0.0;0.0;0.0;0.417862;-1.22822;-1.5969;0.0;0.0;0.0;675.0;1824.0;1077.0;909.0;1024.0;224.0;1024.0;1024.0;1024.0;1.0;4.0;0.0;0.0;0.0;0.0;0.0;;1970-01-01 00:00:00.836
5992.0;6007.0;0.0;-1.0;-1.0;-1.0;-1.0;-1.0;115.0;0.0;0.0;0.0;0.0;0.0;0.0;0.0;0.0;0.0;0.0;0.0;0.0;0.0;0.0;397.0;262.4;12.6229;400.63699999999994;250.984;0.0;54.0;1.0;0.107176;-0.1281;-1.23874;0.0615905;-0.11749000000000001;-1.23593;0.9400209999999999;-0.267662;-0.770019;2.76019;-5.87389;-0.47538;0.0;0.0;0.0;0.0;0.471196;-1.2281;-1.57925;0.0;0.0;0.0;675.0;1824.0;1077.0;909.0;1024.0;224.0;1024.0;1024.0;1024.0;1.0;4.0;0.0;0.0;0.0;0.0;0.0;;1970-01-01 00:00:00.847
5993.0;6008.0;0.0;-1.0;-1.0;-1.0;-1.0;-1.0;116.0;0.0;0.0;0.0;0.0;0.0;0.0;0.0;0.0;0.0;0.0;0.0;0.0;0.0;0.0;391.75;266.25;12.557;395.17800000000005;253.105;0.0;55.0;1.0;0.128625;-0.14572000000000002;-1.23536;0.081701;-0.12596;-1.23576;1.0038200000000002;-0.326719;-0.6732670000000001;2.95332;-5.9377;0.0754823;0.0;0.0;0.0;0.0;0.5242319999999999;-1.2457200000000002;-1.55942;0.0;0.0;0.0;675.0;1824.0;1077.0;909.0;1024.0;224.0;1024.0;1024.0;1024.0;1.0;4.0;0.0;0.0;0.0;0.0;0.0;;1970-01-01 00:00:00.858
5993.0;6008.0;0.0;-1.0;-1.0;-1.0;-1.0;-1.0;116.0;0.0;0.0;0.0;0.0;0.0;0.0;0.0;0.0;0.0;0.0;0.0;0.0;0.0;0.0;391.75;266.25;12.557;395.17800000000005;253.105;0.0;55.0;1.0;0.128625;-0.14572000000000002;-1.23536;0.081701;-0.12596;-1.23576;1.0038200000000002;-0.326719;-0.6732670000000001;2.95332;-5.9377;0.0754823;0.0;0.0;0.0;0.0;0.5242319999999999;-1.2457200000000002;-1.55942;0.0;0.0;0.0;675.0;1824.0;1077.0;909.0;1024.0;224.0;1024.0;1024.0;1024.0;1.0;4.0;0.0;0.0;0.0;0.0;0.0;;1970-01-01 00:00:00.869
5994.0;6009.0;0.0;-1.0;-1.0;-1.0;-1.0;-1.0;117.0;0.0;0.0;0.0;0.0;0.0;0.0;0.0;0.0;0.0;0.0;0.0;0.0;0.0;0.0;385.75;269.75;12.5544;389.423;255.877;0.0;56.0;1.0;0.152527;-0.15659;-1.22662;0.102949;-0.13515;-1.23302;1.06514;-0.362634;-0.528882;3.14984;-5.59661;1.14035;0.0;0.0;0.0;0.0;0.582188;-1.2565899999999999;-1.5147899999999999;0.0;0.0;0.0;675.0;1824.0;1077.0;909.0;1024.0;224.0;1024.0;1024.0;1024.0;1.0;4.0;0.0;0.0;0.0;0.0;0.0;;1970-01-01 00:00:00.880
5995.0;6010.0;0.0;-1.0;-1.0;-1.0;-1.0;-1.0;118.0;0.0;0.0;0.0;0.0;0.0;0.0;0.0;0.0;0.0;0.0;0.0;0.0;0.0;0.0;381.0;272.0;12.4444;383.858;258.714;0.0;57.0;1.0;0.17294400000000001;-0.17371;-1.23163;0.123947;-0.14672000000000002;-1.2326;1.1225100000000001;-0.40675900000000004;-0.385027;3.3349300000000004;-5.07796;2.4885200000000003;0.0;0.0;0.0;0.0;0.634266;-1.2737100000000001;-1.4607;0.0;0.0;0.0;675.0;1824.0;1077.0;909.0;1024.0;224.0;1024.0;1024.0;1024.0;1.0;4.0;0.0;0.0;0.0;0.0;0.0;;1970-01-01 00:00:00.891
5996.0;6011.0;0.0;-1.0;-1.0;-1.0;-1.0;-1.0;119.0;0.0;0.0;0.0;0.0;0.0;0.0;0.0;0.0;0.0;0.0;0.0;0.0;0.0;0.0;375.333;275.778;12.5035;378.144;262.073;0.0;58.0;1.0;0.194768;-0.1797;-1.21607;0.14519400000000002;-0.15661;-1.22764;1.1638600000000001;-0.444575;-0.23412600000000003;3.3874699999999995;-4.437180000000001;3.95646;0.0;0.0;0.0;0.0;0.69053;-1.2797;-1.38612;0.0;0.0;0.0;675.0;1824.0;1077.0;909.0;1024.0;224.0;1024.0;1024.0;1024.0;1.0;4.0;0.0;0.0;0.0;0.0;0.0;;1970-01-01 00:00:00.902
5996.0;6011.0;0.0;-1.0;-1.0;-1.0;-1.0;-1.0;119.0;0.0;0.0;0.0;0.0;0.0;0.0;0.0;0.0;0.0;0.0;0.0;0.0;0.0;0.0;375.333;275.778;12.5035;378.144;262.073;0.0;58.0;1.0;0.194768;-0.1797;-1.21607;0.14519400000000002;-0.15661;-1.22764;1.1638600000000001;-0.444575;-0.23412600000000003;3.3874699999999995;-4.437180000000001;3.95646;0.0;0.0;0.0;0.0;0.69053;-1.2797;-1.38612;0.0;0.0;0.0;675.0;1824.0;1077.0;909.0;1024.0;224.0;1024.0;1024.0;1024.0;1.0;4.0;0.0;0.0;0.0;0.0;0.0;;1970-01-01 00:00:00.913
5997.0;6012.0;0.0;-1.0;-1.0;-1.0;-1.0;-1.0;120.0;0.0;0.0;0.0;0.0;0.0;0.0;0.0;0.0;0.0;0.0;0.0;0.0;0.0;0.0;370.0;280.0;12.6306;372.43300000000005;265.944;0.0;59.0;1.0;0.213902;-0.18057;-1.1930399999999999;0.16580599999999998;-0.1638;-1.21726;1.19242;-0.469815;-0.07075980000000001;3.28323;-3.80438;5.37486;0.0;0.0;0.0;0.0;0.739412;-1.28057;-1.2987600000000001;0.0;0.0;0.0;675.0;1824.0;1077.0;909.0;1024.0;224.0;1024.0;1024.0;1024.0;1.0;4.0;0.0;0.0;0.0;0.0;0.0;;1970-01-01 00:00:00.924
5998.0;6013.0;0.0;-1.0;-1.0;-1.0;-1.0;-1.0;121.0;0.0;0.0;0.0;0.0;0.0;0.0;0.0;0.0;0.0;0.0;0.0;0.0;0.0;0.0;365.5;282.83299999999997;12.5375;366.995;269.733;0.0;60.0;1.0;0.233422;-0.19796;-1.19462;0.186091;-0.17405;-1.2104700000000002;1.21254;-0.5077229999999999;0.0591956;3.05802;-3.24112;6.53569;0.0;0.0;0.0;0.0;0.779763;-1.29796;-1.22704;0.0;0.0;0.0;675.0;1824.0;1077.0;909.0;1024.0;224.0;1024.0;1024.0;1024.0;1.0;4.0;0.0;0.0;0.0;0.0;0.0;;1970-01-01 00:00:00.935
5998.0;6013.0;0.0;-1.0;-1.0;-1.0;-1.0;-1.0;121.0;0.0;0.0;0.0;0.0;0.0;0.0;0.0;0.0;0.0;0.0;0.0;0.0;0.0;0.0;365.5;282.83299999999997;12.5375;366.995;269.733;0.0;60.0;1.0;0.233422;-0.19796;-1.19462;0.186091;-0.17405;-1.2104700000000002;1.21254;-0.5077229999999999;0.0591956;3.05802;-3.24112;6.53569;0.0;0.0;0.0;0.0;0.779763;-1.29796;-1.22704;0.0;0.0;0.0;675.0;1824.0;1077.0;909.0;1024.0;224.0;1024.0;1024.0;1024.0;1.0;4.0;0.0;0.0;0.0;0.0;0.0;;1970-01-01 00:00:00.946
5999.0;6014.0;0.0;-1.0;-1.0;-1.0;-1.0;-1.0;122.0;0.0;0.0;0.0;0.0;0.0;0.0;0.0;0.0;0.0;0.0;0.0;0.0;0.0;0.0;360.25;288.25;12.7608;361.52099999999996;274.275;0.0;61.0;1.0;0.24989;-0.19319;-1.16002;0.205231;-0.17979;-1.19534;1.22074;-0.519582;0.19691;2.7009;-2.7147099999999997;7.39575;0.0;0.0;0.0;0.0;0.820415;-1.2932;-1.1321700000000001;0.0;0.0;0.0;675.0;1824.0;1077.0;909.0;1024.0;224.0;1024.0;1024.0;1024.0;1.0;4.0;0.0;0.0;0.0;0.0;0.0;;1970-01-01 00:00:00.957
6000.0;6015.0;0.0;-1.0;-1.0;-1.0;-1.0;-1.0;123.0;0.0;0.0;0.0;0.0;0.0;0.0;0.0;0.0;0.0;0.0;0.0;0.0;0.0;0.0;355.0;294.0;12.640999999999998;356.024;279.46;0.0;62.0;1.0;0.273007;-0.22186;-1.15635;0.225563;-0.19241;-1.18364;1.222;-0.540392;0.315292;2.24686;-2.33855;7.8079600000000005;0.0;0.0;0.0;0.0;0.855526;-1.32186;-1.0623799999999999;0.0;0.0;0.0;675.0;1824.0;1077.0;909.0;1024.0;224.0;1024.0;1024.0;1024.0;1.0;4.0;0.0;0.0;0.0;0.0;0.0;;1970-01-01 00:00:00.968
6000.0;6015.0;0.0;-1.0;-1.0;-1.0;-1.0;-1.0;123.0;0.0;0.0;0.0;0.0;0.0;0.0;0.0;0.0;0.0;0.0;0.0;0.0;0.0;0.0;355.0;294.0;12.640999999999998;356.024;279.46;0.0;62.0;1.0;0.273007;-0.22186;-1.15635;0.225563;-0.19241;-1.18364;1.222;-0.540392;0.315292;2.24686;-2.33855;7.8079600000000005;0.0;0.0;0.0;0.0;0.855526;-1.32186;-1.0623799999999999;0.0;0.0;0.0;675.0;1824.0;1077.0;909.0;1024.0;224.0;1024.0;1024.0;1024.0;1.0;4.0;0.0;0.0;0.0;0.0;0.0;;1970-01-01 00:00:00.979
6001.0;6016.0;0.0;-1.0;-1.0;-1.0;-1.0;-1.0;124.0;0.0;0.0;0.0;0.0;0.0;0.0;0.0;0.0;0.0;0.0;0.0;0.0;0.0;0.0;351.0;298.0;12.6469;350.914;284.54;0.0;63.0;1.0;0.288679;-0.23335;-1.1456;0.244498;-0.20469;-1.1722299999999999;1.21452;-0.555718;0.43022200000000005;1.71548;-1.9978799999999999;7.9397899999999995;0.0;0.0;0.0;0.0;0.8830709999999999;-1.33335;-0.992244;0.0;0.0;0.0;675.0;1824.0;645.0;1500.0;1024.0;224.0;1024.0;1024.0;1024.0;1.0;4.0;0.0;0.0;0.0;0.0;0.0;;1970-01-01 00:00:00.990
6002.0;6017.0;0.0;406.14599999999996;312.748;10.7776;406.14599999999996;312.748;0.0;1.0;1.0;0.0831308;-1.49948;-1.30017;0.0831308;-1.49948;-1.30017;0.0;0.0;0.0;0.0;0.0;0.0;345.733;303.2;12.7412;345.685;289.916;0.0;64.0;1.0;0.307194;-0.2398;-1.1239700000000001;0.263307;-0.21523;-1.15775;1.2003;-0.5674600000000001;0.5371859999999999;1.17476;-1.68937;7.84347;1.0;0.0;0.0;0.0;0.911067;-1.3398;-0.910057;0.0;0.0;0.0;495.14;1824.0;639.0;1499.0;1024.0;224.0;1024.0;1024.0;1024.0;1.0;4.0;0.0;100.31700000000001;0.0;0.0;0.0;;1970-01-01 00:00:01.001
6002.0;6017.0;0.0;406.14599999999996;312.748;10.7776;406.14599999999996;312.748;0.0;1.0;1.0;0.0831308;-1.49948;-1.30017;0.0831308;-1.49948;-1.30017;0.0;0.0;0.0;0.0;0.0;0.0;345.733;303.2;12.7412;345.685;289.916;0.0;64.0;1.0;0.307194;-0.2398;-1.1239700000000001;0.263307;-0.21523;-1.15775;1.2003;-0.5674600000000001;0.5371859999999999;1.17476;-1.68937;7.84347;1.0;0.0;0.0;0.0;0.911067;-1.3398;-0.910057;0.0;0.0;0.0;495.14;1824.0;639.0;1499.0;1024.0;224.0;1024.0;1024.0;1024.0;1.0;4.0;0.0;100.31700000000001;0.0;0.0;0.0;;1970-01-01 00:00:01.012
6003.0;6018.0;0.0;418.0;311.747;11.5015;407.224;312.657;0.0;2.0;1.0;0.026411599999999997;-1.40178;-1.22115;0.066115;-1.47017;-1.27647;0.0;0.0;0.0;0.0;0.0;0.0;340.4;309.8;12.7279;340.35;295.942;0.0;65.0;1.0;0.328447;-0.26087;-1.1084100000000001;0.28284899999999996;-0.22891999999999998;-1.14295;1.18749;-0.60048;0.61902;0.685189;-1.53532;7.460139999999999;1.0;0.0;0.0;0.0;0.911067;-1.3398;-0.910057;0.0;0.0;0.0;495.14;1824.0;633.0;1498.0;1024.0;224.0;1024.0;1024.0;1024.0;1.0;4.0;0.0;0.0166978;0.0;0.0;0.0;;1970-01-01 00:00:01.023
6004.0;6019.0;0.0;424.472;311.5;12.374;409.996;312.471;0.0;3.0;1.0;-0.00158088;-1.30218;-1.13568;0.0458063;-1.41977;-1.23423;0.0;0.0;0.0;0.0;0.0;0.0;336.0;314.0;12.8299;335.24;301.661;0.0;66.0;1.0;0.342969;-0.26334;-1.08904;0.300885;-0.23925;-1.12678;1.17083;-0.620595;0.705566;0.24458400000000002;-1.37185;7.056830000000001;1.0;0.0;0.0;0.0;0.911067;-1.3398;-0.910057;0.0;0.0;0.0;495.14;1824.0;629.0;1496.0;1024.0;224.0;1024.0;1024.0;1024.0;1.0;4.0;0.0;0.016696799999999998;0.0;0.0;0.0;;1970-01-01 00:00:01.034
6004.0;6019.0;0.0;424.472;311.5;12.374;409.996;312.471;0.0;3.0;1.0;-0.00158088;-1.30218;-1.13568;0.0458063;-1.41977;-1.23423;0.0;0.0;0.0;0.0;0.0;0.0;336.0;314.0;12.8299;335.24;301.661;0.0;66.0;1.0;0.342969;-0.26334;-1.08904;0.300885;-0.23925;-1.12678;1.17083;-0.620595;0.705566;0.24458400000000002;-1.37185;7.056830000000001;1.0;0.0;0.0;0.0;0.911067;-1.3398;-0.910057;0.0;0.0;0.0;495.14;1824.0;629.0;1496.0;1024.0;224.0;1024.0;1024.0;1024.0;1.0;4.0;0.0;0.016696799999999998;0.0;0.0;0.0;;1970-01-01 00:00:01.045
6005.0;6020.0;0.0;431.769;310.462;13.385;414.528;312.053;0.0;4.0;1.0;-0.028696199999999998;-1.20086;-1.05241;0.0234555;-1.3541;-1.1796799999999998;0.0;0.0;0.0;0.0;0.0;0.0;330.375;319.25;12.8986;329.906;307.482;0.0;67.0;1.0;0.362927;-0.27213000000000004;-1.0701100000000001;0.319498;-0.24911;-1.10978;1.15873;-0.6491239999999999;0.764943;-0.100825;-1.34033;6.50207;1.0;0.0;0.0;0.0;0.911067;-1.3398;-0.910057;0.0;0.0;0.0;495.14;1824.0;624.0;1495.0;1024.0;224.0;1024.0;1024.0;1024.0;1.0;4.0;0.0;0.0166978;0.0;0.0;0.0;;1970-01-01 00:00:01.056
6006.0;6021.0;0.0;441.725;308.625;14.1518;421.00199999999995;311.238;0.0;5.0;1.0;-0.0622861;-1.13084;-0.999566;-0.00226697;-1.28712;-1.12565;0.0;0.0;0.0;0.0;0.0;0.0;324.66700000000003;325.0;12.9059;324.384;313.525;0.0;68.0;1.0;0.38482;-0.28841999999999995;-1.05514;0.339094;-0.2609;-1.0933899999999999;1.1485299999999998;-0.662938;0.819311;-0.35384499999999997;-1.29348;5.91362;1.0;0.0;0.0;0.0;0.911067;-1.3398;-0.910057;0.0;0.0;0.0;495.14;1824.0;621.0;1494.0;1024.0;224.0;1024.0;1024.0;1024.0;1.0;4.0;0.0;0.016696799999999998;0.0;0.0;0.0;;1970-01-01 00:00:01.067
6007.0;6022.0;0.0;453.14;305.44;15.47;429.25199999999995;309.753;0.0;6.0;1.0;-0.093841;-1.02663;-0.921033;-0.0297392;-1.20897;-1.06426;0.0;0.0;0.0;0.0;0.0;0.0;319.0;330.0;13.0311;318.742;319.47900000000004;0.0;69.0;1.0;0.402845;-0.29067;-1.03263;0.35822;-0.26983;-1.0751600000000001;1.14313;-0.657826;0.8791209999999999;-0.497309;-1.18374;5.340330000000001;1.0;0.0;0.0;0.0;0.911067;-1.3398;-0.910057;0.0;0.0;0.0;495.14;1824.0;618.0;1492.0;1024.0;224.0;1024.0;1024.0;1024.0;1.0;4.0;0.0;0.016706099999999998;0.0;0.0;0.0;;1970-01-01 00:00:01.078
6007.0;6022.0;0.0;453.14;305.44;15.47;429.25199999999995;309.753;0.0;6.0;1.0;-0.093841;-1.02663;-0.921033;-0.0297392;-1.20897;-1.06426;0.0;0.0;0.0;0.0;0.0;0.0;319.0;330.0;13.0311;318.742;319.47900000000004;0.0;69.0;1.0;0.402845;-0.29067;-1.03263;0.35822;-0.26983;-1.0751600000000001;1.14313;-0.657826;0.8791209999999999;-0.497309;-1.18374;5.340330000000001;1.0;0.0;0.0;0.0;0.911067;-1.3398;-0.910057;0.0;0.0;0.0;495.14;1824.0;618.0;1492.0;1024.0;224.0;1024.0;1024.0;1024.0;1.0;4.0;0.0;0.016706099999999998;0.0;0.0;0.0;;1970-01-01 00:00:01.089
6008.0;6023.0;0.0;466.19300000000004;300.719;16.6872;439.18;307.335;0.0;7.0;1.0;-0.126073;-0.9409489999999999;-0.862975;-0.0586394;-1.12857;-1.0038799999999999;0.0;0.0;0.0;0.0;0.0;0.0;313.6;334.0;13.1622;313.10400000000004;325.038;0.0;70.0;1.0;0.419329;-0.28941;-1.01254;0.376552;-0.27571;-1.05637;1.13799;-0.636159;0.932205;-0.547132;-0.984511;4.78125;1.0;0.0;0.0;0.0;0.911067;-1.3398;-0.910057;0.0;0.0;0.0;495.14;1824.0;614.0;1490.0;1024.0;224.0;1024.0;1024.0;1024.0;1.0;4.0;0.0;0.016696799999999998;0.0;0.0;0.0;;1970-01-01 00:00:01.100
6009.0;6024.0;0.0;480.851;293.518;18.1944;450.736;303.529;0.0;8.0;1.0;-0.155877;-0.8479040000000001;-0.804255;-0.08781069999999999;-1.04437;-0.94399;-1.53631;4.24987;3.3183800000000003;-5.16275;24.8983;18.9495;309.867;336.533;13.0808;308.001;329.835;0.0;71.0;1.0;0.436198;-0.30483000000000005;-1.0126;0.394446;-0.28444;-1.04324;1.1283299999999998;-0.6033689999999999;0.957392;-0.5644819999999999;-0.60224;4.21965;1.0;0.0;0.0;0.0;0.911067;-1.3398;-0.910057;0.0;0.0;0.0;495.14;1824.0;615.0;1490.0;1024.0;224.0;1024.0;1024.0;1024.0;1.0;4.0;0.0;0.0166978;0.0;0.0;0.0;;1970-01-01 00:00:01.111
6009.0;6024.0;0.0;480.851;293.518;18.1944;450.736;303.529;0.0;8.0;1.0;-0.155877;-0.8479040000000001;-0.804255;-0.08781069999999999;-1.04437;-0.94399;-1.53631;4.24987;3.3183800000000003;-5.16275;24.8983;18.9495;309.867;336.533;13.0808;308.001;329.835;0.0;71.0;1.0;0.436198;-0.30483000000000005;-1.0126;0.394446;-0.28444;-1.04324;1.1283299999999998;-0.6033689999999999;0.957392;-0.5644819999999999;-0.60224;4.21965;1.0;0.0;0.0;0.0;0.911067;-1.3398;-0.910057;0.0;0.0;0.0;495.14;1824.0;615.0;1490.0;1024.0;224.0;1024.0;1024.0;1024.0;1.0;4.0;0.0;0.0166978;0.0;0.0;0.0;;1970-01-01 00:00:01.122
6010.0;6025.0;0.0;496.575;280.988;18.3555;463.764;297.197;0.0;9.0;1.0;-0.197303;-0.814422;-0.819212;-0.12065899999999999;-0.975384;-0.906557;-1.58637;4.32407;3.29921;-4.57498;20.1516;14.4427;306.125;338.625;13.1052;303.288;333.92800000000005;0.0;72.0;1.0;0.449646;-0.30848000000000003;-1.00556;0.41100600000000004;-0.29166;-1.0319399999999999;1.1166399999999999;-0.571261;0.9530719999999999;-0.555045;-0.164388;3.5199199999999995;1.0;0.0;0.0;0.0;0.911067;-1.3398;-0.910057;0.0;0.0;0.0;495.14;1824.0;617.0;1492.0;1024.0;224.0;1024.0;1024.0;1024.0;1.0;4.0;0.0;0.016696799999999998;0.0;0.0;0.0;;1970-01-01 00:00:01.133
6011.0;6026.0;0.0;509.421;264.303;18.4831;477.064;287.795;0.0;10.0;1.0;-0.230663;-0.774356;-0.842672;-0.15366;-0.915075;-0.887391;-1.65893;4.347169999999999;3.14646;-4.02404;13.7443;8.18539;302.42900000000003;339.286;13.2005;298.873;337.04900000000004;0.0;73.0;1.0;0.460391;-0.30095;-0.9966889999999999;0.42582200000000003;-0.29444000000000004;-1.02136;1.09446;-0.523737;0.9248280000000001;-0.589594;0.401952;2.75026;1.0;0.0;0.0;0.0;0.911067;-1.3398;-0.910057;0.0;0.0;0.0;495.14;1824.0;625.0;1496.0;1024.0;224.0;1024.0;1024.0;1024.0;1.0;4.0;0.0;0.0166978;0.0;0.0;0.0;;1970-01-01 00:00:01.144
6011.0;6026.0;0.0;509.421;264.303;18.4831;477.064;287.795;0.0;10.0;1.0;-0.230663;-0.774356;-0.842672;-0.15366;-0.915075;-0.887391;-1.65893;4.347169999999999;3.14646;-4.02404;13.7443;8.18539;302.42900000000003;339.286;13.2005;298.873;337.04900000000004;0.0;73.0;1.0;0.460391;-0.30095;-0.9966889999999999;0.42582200000000003;-0.29444000000000004;-1.02136;1.09446;-0.523737;0.9248280000000001;-0.589594;0.401952;2.75026;1.0;0.0;0.0;0.0;0.911067;-1.3398;-0.910057;0.0;0.0;0.0;495.14;1824.0;625.0;1496.0;1024.0;224.0;1024.0;1024.0;1024.0;1.0;4.0;0.0;0.0166978;0.0;0.0;0.0;;1970-01-01 00:00:01.155
6012.0;6027.0;0.0;535.837;251.673;18.4926;494.41;277.246;0.0;11.0;1.0;-0.301906;-0.747905;-0.864266;-0.198133;-0.864924;-0.8804540000000001;-1.77732;4.29386;2.86678;-3.35963;9.374189999999999;3.4360800000000005;297.42900000000003;341.0;13.337;294.26;339.796;0.0;74.0;1.0;0.474409;-0.29254;-0.982345;0.44039799999999996;-0.29386999999999996;-1.00966;1.06112;-0.445866;0.889177;-0.702739;1.1078;1.9290900000000002;1.0;0.0;0.0;0.0;0.911067;-1.3398;-0.910057;0.0;0.0;0.0;495.14;1824.0;632.0;1499.0;1024.0;224.0;1024.0;1024.0;1024.0;1.0;4.0;0.0;0.016696799999999998;0.0;0.0;0.0;;1970-01-01 00:00:01.166
6013.0;6028.0;0.0;542.58;240.725;18.4902;509.14599999999996;266.318;0.0;12.0;1.0;-0.320162;-0.725409;-0.883474;-0.234742;-0.8230700000000001;-0.88136;-1.8849;4.1171;2.45034;-2.9758299999999998;3.3856;-2.8256;294.4;342.0;13.472999999999999;290.131;342.04;0.0;75.0;1.0;0.48084899999999997;-0.28231999999999996;-0.970033;0.452533;-0.29041;-0.99777;1.0132299999999999;-0.349662;0.8424950000000001;-0.9402940000000001;1.89507;1.01122;1.0;0.0;0.0;0.0;0.911067;-1.3398;-0.910057;0.0;0.0;0.0;495.14;1824.0;644.0;1504.0;1024.0;224.0;1024.0;1024.0;1024.0;1.0;4.0;0.0;0.016697999999999998;0.0;0.0;0.0;;1970-01-01 00:00:01.177
6013.0;6028.0;0.0;542.58;240.725;18.4902;509.14599999999996;266.318;0.0;12.0;1.0;-0.320162;-0.725409;-0.883474;-0.234742;-0.8230700000000001;-0.88136;-1.8849;4.1171;2.45034;-2.9758299999999998;3.3856;-2.8256;294.4;342.0;13.472999999999999;290.131;342.04;0.0;75.0;1.0;0.48084899999999997;-0.28231999999999996;-0.970033;0.452533;-0.29041;-0.99777;1.0132299999999999;-0.349662;0.8424950000000001;-0.9402940000000001;1.89507;1.01122;1.0;0.0;0.0;0.0;0.911067;-1.3398;-0.910057;0.0;0.0;0.0;495.14;1824.0;644.0;1504.0;1024.0;224.0;1024.0;1024.0;1024.0;1.0;4.0;0.0;0.016697999999999998;0.0;0.0;0.0;;1970-01-01 00:00:01.188
6014.0;6029.0;0.0;533.143;214.34900000000002;16.5232;517.264;250.646;0.0;13.0;1.0;-0.32974499999999995;-0.750868;-1.04013;-0.263243;-0.801409;-0.928991;-1.94785;3.7764800000000003;1.7692;-2.65178;-2.1180000000000003;-9.071710000000001;291.27299999999997;342.18199999999996;13.3249;286.325;343.658;0.0;76.0;1.0;0.49791899999999994;-0.2971;-0.980377;0.466149;-0.29241999999999996;-0.992552;0.9656680000000001;-0.276506;0.760313;-1.25221;2.57301;-0.0795745;1.0;0.0;0.0;0.0;0.911067;-1.3398;-0.910057;0.0;0.0;0.0;495.14;1824.0;661.0;1512.0;1024.0;224.0;1024.0;1024.0;1024.0;1.0;4.0;0.0;0.016696799999999998;0.0;0.0;0.0;;1970-01-01 00:00:01.199
6015.0;6030.0;0.0;552.5;204.071;14.4954;528.851;236.12099999999998;0.0;14.0;1.0;-0.442586;-0.828857;-1.20851;-0.317046;-0.8096439999999999;-1.01285;-2.08397;3.20306;0.786602;-3.77769;-5.45036;-15.5516;288.0;342.333;13.3627;282.704;344.809;0.0;77.0;1.0;0.508745;-0.29386;-0.9772360000000001;0.47892799999999996;-0.29285;-0.987957;0.916708;-0.19946;0.676916;-1.59626;3.1564799999999997;-1.16759;1.0;0.0;0.0;0.0;0.911067;-1.3398;-0.910057;0.0;0.0;0.0;495.14;1824.0;678.0;1519.0;1024.0;224.0;1024.0;1024.0;1024.0;1.0;4.0;0.0;0.0166978;0.0;0.0;0.0;;1970-01-01 00:00:01.210
6015.0;6030.0;0.0;552.5;204.071;14.4954;528.851;236.12099999999998;0.0;14.0;1.0;-0.442586;-0.828857;-1.20851;-0.317046;-0.8096439999999999;-1.01285;-2.08397;3.20306;0.786602;-3.77769;-5.45036;-15.5516;288.0;342.333;13.3627;282.704;344.809;0.0;77.0;1.0;0.508745;-0.29386;-0.9772360000000001;0.47892799999999996;-0.29285;-0.987957;0.916708;-0.19946;0.676916;-1.59626;3.1564799999999997;-1.16759;1.0;0.0;0.0;0.0;0.911067;-1.3398;-0.910057;0.0;0.0;0.0;495.14;1824.0;678.0;1519.0;1024.0;224.0;1024.0;1024.0;1024.0;1.0;4.0;0.0;0.0166978;0.0;0.0;0.0;;1970-01-01 00:00:01.221
6016.0;6031.0;0.0;575.0;194.0;12.5764;543.942;222.50400000000002;0.0;15.0;1.0;-0.5994970000000001;-0.924782;-1.41874;-0.5994970000000001;-0.924782;-1.41874;0.0;0.0;0.0;0.0;0.0;0.0;285.0;343.0;13.4443;279.305;345.788;0.0;78.0;1.0;0.5168050000000001;-0.2879;-0.969707;0.490291;-0.29136;-0.982482;0.866583;-0.11851400000000001;0.603604;-1.9561400000000002;3.70155;-2.09586;1.0;0.0;0.0;0.0;0.911067;-1.3398;-0.910057;0.0;0.0;0.0;495.14;1824.0;695.0;1524.0;1024.0;224.0;1024.0;1024.0;1024.0;1.0;4.0;0.0;0.016696799999999998;0.0;0.0;0.0;;1970-01-01 00:00:01.232
6017.0;6032.0;0.0;575.0;194.0;12.5764;545.82;220.945;1.0;0.0;1.0;-0.5994970000000001;-0.924782;-1.41874;-0.5994970000000001;-0.924782;-1.41874;0.0;0.0;0.0;0.0;0.0;0.0;281.83299999999997;343.333;13.3269;276.01099999999997;346.536;0.0;79.0;1.0;0.533227;-0.3002;-0.97744;0.5031720000000001;-0.29401;-0.9809690000000001;0.828783;-0.0693934;0.523437;-2.23446;4.0349699999999995;-2.8601400000000003;1.0;0.0;0.0;0.0;0.911067;-1.3398;-0.910057;0.0;0.0;0.0;495.14;1824.0;711.0;1530.0;1024.0;224.0;1024.0;1024.0;1024.0;1.0;4.0;0.0;0.016696799999999998;0.0;0.0;0.0;;1970-01-01 00:00:01.243
6018.0;6033.0;0.0;575.0;194.0;12.5764;547.6990000000001;219.386;2.0;0.0;1.0;-0.5994970000000001;-0.924782;-1.41874;-0.5994970000000001;-0.924782;-1.41874;0.0;0.0;0.0;0.0;0.0;0.0;279.0;345.0;13.2938;272.9;347.542;0.0;80.0;1.0;0.545203;-0.30822;-0.9758319999999999;0.515781;-0.29828000000000005;-0.9794280000000001;0.798251;-0.059214699999999995;0.43475600000000003;-2.3902099999999997;3.96475;-3.5304300000000004;1.0;0.0;0.0;0.0;0.911067;-1.3398;-0.910057;0.0;0.0;0.0;495.14;1824.0;726.0;1535.0;1024.0;224.0;1024.0;1024.0;1024.0;1.0;4.0;0.0;0.016696799999999998;0.0;0.0;0.0;;1970-01-01 00:00:01.254
6018.0;6033.0;0.0;575.0;194.0;12.5764;547.6990000000001;219.386;2.0;0.0;1.0;-0.5994970000000001;-0.924782;-1.41874;-0.5994970000000001;-0.924782;-1.41874;0.0;0.0;0.0;0.0;0.0;0.0;279.0;345.0;13.2938;272.9;347.542;0.0;80.0;1.0;0.545203;-0.30822;-0.9758319999999999;0.515781;-0.29828000000000005;-0.9794280000000001;0.798251;-0.059214699999999995;0.43475600000000003;-2.3902099999999997;3.96475;-3.5304300000000004;1.0;0.0;0.0;0.0;0.911067;-1.3398;-0.910057;0.0;0.0;0.0;495.14;1824.0;726.0;1535.0;1024.0;224.0;1024.0;1024.0;1024.0;1.0;4.0;0.0;0.016696799999999998;0.0;0.0;0.0;;1970-01-01 00:00:01.265
6019.0;6034.0;0.0;575.0;194.0;12.5764;549.578;217.827;3.0;0.0;1.0;-0.5994970000000001;-0.924782;-1.41874;-0.5994970000000001;-0.924782;-1.41874;0.0;0.0;0.0;0.0;0.0;0.0;275.6;346.0;13.2161;269.738;348.525;0.0;81.0;1.0;0.5612590000000001;-0.31879;-0.979126;0.529425;-0.30443000000000003;-0.9793370000000001;0.785953;-0.0915183;0.334448;-2.34158;3.40953;-4.146719999999999;1.0;0.0;0.0;0.0;0.911067;-1.3398;-0.910057;0.0;0.0;0.0;495.14;1824.0;741.0;1540.0;1024.0;224.0;1024.0;1024.0;1024.0;1.0;4.0;0.0;0.016696799999999998;0.0;0.0;0.0;;1970-01-01 00:00:01.276
6020.0;6035.0;0.0;575.0;194.0;12.5764;551.457;216.268;4.0;0.0;1.0;-0.5994970000000001;-0.924782;-1.41874;-0.5994970000000001;-0.924782;-1.41874;0.0;0.0;0.0;0.0;0.0;0.0;272.769;347.231;13.2611;266.72;349.566;0.0;82.0;1.0;0.5700189999999999;-0.31786;-0.9728100000000001;0.541603;-0.30846;-0.9773790000000001;0.772835;-0.11897100000000001;0.261248;-2.17487;2.6747099999999997;-4.480630000000001;1.0;0.0;0.0;0.0;0.911067;-1.3398;-0.910057;0.0;0.0;0.0;495.14;1824.0;751.0;1544.0;1024.0;224.0;1024.0;1024.0;1024.0;1.0;4.0;0.0;0.016696799999999998;0.0;0.0;0.0;;1970-01-01 00:00:01.287
6020.0;6035.0;0.0;575.0;194.0;12.5764;551.457;216.268;4.0;0.0;1.0;-0.5994970000000001;-0.924782;-1.41874;-0.5994970000000001;-0.924782;-1.41874;0.0;0.0;0.0;0.0;0.0;0.0;272.769;347.231;13.2611;266.72;349.566;0.0;82.0;1.0;0.5700189999999999;-0.31786;-0.9728100000000001;0.541603;-0.30846;-0.9773790000000001;0.772835;-0.11897100000000001;0.261248;-2.17487;2.6747099999999997;-4.480630000000001;1.0;0.0;0.0;0.0;0.911067;-1.3398;-0.910057;0.0;0.0;0.0;495.14;1824.0;751.0;1544.0;1024.0;224.0;1024.0;1024.0;1024.0;1.0;4.0;0.0;0.016696799999999998;0.0;0.0;0.0;;1970-01-01 00:00:01.298
6021.0;6036.0;0.0;575.0;194.0;12.5764;553.336;214.709;5.0;0.0;1.0;-0.5994970000000001;-0.924782;-1.41874;-0.5994970000000001;-0.924782;-1.41874;0.0;0.0;0.0;0.0;0.0;0.0;269.231;348.769;13.0993;263.577;350.74699999999996;0.0;83.0;1.0;0.5905560000000001;-0.33862;-0.981042;0.556289;-0.31751;-0.9784780000000001;0.772579;-0.169843;0.194596;-1.88038;1.72308;-4.61413;1.0;0.0;0.0;0.0;0.911067;-1.3398;-0.910057;0.0;0.0;0.0;495.14;1824.0;759.0;1547.0;1024.0;224.0;1024.0;1024.0;1024.0;1.0;4.0;0.0;0.016696799999999998;0.0;0.0;0.0;;1970-01-01 00:00:01.309
6022.0;6037.0;0.0;575.0;194.0;12.5764;555.214;213.15;6.0;0.0;1.0;-0.5994970000000001;-0.924782;-1.41874;-0.5994970000000001;-0.924782;-1.41874;0.0;0.0;0.0;0.0;0.0;0.0;266.769;349.231;13.0237;260.687;351.68800000000005;0.0;84.0;1.0;0.603424;-0.34774;-0.9855879999999999;0.570429;-0.32658000000000004;-0.980611;0.783513;-0.242502;0.12422799999999999;-1.4599;0.5388029999999999;-4.6824699999999995;1.0;0.0;0.0;0.0;0.911067;-1.3398;-0.910057;0.0;0.0;0.0;495.14;1824.0;769.0;1550.0;1024.0;224.0;1024.0;1024.0;1024.0;1.0;4.0;0.0;0.016696799999999998;0.0;0.0;0.0;;1970-01-01 00:00:01.320
6022.0;6037.0;0.0;575.0;194.0;12.5764;555.214;213.15;6.0;0.0;1.0;-0.5994970000000001;-0.924782;-1.41874;-0.5994970000000001;-0.924782;-1.41874;0.0;0.0;0.0;0.0;0.0;0.0;266.769;349.231;13.0237;260.687;351.68800000000005;0.0;84.0;1.0;0.603424;-0.34774;-0.9855879999999999;0.570429;-0.32658000000000004;-0.980611;0.783513;-0.242502;0.12422799999999999;-1.4599;0.5388029999999999;-4.6824699999999995;1.0;0.0;0.0;0.0;0.911067;-1.3398;-0.910057;0.0;0.0;0.0;495.14;1824.0;769.0;1550.0;1024.0;224.0;1024.0;1024.0;1024.0;1.0;4.0;0.0;0.016696799999999998;0.0;0.0;0.0;;1970-01-01 00:00:01.331
6023.0;6038.0;0.0;575.0;194.0;12.5764;557.0930000000001;211.59099999999998;7.0;0.0;1.0;-0.5994970000000001;-0.924782;-1.41874;-0.5994970000000001;-0.924782;-1.41874;0.0;0.0;0.0;0.0;0.0;0.0;263.33299999999997;351.778;13.0188;257.66700000000003;353.12;0.0;85.0;1.0;0.6168359999999999;-0.35570999999999997;-0.979651;0.5843510000000001;-0.33532;-0.9803229999999999;0.794231;-0.310415;0.0771173;-1.01389;-0.639037;-4.59149;1.0;0.0;0.0;0.0;0.911067;-1.3398;-0.910057;0.0;0.0;0.0;495.14;1824.0;769.0;1553.0;1024.0;224.0;1024.0;1024.0;1024.0;1.0;4.0;0.0;0.016696799999999998;0.0;0.0;0.0;;1970-01-01 00:00:01.342
6024.0;6039.0;0.0;575.0;194.0;12.5764;558.972;210.032;8.0;0.0;1.0;-0.5994970000000001;-0.924782;-1.41874;-0.5994970000000001;-0.924782;-1.41874;0.0;0.0;0.0;0.0;0.0;0.0;260.16700000000003;352.667;12.9656;254.637;354.38;0.0;86.0;1.0;0.63157;-0.36389;-0.9814620000000001;0.598517;-0.34389000000000003;-0.980665;0.806875;-0.368374;0.0413337;-0.5739;-1.61779;-4.3257;1.0;0.0;0.0;0.0;0.911067;-1.3398;-0.910057;0.0;0.0;0.0;495.14;1824.0;773.0;1554.0;1024.0;224.0;1024.0;1024.0;1024.0;1.0;4.0;0.0;0.016696799999999998;0.0;0.0;0.0;;1970-01-01 00:00:01.353
6024.0;6039.0;0.0;575.0;194.0;12.5764;558.972;210.032;8.0;0.0;1.0;-0.5994970000000001;-0.924782;-1.41874;-0.5994970000000001;-0.924782;-1.41874;0.0;0.0;0.0;0.0;0.0;0.0;260.16700000000003;352.667;12.9656;254.637;354.38;0.0;86.0;1.0;0.63157;-0.36389;-0.9814620000000001;0.598517;-0.34389000000000003;-0.980665;0.806875;-0.368374;0.0413337;-0.5739;-1.61779;-4.3257;1.0;0.0;0.0;0.0;0.911067;-1.3398;-0.910057;0.0;0.0;0.0;495.14;1824.0;773.0;1554.0;1024.0;224.0;1024.0;1024.0;1024.0;1.0;4.0;0.0;0.016696799999999998;0.0;0.0;0.0;;1970-01-01 00:00:01.364
6025.0;6040.0;0.0;575.0;194.0;12.5764;560.851;208.47299999999998;9.0;0.0;1.0;-0.5994970000000001;-0.924782;-1.41874;-0.5994970000000001;-0.924782;-1.41874;0.0;0.0;0.0;0.0;0.0;0.0;256.83299999999997;355.5;12.8264;251.545;356.13599999999997;0.0;87.0;1.0;0.651407;-0.38711999999999996;-0.984988;0.614384;-0.35686;-0.9819620000000001;0.8233389999999999;-0.430356;0.014322399999999999;-0.19506700000000002;-2.32354;-3.8735800000000005;1.0;0.0;0.0;0.0;0.911067;-1.3398;-0.910057;0.0;0.0;0.0;495.14;1824.0;768.0;1556.0;1024.0;224.0;1024.0;1024.0;1024.0;1.0;4.0;0.0;0.016696799999999998;0.0;0.0;0.0;;1970-01-01 00:00:01.375
6026.0;6041.0;0.0;575.0;194.0;12.5764;-1.0;-1.0;10.0;0.0;0.0;0.0;0.0;0.0;0.0;0.0;0.0;0.0;0.0;0.0;0.0;0.0;0.0;253.84599999999998;356.769;12.7068;248.518;357.75199999999995;0.0;88.0;1.0;0.669281;-0.40399;-0.9910370000000001;0.630853;-0.371;-0.984684;0.850351;-0.507909;-0.0205727;0.192456;-2.94703;-3.44936;0.0;0.0;0.0;0.0;0.911067;-1.3398;-0.910057;0.0;0.0;0.0;495.14;1824.0;767.0;1557.0;1024.0;224.0;1024.0;1024.0;1024.0;1.0;4.0;0.0;0.0;0.0;0.0;0.0;;1970-01-01 00:00:01.386
6026.0;6041.0;0.0;575.0;194.0;12.5764;-1.0;-1.0;10.0;0.0;0.0;0.0;0.0;0.0;0.0;0.0;0.0;0.0;0.0;0.0;0.0;0.0;0.0;253.84599999999998;356.769;12.7068;248.518;357.75199999999995;0.0;88.0;1.0;0.669281;-0.40399;-0.9910370000000001;0.630853;-0.371;-0.984684;0.850351;-0.507909;-0.0205727;0.192456;-2.94703;-3.44936;0.0;0.0;0.0;0.0;0.911067;-1.3398;-0.910057;0.0;0.0;0.0;495.14;1824.0;767.0;1557.0;1024.0;224.0;1024.0;1024.0;1024.0;1.0;4.0;0.0;0.0;0.0;0.0;0.0;;1970-01-01 00:00:01.397
6027.0;6042.0;0.0;575.0;194.0;12.5764;-1.0;-1.0;11.0;0.0;0.0;0.0;0.0;0.0;0.0;0.0;0.0;0.0;0.0;0.0;0.0;0.0;0.0;250.625;357.75;12.7646;245.46;359.17400000000004;0.0;89.0;1.0;0.678858;-0.40055999999999997;-0.9840709999999999;0.645255;-0.37987;-0.9845;0.8654200000000001;-0.553721;-0.0363881;0.48616000000000004;-3.3009199999999996;-2.99186;0.0;0.0;0.0;0.0;0.911067;-1.3398;-0.910057;0.0;0.0;0.0;495.14;1824.0;767.0;1557.0;1024.0;224.0;1024.0;1024.0;1024.0;1.0;4.0;0.0;0.0;0.0;0.0;0.0;;1970-01-01 00:00:01.408
6028.0;6043.0;0.0;575.0;194.0;12.5764;-1.0;-1.0;12.0;0.0;0.0;0.0;0.0;0.0;0.0;0.0;0.0;0.0;0.0;0.0;0.0;0.0;0.0;247.231;359.231;12.6926;242.324;360.615;0.0;90.0;1.0;0.696067;-0.41295;-0.9858889999999999;0.6604979999999999;-0.38979;-0.984917;0.878868;-0.5846319999999999;-0.039024199999999995;0.6724140000000001;-3.3465599999999998;-2.44693;0.0;0.0;0.0;0.0;0.911067;-1.3398;-0.910057;0.0;0.0;0.0;495.14;1824.0;767.0;1557.0;1024.0;224.0;1024.0;1024.0;1024.0;1.0;4.0;0.0;0.0;0.0;0.0;0.0;;1970-01-01 00:00:01.419
6029.0;6044.0;0.0;575.0;194.0;12.5764;-1.0;-1.0;13.0;0.0;0.0;0.0;0.0;0.0;0.0;0.0;0.0;0.0;0.0;0.0;0.0;0.0;0.0;244.0;360.0;12.550999999999998;239.183;361.842;0.0;91.0;1.0;0.7167819999999999;-0.43123999999999996;-0.9950389999999999;0.677383;-0.40223000000000003;-0.9879530000000001;0.898767;-0.617925;-0.05388;0.820823;-3.2357299999999998;-1.9911900000000002;0.0;0.0;0.0;0.0;0.911067;-1.3398;-0.910057;0.0;0.0;0.0;495.14;1824.0;745.0;1550.0;1024.0;224.0;1024.0;1024.0;1024.0;1.0;4.0;0.0;0.0;0.0;0.0;0.0;;1970-01-01 00:00:01.430
6029.0;6044.0;0.0;575.0;194.0;12.5764;-1.0;-1.0;13.0;0.0;0.0;0.0;0.0;0.0;0.0;0.0;0.0;0.0;0.0;0.0;0.0;0.0;0.0;244.0;360.0;12.550999999999998;239.183;361.842;0.0;91.0;1.0;0.7167819999999999;-0.43123999999999996;-0.9950389999999999;0.677383;-0.40223000000000003;-0.9879530000000001;0.898767;-0.617925;-0.05388;0.820823;-3.2357299999999998;-1.9911900000000002;0.0;0.0;0.0;0.0;0.911067;-1.3398;-0.910057;0.0;0.0;0.0;495.14;1824.0;745.0;1550.0;1024.0;224.0;1024.0;1024.0;1024.0;1.0;4.0;0.0;0.0;0.0;0.0;0.0;;1970-01-01 00:00:01.441
6030.0;6045.0;0.0;575.0;194.0;12.5764;-1.0;-1.0;14.0;0.0;0.0;0.0;0.0;0.0;0.0;0.0;0.0;0.0;0.0;0.0;0.0;0.0;0.0;241.333;359.5;12.4391;236.217;362.51;0.0;92.0;1.0;0.733939;-0.44258000000000003;-1.00528;0.69435;-0.41433000000000003;-0.9931530000000001;0.92189;-0.652007;-0.082189;0.951708;-3.07389;-1.6879;0.0;0.0;0.0;0.0;0.911067;-1.3398;-0.910057;0.0;0.0;0.0;495.14;1824.0;760.0;1546.0;1024.0;224.0;1024.0;1024.0;1024.0;1.0;4.0;0.0;0.0;0.0;0.0;0.0;;1970-01-01 00:00:01.452
6031.0;6046.0;0.0;575.0;194.0;12.5764;-1.0;-1.0;15.0;0.0;0.0;0.0;0.0;0.0;0.0;0.0;0.0;0.0;0.0;0.0;0.0;0.0;0.0;238.833;357.5;12.2668;233.429;362.29400000000004;0.0;93.0;1.0;0.754432;-0.45663000000000004;-1.02467;0.712374;-0.42701999999999996;-1.00261;0.944377;-0.671331;-0.131743;1.05429;-2.80646;-1.5959299999999998;0.0;0.0;0.0;0.0;0.911067;-1.3398;-0.910057;0.0;0.0;0.0;495.14;1824.0;803.0;1528.0;1024.0;224.0;1024.0;1024.0;1024.0;1.0;4.0;0.0;0.0;0.0;0.0;0.0;;1970-01-01 00:00:01.463
6031.0;6046.0;0.0;575.0;194.0;12.5764;-1.0;-1.0;15.0;0.0;0.0;0.0;0.0;0.0;0.0;0.0;0.0;0.0;0.0;0.0;0.0;0.0;0.0;238.833;357.5;12.2668;233.429;362.29400000000004;0.0;93.0;1.0;0.754432;-0.45663000000000004;-1.02467;0.712374;-0.42701999999999996;-1.00261;0.944377;-0.671331;-0.131743;1.05429;-2.80646;-1.5959299999999998;0.0;0.0;0.0;0.0;0.911067;-1.3398;-0.910057;0.0;0.0;0.0;495.14;1824.0;803.0;1528.0;1024.0;224.0;1024.0;1024.0;1024.0;1.0;4.0;0.0;0.0;0.0;0.0;0.0;;1970-01-01 00:00:01.474
6032.0;6047.0;0.0;575.0;194.0;12.5764;-1.0;-1.0;16.0;0.0;0.0;0.0;0.0;0.0;0.0;0.0;0.0;0.0;0.0;0.0;0.0;0.0;0.0;236.429;355.286;12.3067;230.799;361.371;0.0;94.0;1.0;0.761745;-0.44504;-1.02715;0.727186;-0.43243000000000004;-1.00997;0.951249;-0.648054;-0.179997;1.03542;-2.24343;-1.59409;0.0;0.0;0.0;0.0;0.911067;-1.3398;-0.910057;0.0;0.0;0.0;495.14;1824.0;887.0;1481.0;1024.0;224.0;1024.0;1024.0;1024.0;1.0;4.0;0.0;0.0;0.0;0.0;0.0;;1970-01-01 00:00:01.485
6033.0;6048.0;0.0;575.0;194.0;12.5764;-1.0;-1.0;17.0;0.0;0.0;0.0;0.0;0.0;0.0;0.0;0.0;0.0;0.0;0.0;0.0;0.0;0.0;234.13299999999998;352.8;12.4072;228.31799999999998;359.852;0.0;95.0;1.0;0.7648159999999999;-0.42568999999999996;-1.02529;0.738475;-0.4304;-1.0145600000000001;0.942946;-0.590604;-0.22803099999999998;0.930787;-1.49332;-1.7216200000000002;0.0;0.0;0.0;0.0;0.911067;-1.3398;-0.910057;0.0;0.0;0.0;495.14;1824.0;1014.0;1331.0;1024.0;224.0;1024.0;1024.0;1024.0;1.0;4.0;0.0;0.0;0.0;0.0;0.0;;1970-01-01 00:00:01.496
6033.0;6048.0;0.0;575.0;194.0;12.5764;-1.0;-1.0;17.0;0.0;0.0;0.0;0.0;0.0;0.0;0.0;0.0;0.0;0.0;0.0;0.0;0.0;0.0;234.13299999999998;352.8;12.4072;228.31799999999998;359.852;0.0;95.0;1.0;0.7648159999999999;-0.42568999999999996;-1.02529;0.738475;-0.4304;-1.0145600000000001;0.942946;-0.590604;-0.22803099999999998;0.930787;-1.49332;-1.7216200000000002;0.0;0.0;0.0;0.0;0.911067;-1.3398;-0.910057;0.0;0.0;0.0;495.14;1824.0;1014.0;1331.0;1024.0;224.0;1024.0;1024.0;1024.0;1.0;4.0;0.0;0.0;0.0;0.0;0.0;;1970-01-01 00:00:01.507
6034.0;6049.0;0.0;575.0;194.0;12.5764;-1.0;-1.0;18.0;0.0;0.0;0.0;0.0;0.0;0.0;0.0;0.0;0.0;0.0;0.0;0.0;0.0;0.0;233.0;350.0;12.2838;226.31400000000002;357.805;0.0;96.0;1.0;0.777111;-0.43132;-1.04294;0.750066;-0.43068;-1.02308;0.92338;-0.5175960000000001;-0.28917800000000005;0.7361949999999999;-0.62834;-2.03175;0.0;0.0;0.0;0.0;0.911067;-1.3398;-0.910057;0.0;0.0;0.0;495.14;1824.0;1014.0;1331.0;1024.0;224.0;1024.0;1024.0;1024.0;1.0;4.0;0.0;0.0;0.0;0.0;0.0;;1970-01-01 00:00:01.518
6035.0;6050.0;0.0;575.0;194.0;12.5764;-1.0;-1.0;19.0;0.0;0.0;0.0;0.0;0.0;0.0;0.0;0.0;0.0;0.0;0.0;0.0;0.0;0.0;230.769;347.231;12.0402;224.30200000000002;355.39;0.0;97.0;1.0;0.802084;-0.45148999999999995;-1.07145;0.765671;-0.43692;-1.03759;0.906531;-0.44907700000000006;-0.371687;0.472717;0.297149;-2.48795;0.0;0.0;0.0;0.0;0.911067;-1.3398;-0.910057;0.0;0.0;0.0;495.14;1824.0;1014.0;1331.0;1024.0;224.0;1024.0;1024.0;1024.0;1.0;4.0;0.0;0.0;0.0;0.0;0.0;;1970-01-01 00:00:01.529
6035.0;6050.0;0.0;575.0;194.0;12.5764;-1.0;-1.0;19.0;0.0;0.0;0.0;0.0;0.0;0.0;0.0;0.0;0.0;0.0;0.0;0.0;0.0;0.0;230.769;347.231;12.0402;224.30200000000002;355.39;0.0;97.0;1.0;0.802084;-0.45148999999999995;-1.07145;0.765671;-0.43692;-1.03759;0.906531;-0.44907700000000006;-0.371687;0.472717;0.297149;-2.48795;0.0;0.0;0.0;0.0;0.911067;-1.3398;-0.910057;0.0;0.0;0.0;495.14;1824.0;1014.0;1331.0;1024.0;224.0;1024.0;1024.0;1024.0;1.0;4.0;0.0;0.0;0.0;0.0;0.0;;1970-01-01 00:00:01.540
6036.0;6051.0;0.0;575.0;194.0;12.5764;-1.0;-1.0;20.0;0.0;0.0;0.0;0.0;0.0;0.0;0.0;0.0;0.0;0.0;0.0;0.0;0.0;0.0;228.727;343.81800000000004;12.0474;222.343;352.51;0.0;98.0;1.0;0.810078;-0.43983;-1.07996;0.778993;-0.43778999999999996;-1.0503;0.88187;-0.363113;-0.451179;0.12384500000000001;1.33174;-2.96602;0.0;0.0;0.0;0.0;0.911067;-1.3398;-0.910057;0.0;0.0;0.0;495.14;1824.0;1014.0;1331.0;1024.0;224.0;1024.0;1024.0;1024.0;1.0;4.0;0.0;0.0;0.0;0.0;0.0;;1970-01-01 00:00:01.551
6037.0;6052.0;0.0;575.0;194.0;12.5764;-1.0;-1.0;21.0;0.0;0.0;0.0;0.0;0.0;0.0;0.0;0.0;0.0;0.0;0.0;0.0;0.0;0.0;227.0;339.42900000000003;11.9413;220.519;348.98800000000006;0.0;99.0;1.0;0.824501;-0.43859;-1.10141;0.792646;-0.43803000000000003;-1.0656299999999999;0.849618;-0.261836;-0.522343;-0.304032;2.43403;-3.33915;0.0;0.0;0.0;0.0;0.911067;-1.3398;-0.910057;0.0;0.0;0.0;495.14;224.0;1024.0;1024.0;1024.0;224.0;1024.0;1024.0;1024.0;1.0;4.0;0.0;0.0;0.0;0.0;0.0;;1970-01-01 00:00:01.562
6037.0;6052.0;0.0;575.0;194.0;12.5764;-1.0;-1.0;21.0;0.0;0.0;0.0;0.0;0.0;0.0;0.0;0.0;0.0;0.0;0.0;0.0;0.0;0.0;227.0;339.42900000000003;11.9413;220.519;348.98800000000006;0.0;99.0;1.0;0.824501;-0.43859;-1.10141;0.792646;-0.43803000000000003;-1.0656299999999999;0.849618;-0.261836;-0.522343;-0.304032;2.43403;-3.33915;0.0;0.0;0.0;0.0;0.911067;-1.3398;-0.910057;0.0;0.0;0.0;495.14;224.0;1024.0;1024.0;1024.0;224.0;1024.0;1024.0;1024.0;1.0;4.0;0.0;0.0;0.0;0.0;0.0;;1970-01-01 00:00:01.573
6038.0;6053.0;0.0;575.0;194.0;12.5764;-1.0;-1.0;22.0;0.0;0.0;0.0;0.0;0.0;0.0;0.0;0.0;0.0;0.0;0.0;0.0;0.0;0.0;225.231;334.769;11.927999999999999;218.778;344.92;0.0;100.0;1.0;0.832825;-0.42528999999999995;-1.11523;0.8046989999999999;-0.43421000000000004;-1.08051;0.819257;-0.164223;-0.595054;-0.7094189999999999;3.3921900000000003;-3.6606699999999996;0.0;0.0;0.0;0.0;0.911067;-1.3398;-0.910057;0.0;0.0;0.0;495.14;224.0;1024.0;1024.0;1024.0;224.0;1024.0;1024.0;1024.0;1.0;4.0;0.0;0.0;0.0;0.0;0.0;;1970-01-01 00:00:01.584
6039.0;6054.0;0.0;-1.0;-1.0;-1.0;-1.0;-1.0;22.0;0.0;0.0;0.0;0.0;0.0;0.0;0.0;0.0;0.0;0.0;0.0;0.0;0.0;0.0;223.09099999999998;330.727;12.1359;216.975;340.663;0.0;101.0;1.0;0.827368;-0.38816;-1.10686;0.8115;-0.4204;-1.0884200000000002;0.783119;-0.0585778;-0.6519010000000001;-1.06379;4.15952;-3.88878;0.0;0.0;0.0;0.0;1.03764;-1.48816;-1.25959;0.0;0.0;0.0;495.14;224.0;1024.0;1024.0;1024.0;224.0;1024.0;1024.0;1024.0;1.0;4.0;0.0;0.0;0.0;0.0;0.0;;1970-01-01 00:00:01.595
6040.0;6055.0;0.0;-1.0;-1.0;-1.0;-1.0;-1.0;22.0;0.0;0.0;0.0;0.0;0.0;0.0;0.0;0.0;0.0;0.0;0.0;0.0;0.0;0.0;221.5;327.16700000000003;11.9877;215.3;336.431;0.0;102.0;1.0;0.844226;-0.39399;-1.1301299999999999;0.821318;-0.41248;-1.10093;0.7543569999999999;0.037526800000000006;-0.7019810000000001;-1.31313;4.71214;-3.98145;0.0;0.0;0.0;0.0;1.04798;-1.49399;-1.29974;0.0;0.0;0.0;495.14;224.0;1024.0;1024.0;1024.0;224.0;1024.0;1024.0;1024.0;1.0;4.0;0.0;0.0;0.0;0.0;0.0;;1970-01-01 00:00:01.606
6040.0;6055.0;0.0;-1.0;-1.0;-1.0;-1.0;-1.0;22.0;0.0;0.0;0.0;0.0;0.0;0.0;0.0;0.0;0.0;0.0;0.0;0.0;0.0;0.0;221.5;327.16700000000003;11.9877;215.3;336.431;0.0;102.0;1.0;0.844226;-0.39399;-1.1301299999999999;0.821318;-0.41248;-1.10093;0.7543569999999999;0.037526800000000006;-0.7019810000000001;-1.31313;4.71214;-3.98145;0.0;0.0;0.0;0.0;1.04798;-1.49399;-1.29974;0.0;0.0;0.0;495.14;224.0;1024.0;1024.0;1024.0;224.0;1024.0;1024.0;1024.0;1.0;4.0;0.0;0.0;0.0;0.0;0.0;;1970-01-01 00:00:01.617
6041.0;6056.0;0.0;-1.0;-1.0;-1.0;-1.0;-1.0;22.0;0.0;0.0;0.0;0.0;0.0;0.0;0.0;0.0;0.0;0.0;0.0;0.0;0.0;0.0;219.0;323.0;11.8066;213.424;332.031;0.0;103.0;1.0;0.8677549999999999;-0.40192;-1.15885;0.835249;-0.40931;-1.1183;0.7304149999999999;0.132767;-0.743459;-1.49105;5.15039;-3.8732300000000004;0.0;0.0;0.0;0.0;1.0677;-1.5019200000000001;-1.34491;0.0;0.0;0.0;495.14;224.0;1024.0;1024.0;1024.0;224.0;1024.0;1024.0;1024.0;1.0;4.0;0.0;0.0;0.0;0.0;0.0;;1970-01-01 00:00:01.628
6042.0;6057.0;0.0;-1.0;-1.0;-1.0;-1.0;-1.0;22.0;0.0;0.0;0.0;0.0;0.0;0.0;0.0;0.0;0.0;0.0;0.0;0.0;0.0;0.0;216.6;318.6;11.8009;211.433;327.445;0.0;104.0;1.0;0.878333;-0.38837;-1.17143;0.848174;-0.40303;-1.13424;0.7144659999999999;0.21847399999999997;-0.781233;-1.56302;5.412319999999999;-3.64174;0.0;0.0;0.0;0.0;1.07279;-1.48837;-1.36935;0.0;0.0;0.0;495.14;224.0;1024.0;1024.0;1024.0;224.0;1024.0;1024.0;1024.0;1.0;4.0;0.0;0.0;0.0;0.0;0.0;;1970-01-01 00:00:01.639
6042.0;6057.0;0.0;-1.0;-1.0;-1.0;-1.0;-1.0;22.0;0.0;0.0;0.0;0.0;0.0;0.0;0.0;0.0;0.0;0.0;0.0;0.0;0.0;0.0;216.6;318.6;11.8009;211.433;327.445;0.0;104.0;1.0;0.878333;-0.38837;-1.17143;0.848174;-0.40303;-1.13424;0.7144659999999999;0.21847399999999997;-0.781233;-1.56302;5.412319999999999;-3.64174;0.0;0.0;0.0;0.0;1.07279;-1.48837;-1.36935;0.0;0.0;0.0;495.14;224.0;1024.0;1024.0;1024.0;224.0;1024.0;1024.0;1024.0;1.0;4.0;0.0;0.0;0.0;0.0;0.0;;1970-01-01 00:00:01.650
6043.0;6058.0;0.0;-1.0;-1.0;-1.0;-1.0;-1.0;22.0;0.0;0.0;0.0;0.0;0.0;0.0;0.0;0.0;0.0;0.0;0.0;0.0;0.0;0.0;212.4;314.0;11.8424;208.78099999999998;322.66700000000003;0.0;105.0;1.0;0.892978;-0.36869;-1.1798600000000001;0.8616149999999999;-0.39271999999999996;-1.14793;0.7040529999999999;0.311986;-0.797322;-1.5190000000000001;5.538469999999999;-3.28294;0.0;0.0;0.0;0.0;1.08386;-1.46869;-1.38858;0.0;0.0;0.0;495.14;224.0;1024.0;1024.0;1024.0;224.0;1024.0;1024.0;1024.0;1.0;4.0;0.0;0.0;0.0;0.0;0.0;;1970-01-01 00:00:01.661
6044.0;6059.0;0.0;-1.0;-1.0;-1.0;-1.0;-1.0;22.0;0.0;0.0;0.0;0.0;0.0;0.0;0.0;0.0;0.0;0.0;0.0;0.0;0.0;0.0;208.0;310.57099999999997;12.0171;205.585;318.132;0.0;106.0;1.0;0.898281;-0.3379;-1.1719;0.8726149999999999;-0.37628;-1.1551200000000001;0.693596;0.418497;-0.7762859999999999;-1.41313;5.6497;-2.6933700000000003;0.0;0.0;0.0;0.0;1.08457;-1.4379;-1.38287;0.0;0.0;0.0;495.14;224.0;1024.0;1024.0;1024.0;224.0;1024.0;1024.0;1024.0;1.0;4.0;0.0;0.0;0.0;0.0;0.0;;1970-01-01 00:00:01.672
6044.0;6059.0;0.0;-1.0;-1.0;-1.0;-1.0;-1.0;22.0;0.0;0.0;0.0;0.0;0.0;0.0;0.0;0.0;0.0;0.0;0.0;0.0;0.0;0.0;208.0;310.57099999999997;12.0171;205.585;318.132;0.0;106.0;1.0;0.898281;-0.3379;-1.1719;0.8726149999999999;-0.37628;-1.1551200000000001;0.693596;0.418497;-0.7762859999999999;-1.41313;5.6497;-2.6933700000000003;0.0;0.0;0.0;0.0;1.08457;-1.4379;-1.38287;0.0;0.0;0.0;495.14;224.0;1024.0;1024.0;1024.0;224.0;1024.0;1024.0;1024.0;1.0;4.0;0.0;0.0;0.0;0.0;0.0;;1970-01-01 00:00:01.683
6045.0;6060.0;0.0;-1.0;-1.0;-1.0;-1.0;-1.0;22.0;0.0;0.0;0.0;0.0;0.0;0.0;0.0;0.0;0.0;0.0;0.0;0.0;0.0;0.0;205.75;307.75;11.7845;202.68;313.976;0.0;107.0;1.0;0.92555;-0.35517;-1.20275;0.888495;-0.36995;-1.16941;0.723576;0.452531;-0.789154;-1.08561;5.43051;-2.1640200000000003;0.0;0.0;0.0;0.0;1.11162;-1.45517;-1.41101;0.0;0.0;0.0;495.14;224.0;1024.0;1024.0;1024.0;224.0;1024.0;1024.0;1024.0;1.0;4.0;0.0;0.0;0.0;0.0;0.0;;1970-01-01 00:00:01.694
6046.0;6061.0;0.0;-1.0;-1.0;-1.0;-1.0;-1.0;22.0;0.0;0.0;0.0;0.0;0.0;0.0;0.0;0.0;0.0;0.0;0.0;0.0;0.0;0.0;200.364;304.36400000000003;11.7373;198.986;309.921;0.0;108.0;1.0;0.952199;-0.34962;-1.2169;0.9076059999999999;-0.36385;-1.18366;0.778669;0.465678;-0.803794;-0.554297;4.96777;-1.70492;0.0;0.0;0.0;0.0;1.14946;-1.4496200000000001;-1.43204;0.0;0.0;0.0;495.14;224.0;1024.0;1024.0;1024.0;224.0;1024.0;1024.0;1024.0;1.0;4.0;0.0;0.0;0.0;0.0;0.0;;1970-01-01 00:00:01.705
6046.0;6061.0;0.0;-1.0;-1.0;-1.0;-1.0;-1.0;22.0;0.0;0.0;0.0;0.0;0.0;0.0;0.0;0.0;0.0;0.0;0.0;0.0;0.0;0.0;200.364;304.36400000000003;11.7373;198.986;309.921;0.0;108.0;1.0;0.952199;-0.34962;-1.2169;0.9076059999999999;-0.36385;-1.18366;0.778669;0.465678;-0.803794;-0.554297;4.96777;-1.70492;0.0;0.0;0.0;0.0;1.14946;-1.4496200000000001;-1.43204;0.0;0.0;0.0;495.14;224.0;1024.0;1024.0;1024.0;224.0;1024.0;1024.0;1024.0;1.0;4.0;0.0;0.0;0.0;0.0;0.0;;1970-01-01 00:00:01.716
6047.0;6062.0;0.0;-1.0;-1.0;-1.0;-1.0;-1.0;22.0;0.0;0.0;0.0;0.0;0.0;0.0;0.0;0.0;0.0;0.0;0.0;0.0;0.0;0.0;195.0;301.0;11.735;194.727;305.952;0.0;109.0;1.0;0.9752209999999999;-0.33895;-1.22638;0.927891;-0.35638000000000003;-1.1964700000000001;0.83709;0.490742;-0.794383;0.09334010000000001;4.40994;-1.22627;0.0;0.0;0.0;0.0;1.19131;-1.43895;-1.44944;0.0;0.0;0.0;495.14;224.0;1024.0;1024.0;1024.0;224.0;1024.0;1024.0;1024.0;1.0;4.0;0.0;0.0;0.0;0.0;0.0;;1970-01-01 00:00:01.727
6048.0;6063.0;0.0;-1.0;-1.0;-1.0;-1.0;-1.0;22.0;0.0;0.0;0.0;0.0;0.0;0.0;0.0;0.0;0.0;0.0;0.0;0.0;0.0;0.0;189.6;298.0;11.853;190.048;302.16900000000004;0.0;110.0;1.0;0.988274;-0.31597;-1.22234;0.9460059999999999;-0.34425;-1.20423;0.892864;0.5291020000000001;-0.756084;0.768288;3.8862;-0.635353;0.0;0.0;0.0;0.0;1.22163;-1.4159700000000002;-1.44379;0.0;0.0;0.0;495.14;224.0;1024.0;1024.0;1024.0;224.0;1024.0;1024.0;1024.0;1.0;4.0;0.0;0.0;0.0;0.0;0.0;;1970-01-01 00:00:01.738
6048.0;6063.0;0.0;-1.0;-1.0;-1.0;-1.0;-1.0;22.0;0.0;0.0;0.0;0.0;0.0;0.0;0.0;0.0;0.0;0.0;0.0;0.0;0.0;0.0;189.6;298.0;11.853;190.048;302.16900000000004;0.0;110.0;1.0;0.988274;-0.31597;-1.22234;0.9460059999999999;-0.34425;-1.20423;0.892864;0.5291020000000001;-0.756084;0.768288;3.8862;-0.635353;0.0;0.0;0.0;0.0;1.22163;-1.4159700000000002;-1.44379;0.0;0.0;0.0;495.14;224.0;1024.0;1024.0;1024.0;224.0;1024.0;1024.0;1024.0;1.0;4.0;0.0;0.0;0.0;0.0;0.0;;1970-01-01 00:00:01.749
6049.0;6064.0;0.0;-1.0;-1.0;-1.0;-1.0;-1.0;22.0;0.0;0.0;0.0;0.0;0.0;0.0;0.0;0.0;0.0;0.0;0.0;0.0;0.0;0.0;186.90900000000002;295.27299999999997;11.9119;185.93200000000002;298.612;0.0;111.0;1.0;0.99467;-0.30072;-1.2236799999999999;0.9606049999999999;-0.33119;-1.21007;0.930951;0.563135;-0.701751;1.3669;3.3344699999999996;0.000368029;0.0;0.0;0.0;0.0;1.244;-1.40072;-1.43482;0.0;0.0;0.0;495.14;224.0;1024.0;1024.0;1024.0;224.0;1024.0;1024.0;1024.0;1.0;4.0;0.0;0.0;0.0;0.0;0.0;;1970-01-01 00:00:01.760
6050.0;6065.0;0.0;-1.0;-1.0;-1.0;-1.0;-1.0;22.0;0.0;0.0;0.0;0.0;0.0;0.0;0.0;0.0;0.0;0.0;0.0;0.0;0.0;0.0;179.81799999999998;292.72700000000003;11.6601;180.824;295.281;0.0;112.0;1.0;1.04653;-0.32048000000000004;-1.25714;0.986383;-0.32798;-1.22419;1.01281;0.530713;-0.6968270000000001;2.09465;2.4487200000000002;0.317474;0.0;0.0;0.0;0.0;1.31325;-1.42048;-1.4582;0.0;0.0;0.0;495.14;224.0;1024.0;1024.0;1024.0;224.0;1024.0;1024.0;1024.0;1.0;4.0;0.0;0.0;0.0;0.0;0.0;;1970-01-01 00:00:01.771
6051.0;6066.0;0.0;-1.0;-1.0;-1.0;-1.0;-1.0;22.0;0.0;0.0;0.0;0.0;0.0;0.0;0.0;0.0;0.0;0.0;0.0;0.0;0.0;0.0;174.4;290.0;11.9307;175.53099999999998;292.061;0.0;113.0;1.0;1.04548;-0.28181;-1.236;1.00411;-0.31413;-1.22773;1.06931;0.541284;-0.650963;2.6371700000000002;1.82359;0.742233;0.0;0.0;0.0;0.0;1.3358299999999999;-1.38181;-1.4357600000000001;0.0;0.0;0.0;495.14;224.0;1024.0;1024.0;1024.0;224.0;1024.0;1024.0;1024.0;1.0;4.0;0.0;0.0;0.0;0.0;0.0;;1970-01-01 00:00:01.782
6051.0;6066.0;0.0;-1.0;-1.0;-1.0;-1.0;-1.0;22.0;0.0;0.0;0.0;0.0;0.0;0.0;0.0;0.0;0.0;0.0;0.0;0.0;0.0;0.0;174.4;290.0;11.9307;175.53099999999998;292.061;0.0;113.0;1.0;1.04548;-0.28181;-1.236;1.00411;-0.31413;-1.22773;1.06931;0.541284;-0.650963;2.6371700000000002;1.82359;0.742233;0.0;0.0;0.0;0.0;1.3358299999999999;-1.38181;-1.4357600000000001;0.0;0.0;0.0;495.14;224.0;1024.0;1024.0;1024.0;224.0;1024.0;1024.0;1024.0;1.0;4.0;0.0;0.0;0.0;0.0;0.0;;1970-01-01 00:00:01.793
6052.0;6067.0;0.0;-1.0;-1.0;-1.0;-1.0;-1.0;22.0;0.0;0.0;0.0;0.0;0.0;0.0;0.0;0.0;0.0;0.0;0.0;0.0;0.0;0.0;169.111;287.33299999999997;12.2829;170.15099999999998;288.944;0.0;114.0;1.0;1.03701;-0.23676999999999998;-1.20756;1.0139799999999999;-0.29091999999999996;-1.2216799999999999;1.06631;0.6159399999999999;-0.5423979999999999;2.73074;1.6941;1.489;0.0;0.0;0.0;0.0;1.33848;-1.33677;-1.39109;0.0;0.0;0.0;495.14;224.0;1024.0;1024.0;1024.0;224.0;1024.0;1024.0;1024.0;1.0;4.0;0.0;0.0;0.0;0.0;0.0;;1970-01-01 00:00:01.804
6053.0;6068.0;0.0;-1.0;-1.0;-1.0;-1.0;-1.0;22.0;0.0;0.0;0.0;0.0;0.0;0.0;0.0;0.0;0.0;0.0;0.0;0.0;0.0;0.0;165.75;284.25;12.0799;165.325;285.772;0.0;115.0;1.0;1.06834;-0.24781999999999998;-1.23609;1.03029;-0.27799;-1.226;1.04863;0.6825359999999999;-0.443341;2.48305;1.78223;2.2949900000000003;0.0;0.0;0.0;0.0;1.36994;-1.34782;-1.3895;0.0;0.0;0.0;495.14;224.0;1024.0;1024.0;1024.0;224.0;1024.0;1024.0;1024.0;1.0;4.0;0.0;0.0;0.0;0.0;0.0;;1970-01-01 00:00:01.815
6053.0;6068.0;0.0;-1.0;-1.0;-1.0;-1.0;-1.0;22.0;0.0;0.0;0.0;0.0;0.0;0.0;0.0;0.0;0.0;0.0;0.0;0.0;0.0;0.0;165.75;284.25;12.0799;165.325;285.772;0.0;115.0;1.0;1.06834;-0.24781999999999998;-1.23609;1.03029;-0.27799;-1.226;1.04863;0.6825359999999999;-0.443341;2.48305;1.78223;2.2949900000000003;0.0;0.0;0.0;0.0;1.36994;-1.34782;-1.3895;0.0;0.0;0.0;495.14;224.0;1024.0;1024.0;1024.0;224.0;1024.0;1024.0;1024.0;1.0;4.0;0.0;0.0;0.0;0.0;0.0;;1970-01-01 00:00:01.826
6054.0;6069.0;0.0;-1.0;-1.0;-1.0;-1.0;-1.0;22.0;0.0;0.0;0.0;0.0;0.0;0.0;0.0;0.0;0.0;0.0;0.0;0.0;0.0;0.0;162.571;282.0;11.9814;160.963;282.829;0.0;116.0;1.0;1.09038;-0.25090999999999997;-1.25231;1.0483200000000001;-0.26987;-1.2339;1.03767;0.706522;-0.38443;2.06799;1.77772;2.86088;0.0;0.0;0.0;0.0;1.3853799999999998;-1.35091;-1.37703;0.0;0.0;0.0;495.14;224.0;1024.0;1024.0;1024.0;224.0;1024.0;1024.0;1024.0;1.0;4.0;0.0;0.0;0.0;0.0;0.0;;1970-01-01 00:00:01.837
6055.0;6070.0;0.0;-1.0;-1.0;-1.0;-1.0;-1.0;22.0;0.0;0.0;0.0;0.0;0.0;0.0;0.0;0.0;0.0;0.0;0.0;0.0;0.0;0.0;160.25;278.25;11.9029;157.214;279.57599999999996;0.0;117.0;1.0;1.10732;-0.24715;-1.27073;1.06602;-0.26305;-1.24495;1.0434700000000001;0.6959850000000001;-0.369919;1.69006;1.5970600000000001;3.04143;0.0;0.0;0.0;0.0;1.39904;-1.34715;-1.37881;0.0;0.0;0.0;495.14;224.0;1024.0;1024.0;1024.0;224.0;1024.0;1024.0;1024.0;1.0;4.0;0.0;0.0;0.0;0.0;0.0;;1970-01-01 00:00:01.848
6055.0;6070.0;0.0;-1.0;-1.0;-1.0;-1.0;-1.0;22.0;0.0;0.0;0.0;0.0;0.0;0.0;0.0;0.0;0.0;0.0;0.0;0.0;0.0;0.0;160.25;278.25;11.9029;157.214;279.57599999999996;0.0;117.0;1.0;1.10732;-0.24715;-1.27073;1.06602;-0.26305;-1.24495;1.0434700000000001;0.6959850000000001;-0.369919;1.69006;1.5970600000000001;3.04143;0.0;0.0;0.0;0.0;1.39904;-1.34715;-1.37881;0.0;0.0;0.0;495.14;224.0;1024.0;1024.0;1024.0;224.0;1024.0;1024.0;1024.0;1.0;4.0;0.0;0.0;0.0;0.0;0.0;;1970-01-01 00:00:01.859
6056.0;6071.0;0.0;-1.0;-1.0;-1.0;-1.0;-1.0;22.0;0.0;0.0;0.0;0.0;0.0;0.0;0.0;0.0;0.0;0.0;0.0;0.0;0.0;0.0;159.333;274.222;11.8586;154.359;276.012;0.0;118.0;1.0;1.11531;-0.23885;-1.28643;1.08081;-0.25579;-1.25739;1.00308;0.7058220000000001;-0.354517;0.975201;1.6573900000000001;3.19159;0.0;0.0;0.0;0.0;1.4099;-1.33885;-1.39087;0.0;0.0;0.0;495.14;224.0;1024.0;1024.0;1024.0;224.0;1024.0;1024.0;1024.0;1.0;4.0;0.0;0.0;0.0;0.0;0.0;;1970-01-01 00:00:01.870
6057.0;6072.0;0.0;-1.0;-1.0;-1.0;-1.0;-1.0;22.0;0.0;0.0;0.0;0.0;0.0;0.0;0.0;0.0;0.0;0.0;0.0;0.0;0.0;0.0;159.75;271.0;11.9856;152.577;272.482;0.0;119.0;1.0;1.10175;-0.21545999999999998;-1.28146;1.08709;-0.24369000000000002;-1.26461;0.933148;0.704734;-0.35996;0.0414876;1.64703;3.0768299999999997;0.0;0.0;0.0;0.0;1.37853;-1.31546;-1.37929;0.0;0.0;0.0;495.14;224.0;1024.0;1024.0;1024.0;224.0;1024.0;1024.0;1024.0;1.0;4.0;0.0;0.0;0.0;0.0;0.0;;1970-01-01 00:00:01.881
6057.0;6072.0;0.0;-1.0;-1.0;-1.0;-1.0;-1.0;22.0;0.0;0.0;0.0;0.0;0.0;0.0;0.0;0.0;0.0;0.0;0.0;0.0;0.0;0.0;159.75;271.0;11.9856;152.577;272.482;0.0;119.0;1.0;1.10175;-0.21545999999999998;-1.28146;1.08709;-0.24369000000000002;-1.26461;0.933148;0.704734;-0.35996;0.0414876;1.64703;3.0768299999999997;0.0;0.0;0.0;0.0;1.37853;-1.31546;-1.37929;0.0;0.0;0.0;495.14;224.0;1024.0;1024.0;1024.0;224.0;1024.0;1024.0;1024.0;1.0;4.0;0.0;0.0;0.0;0.0;0.0;;1970-01-01 00:00:01.892
6058.0;6073.0;0.0;-1.0;-1.0;-1.0;-1.0;-1.0;22.0;0.0;0.0;0.0;0.0;0.0;0.0;0.0;0.0;0.0;0.0;0.0;0.0;0.0;0.0;160.571;268.0;11.7754;151.7;269.052;0.0;120.0;1.0;1.11794;-0.22744;-1.31256;1.0963399999999999;-0.23881;-1.2790000000000001;0.888734;0.6308819999999999;-0.444825;-0.684091;1.04788;2.23568;0.0;0.0;0.0;0.0;1.3750200000000001;-1.32744;-1.41173;0.0;0.0;0.0;495.14;224.0;1024.0;1024.0;1024.0;224.0;1024.0;1024.0;1024.0;1.0;4.0;0.0;0.0;0.0;0.0;0.0;;1970-01-01 00:00:01.903
6059.0;6074.0;0.0;-1.0;-1.0;-1.0;-1.0;-1.0;22.0;0.0;0.0;0.0;0.0;0.0;0.0;0.0;0.0;0.0;0.0;0.0;0.0;0.0;0.0;161.0;264.0;11.7866;151.351;265.378;0.0;121.0;1.0;1.11506;-0.21333000000000002;-1.32226;1.10196;-0.23117;-1.29198;0.81939;0.565476;-0.530305;-1.3257299999999999;0.161347;0.994189;0.0;0.0;0.0;0.0;1.3590799999999998;-1.3133299999999999;-1.4444;0.0;0.0;0.0;495.14;224.0;1024.0;1024.0;1024.0;224.0;1024.0;1024.0;1024.0;1.0;4.0;0.0;0.0;0.0;0.0;0.0;;1970-01-01 00:00:01.914
6059.0;6074.0;0.0;-1.0;-1.0;-1.0;-1.0;-1.0;22.0;0.0;0.0;0.0;0.0;0.0;0.0;0.0;0.0;0.0;0.0;0.0;0.0;0.0;0.0;161.0;264.0;11.7866;151.351;265.378;0.0;121.0;1.0;1.11506;-0.21333000000000002;-1.32226;1.10196;-0.23117;-1.29198;0.81939;0.565476;-0.530305;-1.3257299999999999;0.161347;0.994189;0.0;0.0;0.0;0.0;1.3590799999999998;-1.3133299999999999;-1.4444;0.0;0.0;0.0;495.14;224.0;1024.0;1024.0;1024.0;224.0;1024.0;1024.0;1024.0;1.0;4.0;0.0;0.0;0.0;0.0;0.0;;1970-01-01 00:00:01.925
6060.0;6075.0;0.0;-1.0;-1.0;-1.0;-1.0;-1.0;22.0;0.0;0.0;0.0;0.0;0.0;0.0;0.0;0.0;0.0;0.0;0.0;0.0;0.0;0.0;162.667;260.222;11.7119;151.775;261.6;0.0;122.0;1.0;1.11506;-0.20876;-1.3411;1.10589;-0.22444;-1.30671;0.721507;0.520641;-0.608923;-2.05777;-0.645356;-0.299813;0.0;0.0;0.0;0.0;1.3399;-1.3087600000000001;-1.48661;0.0;0.0;0.0;495.14;224.0;1024.0;1024.0;1024.0;224.0;1024.0;1024.0;1024.0;1.0;4.0;0.0;0.0;0.0;0.0;0.0;;1970-01-01 00:00:01.936
6061.0;6076.0;0.0;-1.0;-1.0;-1.0;-1.0;-1.0;22.0;0.0;0.0;0.0;0.0;0.0;0.0;0.0;0.0;0.0;0.0;0.0;0.0;0.0;0.0;165.333;257.111;11.5132;153.071;257.96299999999997;0.0;123.0;1.0;1.12273;-0.21930999999999998;-1.37296;1.11094;-0.2229;-1.32659;0.612284;0.472679;-0.691314;-2.95627;-1.2788;-1.4631100000000001;0.0;0.0;0.0;0.0;1.32169;-1.31931;-1.54087;0.0;0.0;0.0;495.14;224.0;1024.0;1024.0;1024.0;224.0;1024.0;1024.0;1024.0;1.0;4.0;0.0;0.0;0.0;0.0;0.0;;1970-01-01 00:00:01.947
6062.0;6077.0;0.0;-1.0;-1.0;-1.0;-1.0;-1.0;22.0;0.0;0.0;0.0;0.0;0.0;0.0;0.0;0.0;0.0;0.0;0.0;0.0;0.0;0.0;166.0;254.571;11.5973;154.356;254.614;0.0;124.0;1.0;1.1117299999999999;-0.20212;-1.3700700000000001;1.1111799999999998;-0.21666999999999997;-1.3396299999999999;0.488638;0.43981000000000003;-0.7431399999999999;-3.8277699999999997;-1.82938;-2.42951;0.0;0.0;0.0;0.0;1.27833;-1.3021200000000002;-1.55817;0.0;0.0;0.0;495.14;224.0;1024.0;1024.0;1024.0;224.0;1024.0;1024.0;1024.0;1.0;4.0;0.0;0.0;0.0;0.0;0.0;;1970-01-01 00:00:01.958
6062.0;6077.0;0.0;-1.0;-1.0;-1.0;-1.0;-1.0;22.0;0.0;0.0;0.0;0.0;0.0;0.0;0.0;0.0;0.0;0.0;0.0;0.0;0.0;0.0;166.0;254.571;11.5973;154.356;254.614;0.0;124.0;1.0;1.1117299999999999;-0.20212;-1.3700700000000001;1.1111799999999998;-0.21666999999999997;-1.3396299999999999;0.488638;0.43981000000000003;-0.7431399999999999;-3.8277699999999997;-1.82938;-2.42951;0.0;0.0;0.0;0.0;1.27833;-1.3021200000000002;-1.55817;0.0;0.0;0.0;495.14;224.0;1024.0;1024.0;1024.0;224.0;1024.0;1024.0;1024.0;1.0;4.0;0.0;0.0;0.0;0.0;0.0;;1970-01-01 00:00:01.969
6063.0;6078.0;0.0;-1.0;-1.0;-1.0;-1.0;-1.0;22.0;0.0;0.0;0.0;0.0;0.0;0.0;0.0;0.0;0.0;0.0;0.0;0.0;0.0;0.0;169.0;250.4;11.5599;156.36700000000002;250.955;0.0;125.0;1.0;1.10235;-0.19222999999999998;-1.3861299999999999;1.10853;-0.20934;-1.35358;0.378789;0.401045;-0.8011;-4.51003;-2.3101599999999998;-3.21904;0.0;0.0;0.0;0.0;1.23409;-1.29223;-1.58648;0.0;0.0;0.0;495.14;224.0;1024.0;1024.0;1024.0;224.0;1024.0;1024.0;1024.0;1.0;4.0;0.0;0.0;0.0;0.0;0.0;;1970-01-01 00:00:01.980
6064.0;6079.0;0.0;-1.0;-1.0;-1.0;-1.0;-1.0;22.0;0.0;0.0;0.0;0.0;0.0;0.0;0.0;0.0;0.0;0.0;0.0;0.0;0.0;0.0;171.75;247.75;11.4439;158.819;247.55900000000003;0.0;126.0;1.0;1.10153;-0.19549;-1.4076600000000001;1.10643;-0.20518000000000003;-1.3698;0.26753699999999997;0.37490999999999997;-0.843216;-5.18626;-2.4081099999999998;-3.52207;0.0;0.0;0.0;0.0;1.2042700000000002;-1.29549;-1.62495;0.0;0.0;0.0;495.14;224.0;1024.0;1024.0;1024.0;224.0;1024.0;1024.0;1024.0;1.0;4.0;0.0;0.0;0.0;0.0;0.0;;1970-01-01 00:00:01.991
6064.0;6079.0;0.0;-1.0;-1.0;-1.0;-1.0;-1.0;22.0;0.0;0.0;0.0;0.0;0.0;0.0;0.0;0.0;0.0;0.0;0.0;0.0;0.0;0.0;171.75;247.75;11.4439;158.819;247.55900000000003;0.0;126.0;1.0;1.10153;-0.19549;-1.4076600000000001;1.10643;-0.20518000000000003;-1.3698;0.26753699999999997;0.37490999999999997;-0.843216;-5.18626;-2.4081099999999998;-3.52207;0.0;0.0;0.0;0.0;1.2042700000000002;-1.29549;-1.62495;0.0;0.0;0.0;495.14;224.0;1024.0;1024.0;1024.0;224.0;1024.0;1024.0;1024.0;1.0;4.0;0.0;0.0;0.0;0.0;0.0;;1970-01-01 00:00:02.002
6065.0;6080.0;0.0;-1.0;-1.0;-1.0;-1.0;-1.0;22.0;0.0;0.0;0.0;0.0;0.0;0.0;0.0;0.0;0.0;0.0;0.0;0.0;0.0;0.0;172.222;244.667;11.241;160.852;244.21900000000002;0.0;127.0;1.0;1.11931;-0.2066;-1.44191;1.11029;-0.20561;-1.39143;0.19379100000000002;0.32700300000000004;-0.9030299999999999;-5.60957;-2.39701;-3.60141;0.0;0.0;0.0;0.0;1.19307;-1.3066;-1.67439;0.0;0.0;0.0;495.14;224.0;1024.0;1024.0;1024.0;224.0;1024.0;1024.0;1024.0;1.0;4.0;0.0;0.0;0.0;0.0;0.0;;1970-01-01 00:00:02.013
6066.0;6081.0;0.0;-1.0;-1.0;-1.0;-1.0;-1.0;22.0;0.0;0.0;0.0;0.0;0.0;0.0;0.0;0.0;0.0;0.0;0.0;0.0;0.0;0.0;174.333;241.667;11.2767;163.097;240.947;0.0;128.0;1.0;1.1064100000000001;-0.19263;-1.44593;1.10913;-0.20171;-1.40778;0.1292;0.286959;-0.945351;-5.730630000000001;-2.37122;-3.50409;0.0;0.0;0.0;0.0;1.1601299999999999;-1.29263;-1.69625;0.0;0.0;0.0;495.14;224.0;1024.0;1024.0;1024.0;224.0;1024.0;1024.0;1024.0;1.0;4.0;0.0;0.0;0.0;0.0;0.0;;1970-01-01 00:00:02.024
6066.0;6081.0;0.0;-1.0;-1.0;-1.0;-1.0;-1.0;22.0;0.0;0.0;0.0;0.0;0.0;0.0;0.0;0.0;0.0;0.0;0.0;0.0;0.0;0.0;174.333;241.667;11.2767;163.097;240.947;0.0;128.0;1.0;1.1064100000000001;-0.19263;-1.44593;1.10913;-0.20171;-1.40778;0.1292;0.286959;-0.945351;-5.730630000000001;-2.37122;-3.50409;0.0;0.0;0.0;0.0;1.1601299999999999;-1.29263;-1.69625;0.0;0.0;0.0;495.14;224.0;1024.0;1024.0;1024.0;224.0;1024.0;1024.0;1024.0;1.0;4.0;0.0;0.0;0.0;0.0;0.0;;1970-01-01 00:00:02.035
6067.0;6082.0;0.0;-1.0;-1.0;-1.0;-1.0;-1.0;22.0;0.0;0.0;0.0;0.0;0.0;0.0;0.0;0.0;0.0;0.0;0.0;0.0;0.0;0.0;176.571;238.0;11.1719;165.528;237.513;0.0;129.0;1.0;1.10679;-0.1913;-1.4700799999999998;1.10843;-0.19859000000000002;-1.4264700000000001;0.06746460000000001;0.269255;-0.9660340000000001;-5.61375;-2.23497;-3.19936;0.0;0.0;0.0;0.0;1.14315;-1.2913;-1.73613;0.0;0.0;0.0;495.14;224.0;1024.0;1024.0;1024.0;224.0;1024.0;1024.0;1024.0;1.0;4.0;0.0;0.0;0.0;0.0;0.0;;1970-01-01 00:00:02.046
6068.0;6083.0;0.0;-1.0;-1.0;-1.0;-1.0;-1.0;22.0;0.0;0.0;0.0;0.0;0.0;0.0;0.0;0.0;0.0;0.0;0.0;0.0;0.0;0.0;178.25;234.25;10.98;167.90599999999998;233.938;0.0;130.0;1.0;1.11848;-0.19908;-1.50678;1.11144;-0.19874;-1.45056;0.041535;0.23314400000000002;-1.02255;-5.15345;-2.1661599999999996;-3.03526;0.0;0.0;0.0;0.0;1.13784;-1.29908;-1.78387;0.0;0.0;0.0;495.14;224.0;1024.0;1024.0;1024.0;224.0;1024.0;1024.0;1024.0;1.0;4.0;0.0;0.0;0.0;0.0;0.0;;1970-01-01 00:00:02.057
6068.0;6083.0;0.0;-1.0;-1.0;-1.0;-1.0;-1.0;22.0;0.0;0.0;0.0;0.0;0.0;0.0;0.0;0.0;0.0;0.0;0.0;0.0;0.0;0.0;178.25;234.25;10.98;167.90599999999998;233.938;0.0;130.0;1.0;1.11848;-0.19908;-1.50678;1.11144;-0.19874;-1.45056;0.041535;0.23314400000000002;-1.02255;-5.15345;-2.1661599999999996;-3.03526;0.0;0.0;0.0;0.0;1.13784;-1.29908;-1.78387;0.0;0.0;0.0;495.14;224.0;1024.0;1024.0;1024.0;224.0;1024.0;1024.0;1024.0;1.0;4.0;0.0;0.0;0.0;0.0;0.0;;1970-01-01 00:00:02.068
6069.0;6084.0;0.0;-1.0;-1.0;-1.0;-1.0;-1.0;22.0;0.0;0.0;0.0;0.0;0.0;0.0;0.0;0.0;0.0;0.0;0.0;0.0;0.0;0.0;178.0;232.571;10.9987;169.623;230.922;0.0;131.0;1.0;1.11772;-0.19122999999999998;-1.50914;1.11333;-0.19648;-1.46814;0.044074;0.191202;-1.07093;-4.42853;-2.1375599999999997;-2.89854;0.0;0.0;0.0;0.0;1.1298;-1.2912299999999999;-1.80647;0.0;0.0;0.0;495.14;224.0;1024.0;1024.0;1024.0;224.0;1024.0;1024.0;1024.0;1.0;4.0;0.0;0.0;0.0;0.0;0.0;;1970-01-01 00:00:02.079
6070.0;6085.0;0.0;-1.0;-1.0;-1.0;-1.0;-1.0;22.0;0.0;0.0;0.0;0.0;0.0;0.0;0.0;0.0;0.0;0.0;0.0;0.0;0.0;0.0;179.0;229.0;10.7798;171.252;227.71;0.0;132.0;1.0;1.13578;-0.20277;-1.55047;1.12006;-0.19837;-1.49284;0.08088730000000001;0.141915;-1.13381;-3.4023800000000004;-2.21285;-2.89942;0.0;0.0;0.0;0.0;1.14901;-1.30277;-1.8719299999999999;0.0;0.0;0.0;495.14;224.0;1024.0;1024.0;1024.0;224.0;1024.0;1024.0;1024.0;1.0;4.0;0.0;0.0;0.0;0.0;0.0;;1970-01-01 00:00:02.090
6070.0;6085.0;0.0;-1.0;-1.0;-1.0;-1.0;-1.0;22.0;0.0;0.0;0.0;0.0;0.0;0.0;0.0;0.0;0.0;0.0;0.0;0.0;0.0;0.0;179.0;229.0;10.7798;171.252;227.71;0.0;132.0;1.0;1.13578;-0.20277;-1.55047;1.12006;-0.19837;-1.49284;0.08088730000000001;0.141915;-1.13381;-3.4023800000000004;-2.21285;-2.89942;0.0;0.0;0.0;0.0;1.14901;-1.30277;-1.8719299999999999;0.0;0.0;0.0;495.14;224.0;1024.0;1024.0;1024.0;224.0;1024.0;1024.0;1024.0;1.0;4.0;0.0;0.0;0.0;0.0;0.0;;1970-01-01 00:00:02.101
6071.0;6086.0;0.0;-1.0;-1.0;-1.0;-1.0;-1.0;22.0;0.0;0.0;0.0;0.0;0.0;0.0;0.0;0.0;0.0;0.0;0.0;0.0;0.0;0.0;178.333;225.667;10.7623;172.278;224.43200000000002;0.0;133.0;1.0;1.1407200000000002;-0.19291;-1.56298;1.12626;-0.19673;-1.51388;0.112299;0.120576;-1.16919;-2.3668099999999996;-2.15194;-2.8023700000000002;0.0;0.0;0.0;0.0;1.1655;-1.29291;-1.91028;0.0;0.0;0.0;495.14;224.0;1024.0;1024.0;1024.0;224.0;1024.0;1024.0;1024.0;1.0;4.0;0.0;0.0;0.0;0.0;0.0;;1970-01-01 00:00:02.112
6072.0;6087.0;0.0;-1.0;-1.0;-1.0;-1.0;-1.0;22.0;0.0;0.0;0.0;0.0;0.0;0.0;0.0;0.0;0.0;0.0;0.0;0.0;0.0;0.0;178.0;223.429;10.9426;172.97;221.458;0.0;134.0;1.0;1.12345;-0.16546;-1.54383;1.12542;-0.18735;-1.52286;0.132429;0.129693;-1.1610200000000002;-1.40719;-1.9191;-2.5425400000000002;0.0;0.0;0.0;0.0;1.1576799999999998;-1.26546;-1.9002;0.0;0.0;0.0;495.14;224.0;1024.0;1024.0;1024.0;224.0;1024.0;1024.0;1024.0;1.0;4.0;0.0;0.0;0.0;0.0;0.0;;1970-01-01 00:00:02.123
6073.0;6088.0;0.0;-1.0;-1.0;-1.0;-1.0;-1.0;22.0;0.0;0.0;0.0;0.0;0.0;0.0;0.0;0.0;0.0;0.0;0.0;0.0;0.0;0.0;178.0;221.0;10.6267;173.521;218.643;0.0;135.0;1.0;1.15685;-0.19139;-1.5971;1.13485;-0.18855999999999998;-1.54513;0.18495999999999999;0.117854;-1.17039;-0.375193;-1.75595;-2.3414599999999997;0.0;0.0;0.0;0.0;1.19831;-1.29139;-1.96055;0.0;0.0;0.0;495.14;224.0;1024.0;1024.0;1024.0;224.0;1024.0;1024.0;1024.0;1.0;4.0;0.0;0.0;0.0;0.0;0.0;;1970-01-01 00:00:02.134
6073.0;6088.0;0.0;-1.0;-1.0;-1.0;-1.0;-1.0;22.0;0.0;0.0;0.0;0.0;0.0;0.0;0.0;0.0;0.0;0.0;0.0;0.0;0.0;0.0;178.0;221.0;10.6267;173.521;218.643;0.0;135.0;1.0;1.15685;-0.19139;-1.5971;1.13485;-0.18855999999999998;-1.54513;0.18495999999999999;0.117854;-1.17039;-0.375193;-1.75595;-2.3414599999999997;0.0;0.0;0.0;0.0;1.19831;-1.29139;-1.96055;0.0;0.0;0.0;495.14;224.0;1024.0;1024.0;1024.0;224.0;1024.0;1024.0;1024.0;1.0;4.0;0.0;0.0;0.0;0.0;0.0;;1970-01-01 00:00:02.145
6074.0;6089.0;0.0;-1.0;-1.0;-1.0;-1.0;-1.0;22.0;0.0;0.0;0.0;0.0;0.0;0.0;0.0;0.0;0.0;0.0;0.0;0.0;0.0;0.0;178.0;217.0;10.6506;173.96599999999998;215.445;0.0;136.0;1.0;1.15425;-0.17438;-1.60561;1.14067;-0.18431;-1.56328;0.22766799999999998;0.128331;-1.1522700000000001;0.518051;-1.47205;-1.9228;0.0;0.0;0.0;0.0;1.21231;-1.2743799999999998;-1.9730400000000001;0.0;0.0;0.0;495.14;224.0;1024.0;1024.0;1024.0;224.0;1024.0;1024.0;1024.0;1.0;4.0;0.0;0.0;0.0;0.0;0.0;;1970-01-01 00:00:02.156
6075.0;6090.0;0.0;-1.0;-1.0;-1.0;-1.0;-1.0;22.0;0.0;0.0;0.0;0.0;0.0;0.0;0.0;0.0;0.0;0.0;0.0;0.0;0.0;0.0;178.0;214.571;10.6995;174.331;212.46900000000002;0.0;137.0;1.0;1.14898;-0.16036;-1.6056;1.14316;-0.17712;-1.57598;0.255723;0.154309;-1.1219299999999999;1.15588;-1.03054;-1.3572899999999999;0.0;0.0;0.0;0.0;1.21995;-1.2603600000000001;-1.9648299999999999;0.0;0.0;0.0;495.14;224.0;1024.0;1024.0;1024.0;224.0;1024.0;1024.0;1024.0;1.0;4.0;0.0;0.0;0.0;0.0;0.0;;1970-01-01 00:00:02.167
6075.0;6090.0;0.0;-1.0;-1.0;-1.0;-1.0;-1.0;22.0;0.0;0.0;0.0;0.0;0.0;0.0;0.0;0.0;0.0;0.0;0.0;0.0;0.0;0.0;178.0;214.571;10.6995;174.331;212.46900000000002;0.0;137.0;1.0;1.14898;-0.16036;-1.6056;1.14316;-0.17712;-1.57598;0.255723;0.154309;-1.1219299999999999;1.15588;-1.03054;-1.3572899999999999;0.0;0.0;0.0;0.0;1.21995;-1.2603600000000001;-1.9648299999999999;0.0;0.0;0.0;495.14;224.0;1024.0;1024.0;1024.0;224.0;1024.0;1024.0;1024.0;1.0;4.0;0.0;0.0;0.0;0.0;0.0;;1970-01-01 00:00:02.178
6076.0;6091.0;0.0;-1.0;-1.0;-1.0;-1.0;-1.0;22.0;0.0;0.0;0.0;0.0;0.0;0.0;0.0;0.0;0.0;0.0;0.0;0.0;0.0;0.0;176.0;211.0;10.7844;173.998;209.291;0.0;138.0;1.0;1.14919;-0.13858;-1.60364;1.14497;-0.16555999999999998;-1.58427;0.25288299999999997;0.22359099999999998;-1.03824;1.38025;-0.292216;-0.432783;0.0;0.0;0.0;0.0;1.22799;-1.23858;-1.9493200000000002;0.0;0.0;0.0;495.14;224.0;1024.0;1024.0;1024.0;224.0;1024.0;1024.0;1024.0;1.0;4.0;0.0;0.0;0.0;0.0;0.0;;1970-01-01 00:00:02.189
6077.0;6092.0;0.0;-1.0;-1.0;-1.0;-1.0;-1.0;22.0;0.0;0.0;0.0;0.0;0.0;0.0;0.0;0.0;0.0;0.0;0.0;0.0;0.0;0.0;176.0;208.571;10.7495;173.794;206.331;0.0;139.0;1.0;1.15293;-0.13367;-1.61614;1.14736;-0.15599000000000002;-1.5938299999999999;0.235965;0.296825;-0.9421729999999999;1.3219100000000001;0.5283760000000001;0.646726;0.0;0.0;0.0;0.0;1.22937;-1.23367;-1.92999;0.0;0.0;0.0;495.14;224.0;1024.0;1024.0;1024.0;224.0;1024.0;1024.0;1024.0;1.0;4.0;0.0;0.0;0.0;0.0;0.0;;1970-01-01 00:00:02.200
6077.0;6092.0;0.0;-1.0;-1.0;-1.0;-1.0;-1.0;22.0;0.0;0.0;0.0;0.0;0.0;0.0;0.0;0.0;0.0;0.0;0.0;0.0;0.0;0.0;176.0;208.571;10.7495;173.794;206.331;0.0;139.0;1.0;1.15293;-0.13367;-1.61614;1.14736;-0.15599000000000002;-1.5938299999999999;0.235965;0.296825;-0.9421729999999999;1.3219100000000001;0.5283760000000001;0.646726;0.0;0.0;0.0;0.0;1.22937;-1.23367;-1.92999;0.0;0.0;0.0;495.14;224.0;1024.0;1024.0;1024.0;224.0;1024.0;1024.0;1024.0;1.0;4.0;0.0;0.0;0.0;0.0;0.0;;1970-01-01 00:00:02.211
6078.0;6093.0;0.0;-1.0;-1.0;-1.0;-1.0;-1.0;22.0;0.0;0.0;0.0;0.0;0.0;0.0;0.0;0.0;0.0;0.0;0.0;0.0;0.0;0.0;175.0;206.0;10.5243;173.364;203.485;0.0;140.0;1.0;1.18235;-0.1486;-1.6586;1.1578600000000001;-0.15378;-1.6132600000000001;0.27108899999999997;0.312152;-0.9262440000000001;1.34677;1.04552;1.32541;0.0;0.0;0.0;0.0;1.25335;-1.2486;-1.9421;0.0;0.0;0.0;495.14;224.0;1024.0;1024.0;1024.0;224.0;1024.0;1024.0;1024.0;1.0;4.0;0.0;0.0;0.0;0.0;0.0;;1970-01-01 00:00:02.222
6079.0;6094.0;0.0;-1.0;-1.0;-1.0;-1.0;-1.0;22.0;0.0;0.0;0.0;0.0;0.0;0.0;0.0;0.0;0.0;0.0;0.0;0.0;0.0;0.0;174.0;201.429;10.6251;172.77;200.085;0.0;141.0;1.0;1.17583;-0.12129000000000001;-1.65674;1.16325;-0.14403;-1.6263100000000001;0.276044;0.36509400000000003;-0.879849;1.17173;1.61446;1.9552900000000002;0.0;0.0;0.0;0.0;1.25666;-1.22129;-1.93292;0.0;0.0;0.0;495.14;224.0;1024.0;1024.0;1024.0;224.0;1024.0;1024.0;1024.0;1.0;4.0;0.0;0.0;0.0;0.0;0.0;;1970-01-01 00:00:02.233
6079.0;6094.0;0.0;-1.0;-1.0;-1.0;-1.0;-1.0;22.0;0.0;0.0;0.0;0.0;0.0;0.0;0.0;0.0;0.0;0.0;0.0;0.0;0.0;0.0;174.0;201.429;10.6251;172.77;200.085;0.0;141.0;1.0;1.17583;-0.12129000000000001;-1.65674;1.16325;-0.14403;-1.6263100000000001;0.276044;0.36509400000000003;-0.879849;1.17173;1.61446;1.9552900000000002;0.0;0.0;0.0;0.0;1.25666;-1.22129;-1.93292;0.0;0.0;0.0;495.14;224.0;1024.0;1024.0;1024.0;224.0;1024.0;1024.0;1024.0;1.0;4.0;0.0;0.0;0.0;0.0;0.0;;1970-01-01 00:00:02.244
6080.0;6095.0;0.0;-1.0;-1.0;-1.0;-1.0;-1.0;22.0;0.0;0.0;0.0;0.0;0.0;0.0;0.0;0.0;0.0;0.0;0.0;0.0;0.0;0.0;172.667;197.778;10.7301;171.94799999999998;196.575;0.0;142.0;1.0;1.17054;-0.09734;-1.6515099999999998;1.16543;-0.13002;-1.6338700000000002;0.26450799999999997;0.43579300000000004;-0.809752;0.8501299999999999;2.19627;2.54073;0.0;0.0;0.0;0.0;1.25129;-1.19734;-1.9089099999999999;0.0;0.0;0.0;495.14;224.0;1024.0;1024.0;1024.0;224.0;1024.0;1024.0;1024.0;1.0;4.0;0.0;0.0;0.0;0.0;0.0;;1970-01-01 00:00:02.255
6081.0;6096.0;0.0;-1.0;-1.0;-1.0;-1.0;-1.0;22.0;0.0;0.0;0.0;0.0;0.0;0.0;0.0;0.0;0.0;0.0;0.0;0.0;0.0;0.0;173.0;195.0;10.8232;171.493;193.267;0.0;143.0;1.0;1.1589200000000002;-0.0781;-1.64557;1.1634799999999998;-0.11445;-1.6373799999999998;0.23983200000000002;0.511714;-0.731012;0.44663;2.74476;3.08523;0.0;0.0;0.0;0.0;1.23425;-1.1781;-1.8761599999999998;0.0;0.0;0.0;495.14;224.0;1024.0;1024.0;1024.0;224.0;1024.0;1024.0;1024.0;1.0;4.0;0.0;0.0;0.0;0.0;0.0;;1970-01-01 00:00:02.266
6081.0;6096.0;0.0;-1.0;-1.0;-1.0;-1.0;-1.0;22.0;0.0;0.0;0.0;0.0;0.0;0.0;0.0;0.0;0.0;0.0;0.0;0.0;0.0;0.0;173.0;195.0;10.8232;171.493;193.267;0.0;143.0;1.0;1.1589200000000002;-0.0781;-1.64557;1.1634799999999998;-0.11445;-1.6373799999999998;0.23983200000000002;0.511714;-0.731012;0.44663;2.74476;3.08523;0.0;0.0;0.0;0.0;1.23425;-1.1781;-1.8761599999999998;0.0;0.0;0.0;495.14;224.0;1024.0;1024.0;1024.0;224.0;1024.0;1024.0;1024.0;1.0;4.0;0.0;0.0;0.0;0.0;0.0;;1970-01-01 00:00:02.277
6082.0;6097.0;0.0;-1.0;-1.0;-1.0;-1.0;-1.0;22.0;0.0;0.0;0.0;0.0;0.0;0.0;0.0;0.0;0.0;0.0;0.0;0.0;0.0;0.0;171.75;191.75;10.49;170.8;189.956;0.0;144.0;1.0;1.20169;-0.10053;-1.70783;1.1749399999999999;-0.11027;-1.65851;0.26356399999999996;0.527778;-0.7350220000000001;0.310626;2.86137;3.06177;0.0;0.0;0.0;0.0;1.2706899999999999;-1.2005299999999999;-1.9181599999999999;0.0;0.0;0.0;495.14;224.0;1024.0;1024.0;1024.0;224.0;1024.0;1024.0;1024.0;1.0;4.0;0.0;0.0;0.0;0.0;0.0;;1970-01-01 00:00:02.288
6083.0;6098.0;0.0;-1.0;-1.0;-1.0;-1.0;-1.0;22.0;0.0;0.0;0.0;0.0;0.0;0.0;0.0;0.0;0.0;0.0;0.0;0.0;0.0;0.0;171.0;187.6;10.6354;170.09099999999998;186.356;0.0;145.0;1.0;1.18878;-0.07059;-1.69707;1.17909;-0.09837;-1.67008;0.28484499999999996;0.546737;-0.745438;0.381538;2.71464;2.62256;0.0;0.0;0.0;0.0;1.26396;-1.17059;-1.90673;0.0;0.0;0.0;495.14;224.0;1024.0;1024.0;1024.0;224.0;1024.0;1024.0;1024.0;1.0;4.0;0.0;0.0;0.0;0.0;0.0;;1970-01-01 00:00:02.299
6084.0;6099.0;0.0;-1.0;-1.0;-1.0;-1.0;-1.0;22.0;0.0;0.0;0.0;0.0;0.0;0.0;0.0;0.0;0.0;0.0;0.0;0.0;0.0;0.0;170.571;184.0;10.6738;169.475;182.72299999999998;0.0;146.0;1.0;1.18651;-0.05388;-1.70185;1.1813200000000001;-0.08502;-1.6796099999999998;0.26458899999999996;0.602553;-0.712154;0.202968;2.78825;2.4283200000000003;0.0;0.0;0.0;0.0;1.26795;-1.15388;-1.91498;0.0;0.0;0.0;495.14;224.0;1024.0;1024.0;1024.0;224.0;1024.0;1024.0;1024.0;1.0;4.0;0.0;0.0;0.0;0.0;0.0;;1970-01-01 00:00:02.310
6084.0;6099.0;0.0;-1.0;-1.0;-1.0;-1.0;-1.0;22.0;0.0;0.0;0.0;0.0;0.0;0.0;0.0;0.0;0.0;0.0;0.0;0.0;0.0;0.0;170.571;184.0;10.6738;169.475;182.72299999999998;0.0;146.0;1.0;1.18651;-0.05388;-1.70185;1.1813200000000001;-0.08502;-1.6796099999999998;0.26458899999999996;0.602553;-0.712154;0.202968;2.78825;2.4283200000000003;0.0;0.0;0.0;0.0;1.26795;-1.15388;-1.91498;0.0;0.0;0.0;495.14;224.0;1024.0;1024.0;1024.0;224.0;1024.0;1024.0;1024.0;1.0;4.0;0.0;0.0;0.0;0.0;0.0;;1970-01-01 00:00:02.321
6085.0;6100.0;0.0;-1.0;-1.0;-1.0;-1.0;-1.0;22.0;0.0;0.0;0.0;0.0;0.0;0.0;0.0;0.0;0.0;0.0;0.0;0.0;0.0;0.0;170.667;181.778;10.532;169.093;179.507;0.0;147.0;1.0;1.20204;-0.060020000000000004;-1.73157;1.18754;-0.07752;-1.6952;0.255722;0.627077;-0.702343;0.0406406;2.71896;2.16572;0.0;0.0;0.0;0.0;1.2779399999999999;-1.16002;-1.93586;0.0;0.0;0.0;495.14;224.0;1024.0;1024.0;1024.0;224.0;1024.0;1024.0;1024.0;1.0;4.0;0.0;0.0;0.0;0.0;0.0;;1970-01-01 00:00:02.332
6086.0;6101.0;0.0;-1.0;-1.0;-1.0;-1.0;-1.0;22.0;0.0;0.0;0.0;0.0;0.0;0.0;0.0;0.0;0.0;0.0;0.0;0.0;0.0;0.0;170.0;178.0;10.5122;168.636;176.09900000000002;0.0;148.0;1.0;1.20746;-0.0483;-1.7464099999999998;1.19351;-0.06875;-1.7105599999999999;0.265542;0.620868;-0.727611;0.028510200000000003;2.37032;1.62739;0.0;0.0;0.0;0.0;1.28084;-1.1483;-1.94793;0.0;0.0;0.0;495.14;224.0;1024.0;1024.0;1024.0;224.0;1024.0;1024.0;1024.0;1.0;4.0;0.0;0.0;0.0;0.0;0.0;;1970-01-01 00:00:02.343
6086.0;6101.0;0.0;-1.0;-1.0;-1.0;-1.0;-1.0;22.0;0.0;0.0;0.0;0.0;0.0;0.0;0.0;0.0;0.0;0.0;0.0;0.0;0.0;0.0;170.0;178.0;10.5122;168.636;176.09900000000002;0.0;148.0;1.0;1.20746;-0.0483;-1.7464099999999998;1.19351;-0.06875;-1.7105599999999999;0.265542;0.620868;-0.727611;0.028510200000000003;2.37032;1.62739;0.0;0.0;0.0;0.0;1.28084;-1.1483;-1.94793;0.0;0.0;0.0;495.14;224.0;1024.0;1024.0;1024.0;224.0;1024.0;1024.0;1024.0;1.0;4.0;0.0;0.0;0.0;0.0;0.0;;1970-01-01 00:00:02.354
6087.0;6102.0;0.0;-1.0;-1.0;-1.0;-1.0;-1.0;22.0;0.0;0.0;0.0;0.0;0.0;0.0;0.0;0.0;0.0;0.0;0.0;0.0;0.0;0.0;170.0;175.429;10.5093;168.338;172.937;0.0;149.0;1.0;1.2078;-0.03925;-1.75478;1.1978;-0.0599;-1.72383;0.296342;0.5902890000000001;-0.781726;0.242733;1.7359200000000001;0.7739520000000001;0.0;0.0;0.0;0.0;1.28461;-1.13925;-1.9652599999999998;0.0;0.0;0.0;495.14;224.0;1024.0;1024.0;1024.0;224.0;1024.0;1024.0;1024.0;1.0;4.0;0.0;0.0;0.0;0.0;0.0;;1970-01-01 00:00:02.365
6088.0;6103.0;0.0;-1.0;-1.0;-1.0;-1.0;-1.0;22.0;0.0;0.0;0.0;0.0;0.0;0.0;0.0;0.0;0.0;0.0;0.0;0.0;0.0;0.0;170.0;173.0;10.4499;168.15400000000002;170.0;0.0;150.0;1.0;1.21466;-0.0363;-1.77225;1.20286;-0.052820000000000006;-1.73835;0.28926;0.583548;-0.78781;0.248236;1.2642200000000001;0.253606;0.0;0.0;0.0;0.0;1.30233;-1.1363;-2.00351;0.0;0.0;0.0;495.14;224.0;1024.0;1024.0;1024.0;224.0;1024.0;1024.0;1024.0;1.0;4.0;0.0;0.0;0.0;0.0;0.0;;1970-01-01 00:00:02.376
6088.0;6103.0;0.0;-1.0;-1.0;-1.0;-1.0;-1.0;22.0;0.0;0.0;0.0;0.0;0.0;0.0;0.0;0.0;0.0;0.0;0.0;0.0;0.0;0.0;170.0;173.0;10.4499;168.15400000000002;170.0;0.0;150.0;1.0;1.21466;-0.0363;-1.77225;1.20286;-0.052820000000000006;-1.73835;0.28926;0.583548;-0.78781;0.248236;1.2642200000000001;0.253606;0.0;0.0;0.0;0.0;1.30233;-1.1363;-2.00351;0.0;0.0;0.0;495.14;224.0;1024.0;1024.0;1024.0;224.0;1024.0;1024.0;1024.0;1.0;4.0;0.0;0.0;0.0;0.0;0.0;;1970-01-01 00:00:02.387
6089.0;6104.0;0.0;-1.0;-1.0;-1.0;-1.0;-1.0;22.0;0.0;0.0;0.0;0.0;0.0;0.0;0.0;0.0;0.0;0.0;0.0;0.0;0.0;0.0;171.0;171.0;10.35;168.37099999999998;167.362;0.0;151.0;1.0;1.22157;-0.03893;-1.7956;1.2084700000000002;-0.04866;-1.75553;0.29084899999999997;0.548614;-0.8138569999999999;0.172913;0.7660279999999999;-0.121011;0.0;0.0;0.0;0.0;1.30798;-1.13893;-2.03095;0.0;0.0;0.0;495.14;224.0;1024.0;1024.0;1024.0;224.0;1024.0;1024.0;1024.0;1.0;4.0;0.0;0.0;0.0;0.0;0.0;;1970-01-01 00:00:02.398
6090.0;6105.0;0.0;-1.0;-1.0;-1.0;-1.0;-1.0;22.0;0.0;0.0;0.0;0.0;0.0;0.0;0.0;0.0;0.0;0.0;0.0;0.0;0.0;0.0;170.333;169.667;10.0992;168.345;165.155;0.0;152.0;1.0;1.2552;-0.0597;-1.84445;1.2224899999999999;-0.05197;-1.7822099999999998;0.338892;0.461138;-0.897951;0.400414;-0.10500699999999999;-0.814433;0.0;0.0;0.0;0.0;1.34487;-1.1597;-2.09535;0.0;0.0;0.0;495.14;224.0;1024.0;1024.0;1024.0;224.0;1024.0;1024.0;1024.0;1.0;4.0;0.0;0.0;0.0;0.0;0.0;;1970-01-01 00:00:02.409
6090.0;6105.0;0.0;-1.0;-1.0;-1.0;-1.0;-1.0;22.0;0.0;0.0;0.0;0.0;0.0;0.0;0.0;0.0;0.0;0.0;0.0;0.0;0.0;0.0;170.333;169.667;10.0992;168.345;165.155;0.0;152.0;1.0;1.2552;-0.0597;-1.84445;1.2224899999999999;-0.05197;-1.7822099999999998;0.338892;0.461138;-0.897951;0.400414;-0.10500699999999999;-0.814433;0.0;0.0;0.0;0.0;1.34487;-1.1597;-2.09535;0.0;0.0;0.0;495.14;224.0;1024.0;1024.0;1024.0;224.0;1024.0;1024.0;1024.0;1.0;4.0;0.0;0.0;0.0;0.0;0.0;;1970-01-01 00:00:02.420
6091.0;6106.0;0.0;-1.0;-1.0;-1.0;-1.0;-1.0;22.0;0.0;0.0;0.0;0.0;0.0;0.0;0.0;0.0;0.0;0.0;0.0;0.0;0.0;0.0;171.0;169.0;10.3001;168.56799999999998;163.471;0.0;153.0;1.0;1.22749;-0.03656;-1.81056;1.22399;-0.04735;-1.7907099999999998;0.348882;0.39716399999999996;-0.9201389999999999;0.612208;-0.9809700000000001;-1.35825;0.0;0.0;0.0;0.0;1.33259;-1.13656;-2.08905;0.0;0.0;0.0;495.14;224.0;1024.0;1024.0;1024.0;224.0;1024.0;1024.0;1024.0;1.0;4.0;0.0;0.0;0.0;0.0;0.0;;1970-01-01 00:00:02.431
6092.0;6107.0;0.0;-1.0;-1.0;-1.0;-1.0;-1.0;22.0;0.0;0.0;0.0;0.0;0.0;0.0;0.0;0.0;0.0;0.0;0.0;0.0;0.0;0.0;172.0;167.429;9.79226;169.075;161.876;0.0;154.0;1.0;1.28604;-0.08419;-1.90963;1.2426;-0.0584;-1.8263900000000002;0.405331;0.279646;-1.01455;0.925459;-1.95097;-1.96061;0.0;0.0;0.0;0.0;1.40034;-1.1841899999999999;-2.2111;0.0;0.0;0.0;495.14;224.0;1024.0;1024.0;1024.0;224.0;1024.0;1024.0;1024.0;1.0;4.0;0.0;0.0;0.0;0.0;0.0;;1970-01-01 00:00:02.442
6092.0;6107.0;0.0;-1.0;-1.0;-1.0;-1.0;-1.0;22.0;0.0;0.0;0.0;0.0;0.0;0.0;0.0;0.0;0.0;0.0;0.0;0.0;0.0;0.0;172.0;167.429;9.79226;169.075;161.876;0.0;154.0;1.0;1.28604;-0.08419;-1.90963;1.2426;-0.0584;-1.8263900000000002;0.405331;0.279646;-1.01455;0.925459;-1.95097;-1.96061;0.0;0.0;0.0;0.0;1.40034;-1.1841899999999999;-2.2111;0.0;0.0;0.0;495.14;224.0;1024.0;1024.0;1024.0;224.0;1024.0;1024.0;1024.0;1.0;4.0;0.0;0.0;0.0;0.0;0.0;;1970-01-01 00:00:02.453
6093.0;6108.0;0.0;-1.0;-1.0;-1.0;-1.0;-1.0;22.0;0.0;0.0;0.0;0.0;0.0;0.0;0.0;0.0;0.0;0.0;0.0;0.0;0.0;0.0;172.0;167.0;10.1951;169.46900000000002;160.709;0.0;155.0;1.0;1.2352299999999998;-0.03975;-1.8355400000000002;1.2403899999999999;-0.0528;-1.82913;0.413257;0.19613699999999998;-1.02919;1.0220799999999999;-2.7443;-2.1644;0.0;0.0;0.0;0.0;1.3667799999999999;-1.13975;-2.16482;0.0;0.0;0.0;495.14;224.0;1024.0;1024.0;1024.0;224.0;1024.0;1024.0;1024.0;1.0;4.0;0.0;0.0;0.0;0.0;0.0;;1970-01-01 00:00:02.464
6094.0;6109.0;0.0;-1.0;-1.0;-1.0;-1.0;-1.0;22.0;0.0;0.0;0.0;0.0;0.0;0.0;0.0;0.0;0.0;0.0;0.0;0.0;0.0;0.0;173.667;166.333;9.74568;170.30900000000003;159.77200000000002;0.0;156.0;1.0;1.28364;-0.08507999999999999;-1.92238;1.25337;-0.06249;-1.8571099999999998;0.449618;0.07908839999999999;-1.09166;1.2535;-3.6607199999999995;-2.51182;0.0;0.0;0.0;0.0;1.42416;-1.18508;-2.2723400000000002;0.0;0.0;0.0;495.14;224.0;1024.0;1024.0;1024.0;224.0;1024.0;1024.0;1024.0;1.0;4.0;0.0;0.0;0.0;0.0;0.0;;1970-01-01 00:00:02.475
6095.0;6110.0;0.0;-1.0;-1.0;-1.0;-1.0;-1.0;22.0;0.0;0.0;0.0;0.0;0.0;0.0;0.0;0.0;0.0;0.0;0.0;0.0;0.0;0.0;174.0;165.429;9.509;171.046;158.924;0.0;157.0;1.0;1.31384;-0.10845999999999999;-1.9733;1.2715100000000001;-0.07628;-1.8919700000000002;0.52146;-0.06284479999999999;-1.19975;1.6728599999999998;-4.63779;-3.04782;0.0;0.0;0.0;0.0;1.47349;-1.20846;-2.36092;0.0;0.0;0.0;495.14;224.0;1024.0;1024.0;1024.0;224.0;1024.0;1024.0;1024.0;1.0;4.0;0.0;0.0;0.0;0.0;0.0;;1970-01-01 00:00:02.486
6095.0;6110.0;0.0;-1.0;-1.0;-1.0;-1.0;-1.0;22.0;0.0;0.0;0.0;0.0;0.0;0.0;0.0;0.0;0.0;0.0;0.0;0.0;0.0;0.0;174.0;165.429;9.509;171.046;158.924;0.0;157.0;1.0;1.31384;-0.10845999999999999;-1.9733;1.2715100000000001;-0.07628;-1.8919700000000002;0.52146;-0.06284479999999999;-1.19975;1.6728599999999998;-4.63779;-3.04782;0.0;0.0;0.0;0.0;1.47349;-1.20846;-2.36092;0.0;0.0;0.0;495.14;224.0;1024.0;1024.0;1024.0;224.0;1024.0;1024.0;1024.0;1.0;4.0;0.0;0.0;0.0;0.0;0.0;;1970-01-01 00:00:02.497
6096.0;6111.0;0.0;-1.0;-1.0;-1.0;-1.0;-1.0;22.0;0.0;0.0;0.0;0.0;0.0;0.0;0.0;0.0;0.0;0.0;0.0;0.0;0.0;0.0;174.4;164.8;9.919780000000001;171.727;158.225;0.0;158.0;1.0;1.25742;-0.06014;-1.89363;1.26728;-0.07144;-1.89247;0.49171400000000004;-0.115448;-1.1600700000000002;1.61388;-5.08479;-2.87526;0.0;0.0;0.0;0.0;1.44157;-1.16014;-2.31731;0.0;0.0;0.0;495.14;224.0;1024.0;1024.0;1024.0;224.0;1024.0;1024.0;1024.0;1.0;4.0;0.0;0.0;0.0;0.0;0.0;;1970-01-01 00:00:02.508
6097.0;6112.0;0.0;-1.0;-1.0;-1.0;-1.0;-1.0;22.0;0.0;0.0;0.0;0.0;0.0;0.0;0.0;0.0;0.0;0.0;0.0;0.0;0.0;0.0;174.4;164.8;9.59055;172.237;157.83100000000002;0.0;159.0;1.0;1.30059;-0.09654;-1.9586400000000002;1.2772700000000001;-0.07897;-1.91232;0.507774;-0.195529;-1.18156;1.60273;-5.4173;-2.76893;0.0;0.0;0.0;0.0;1.47756;-1.19654;-2.37617;0.0;0.0;0.0;495.14;224.0;1024.0;1024.0;1024.0;224.0;1024.0;1024.0;1024.0;1.0;4.0;0.0;0.0;0.0;0.0;0.0;;1970-01-01 00:00:02.519
6097.0;6112.0;0.0;-1.0;-1.0;-1.0;-1.0;-1.0;22.0;0.0;0.0;0.0;0.0;0.0;0.0;0.0;0.0;0.0;0.0;0.0;0.0;0.0;0.0;174.4;164.8;9.59055;172.237;157.83100000000002;0.0;159.0;1.0;1.30059;-0.09654;-1.9586400000000002;1.2772700000000001;-0.07897;-1.91232;0.507774;-0.195529;-1.18156;1.60273;-5.4173;-2.76893;0.0;0.0;0.0;0.0;1.47756;-1.19654;-2.37617;0.0;0.0;0.0;495.14;224.0;1024.0;1024.0;1024.0;224.0;1024.0;1024.0;1024.0;1.0;4.0;0.0;0.0;0.0;0.0;0.0;;1970-01-01 00:00:02.530
6098.0;6113.0;0.0;-1.0;-1.0;-1.0;-1.0;-1.0;22.0;0.0;0.0;0.0;0.0;0.0;0.0;0.0;0.0;0.0;0.0;0.0;0.0;0.0;0.0;175.429;163.143;9.42967;172.95;157.125;0.0;160.0;1.0;1.31733;-0.10854000000000001;-1.9977200000000002;1.28929;-0.08784;-1.9379400000000002;0.49106099999999997;-0.234866;-1.15431;1.30393;-5.30465;-2.21937;0.0;0.0;0.0;0.0;1.5043600000000001;-1.20854;-2.43293;0.0;0.0;0.0;495.14;224.0;1024.0;1024.0;1024.0;224.0;1024.0;1024.0;1024.0;1.0;4.0;0.0;0.0;0.0;0.0;0.0;;1970-01-01 00:00:02.541
