ID;RS_ID;time;insect_log;imLx_drone; imLy_drone; disparity_drone; imLx_pred_drone; imLy_pred_drone; n_frames_lost_drone; n_frames_tracking_drone; foundL_drone; posX_drone; posY_drone; posZ_drone; sposX_drone; sposY_drone; sposZ_drone; svelX_drone; svelY_drone; svelZ_drone; saccX_drone; saccY_drone; saccZ_drone; imLx_insect; imLy_insect; disparity_insect; imLx_pred_insect; imLy_pred_insect; n_frames_lost_insect; n_frames_tracking_insect; foundL_insect; posX_insect; posY_insect; posZ_insect; sposX_insect; sposY_insect; sposZ_insect; svelX_insect; svelY_insect; svelZ_insect; saccX_insect; saccY_insect; saccZ_insect; valid; posErrX; posErrY; posErrZ; velX; velY; velZ; accX; accY; accZ; hoverthrottle; autoThrottle; autoRoll; autoPitch; autoYaw; joyThrottle; joyRoll; joyPitch; joyYaw; joyArmSwitch; joyModeSwitch; joyTakeoffSwitch; dt; velx_sp; vely_sp; velz_sp;
462;468;2019/11/01 19:59:16;0;-1;-1;-1;-1;-1;100;0;0;0;0;0;0;0;0;0;0;0;0;0;0;20;355.429;12.1521;20;355.429;0;1;1;1.66117;-1.46246;-1.0418;1.66117;-1.46246;-1.0418;0;0;0;0;0;0;0;0;0;0;0;0;0;0;0;0;675;304;1024;1024;1024;224;1024;1024;1024;1;4;0;0;0;0;0; 
463;469;2019/11/01 19:59:16;0;-1;-1;-1;-1;-1;100;0;0;0;0;0;0;0;0;0;0;0;0;0;0;27.4286;352;11.9432;20.6753;355.117;0;2;1;1.65915;-1.47708;-1.06927;1.66056;-1.46685;-1.05004;0;0;0;0;0;0;0;0;0;0;0;0;0;0;0;0;675;304;1024;1024;1024;224;1024;1024;1024;1;4;0;0;0;0;0; 
464;470;2019/11/01 19:59:16;0;-1;-1;-1;-1;-1;100;0;0;0;0;0;0;0;0;0;0;0;0;0;0;34;348.571;11.8379;22.8171;354.065;0;3;1;1.64618;-1.47916;-1.0881;1.65625;-1.47054;-1.06146;0;0;0;0;0;0;0;0;0;0;0;0;0;0;0;0;675;304;1024;1024;1024;224;1024;1024;1024;1;4;0;0;0;0;0; 
465;471;2019/11/01 19:59:16;0;-1;-1;-1;-1;-1;100;0;0;0;0;0;0;0;0;0;0;0;0;0;0;38.1667;346.167;11.6904;26.012;352.421;0;4;1;1.64914;-1.48996;-1.10846;1.65412;-1.47637;-1.07556;0;0;0;0;0;0;0;0;0;0;0;0;0;0;0;0;675;304;1024;1024;1024;224;1024;1024;1024;1;4;0;0;0;0;0; 
466;472;2019/11/01 19:59:16;0;-1;-1;-1;-1;-1;100;0;0;0;0;0;0;0;0;0;0;0;0;0;0;43.1111;342.667;11.6605;30.0842;350.099;0;5;1;1.63219;-1.48232;-1.12097;1.64754;-1.47816;-1.08918;0;0;0;0;0;0;0;0;0;0;0;0;0;0;0;0;675;304;1024;1024;1024;224;1024;1024;1024;1;4;0;0;0;0;0; 
467;473;2019/11/01 19:59:16;0;-1;-1;-1;-1;-1;100;0;0;0;0;0;0;0;0;0;0;0;0;0;0;50.5714;338;11.5807;35.3443;346.994;0;6;1;1.61126;-1.47715;-1.14167;1.63666;-1.47785;-1.10493;0;0;0;0;0;0;0;0;0;0;0;0;0;0;0;0;675;304;1024;1024;1024;224;1024;1024;1024;1;4;0;0;0;0;0; 
468;474;2019/11/01 19:59:16;0;-1;-1;-1;-1;-1;100;0;0;0;0;0;0;0;0;0;0;0;0;0;0;56.4;335.2;11.4343;41.0113;343.819;0;7;1;1.60642;-1.48671;-1.16417;1.62759;-1.48051;-1.1227;0;0;0;0;0;0;0;0;0;0;0;0;0;0;0;0;675;304;1024;1024;1024;224;1024;1024;1024;1;4;0;0;0;0;0; 
469;475;2019/11/01 19:59:16;0;-1;-1;-1;-1;-1;100;0;0;0;0;0;0;0;0;0;0;0;0;0;0;61.2;332.4;11.4632;46.6337;340.639;0;8;1;1.58145;-1.47363;-1.1691;1.61375;-1.47844;-1.13662;-0.467318;-0.115728;-0.864173;-4.30306;1.46632;-3.69971;0;0;0;0;0;0;0;0;0;0;675;304;1024;1024;1024;224;1024;1024;1024;1;4;0;0;0;0;0; 
470;476;2019/11/01 19:59:16;0;-1;-1;-1;-1;-1;100;0;0;0;0;0;0;0;0;0;0;0;0;0;0;69;329;11.3587;53.0135;337.311;0;9;1;1.5617;-1.47575;-1.18949;1.59813;-1.47764;-1.15248;-0.512426;-0.0977652;-0.881916;-3.59572;1.37217;-3.01071;0;0;0;0;0;0;0;0;0;0;675;304;1024;1024;1024;224;1024;1024;1024;1;4;0;0;0;0;0; 
471;477;2019/11/01 19:59:16;0;-1;-1;-1;-1;-1;100;0;0;0;0;0;0;0;0;0;0;0;0;0;0;73;327;11.0518;58.8815;334.275;0;10;1;1.58698;-1.50982;-1.22835;1.59479;-1.48729;-1.17524;-0.544336;-0.102274;-0.927144;-3.8211;1.80819;-2.13676;0;0;0;0;0;0;0;0;0;0;675;304;1024;1024;1024;224;1024;1024;1024;1;4;0;0;0;0;0; 
472;478;2019/11/01 19:59:16;0;-1;-1;-1;-1;-1;100;0;0;0;0;0;0;0;0;0;0;0;0;0;0;79;325;11.063;64.9274;331.461;0;11;1;1.55828;-1.50139;-1.23293;1.58383;-1.49152;-1.19255;-0.580946;-0.114727;-0.968987;-3.03943;1.05397;-1.89368;0;0;0;0;0;0;0;0;0;0;675;304;1024;1024;1024;224;1024;1024;1024;1;4;0;0;0;0;0; 
473;479;2019/11/01 19:59:16;0;-1;-1;-1;-1;-1;100;0;0;0;0;0;0;0;0;0;0;0;0;0;0;86;321.429;10.9767;71.3934;328.362;0;12;1;1.53867;-1.50076;-1.25309;1.57028;-1.49429;-1.21071;-0.613559;-0.134466;-1.00374;-1.67092;0.0234379;-1.37846;0;0;0;0;0;0;0;0;0;0;675;304;1024;1024;1024;224;1024;1024;1024;1;4;0;0;0;0;0; 
474;480;2019/11/01 19:59:16;0;-1;-1;-1;-1;-1;100;0;0;0;0;0;0;0;0;0;0;0;0;0;0;92.4;319.2;10.8002;78.0023;325.438;0;13;1;1.53421;-1.5174;-1.28022;1.55946;-1.50123;-1.23156;-0.640121;-0.163389;-1.03689;-1.38951;-0.003326;-0.717553;0;0;0;0;0;0;0;0;0;0;675;304;1024;1024;1024;224;1024;1024;1024;1;4;0;0;0;0;0; 
475;481;2019/11/01 19:59:16;0;-1;-1;-1;-1;-1;100;0;0;0;0;0;0;0;0;0;0;0;0;0;0;96.4;317.2;10.6852;84.022;322.708;0;14;1;1.53203;-1.52659;-1.30003;1.55123;-1.50884;-1.2521;-0.633662;-0.219369;-1.08321;-1.49783;-0.415782;-1.30502;0;0;0;0;0;0;0;0;0;0;675;304;1024;1024;1024;224;1024;1024;1024;1;4;0;0;0;0;0; 
476;482;2019/11/01 19:59:16;0;-1;-1;-1;-1;-1;100;0;0;0;0;0;0;0;0;0;0;0;0;0;0;103.6;314.8;10.5738;90.546;320.004;0;15;1;1.51415;-1.534;-1.32103;1.54011;-1.51639;-1.27278;-0.611862;-0.286325;-1.13023;-1.2957;-1.0023;-1.77439;0;0;0;0;0;0;0;0;0;0;675;304;1024;1024;1024;224;1024;1024;1024;1;4;0;0;0;0;0; 
477;483;2019/11/01 19:59:16;0;-1;-1;-1;-1;-1;100;0;0;0;0;0;0;0;0;0;0;0;0;0;0;110.571;312;10.5126;97.3789;317.201;0;16;1;1.48984;-1.53276;-1.3373;1.52503;-1.5213;-1.29214;-0.645638;-0.307567;-1.14484;-1.18187;-1.42101;-1.93379;0;0;0;0;0;0;0;0;0;0;675;304;1024;1024;1024;224;1024;1024;1024;1;4;0;0;0;0;0; 
478;484;2019/11/01 19:59:16;0;-1;-1;-1;-1;-1;100;0;0;0;0;0;0;0;0;0;0;0;0;0;0;117.75;309.75;10.4902;104.504;314.486;0;17;1;1.45883;-1.52785;-1.34707;1.50517;-1.52326;-1.30862;-0.701458;-0.311276;-1.15031;-1.19026;-1.63732;-1.8842;0;0;0;0;0;0;0;0;0;0;675;304;1024;1024;1024;224;1024;1024;1024;1;4;0;0;0;0;0; 
479;485;2019/11/01 19:59:16;0;-1;-1;-1;-1;-1;100;0;0;0;0;0;0;0;0;0;0;0;0;0;0;122.889;307.333;10.4008;111.236;311.787;0;18;1;1.44668;-1.5321;-1.36612;1.48762;-1.52592;-1.32587;-0.750898;-0.313021;-1.14995;-1.26248;-1.69527;-1.71424;0;0;0;0;0;0;0;0;0;0;675;304;1024;1024;1024;224;1024;1024;1024;1;4;0;0;0;0;0; 
480;486;2019/11/01 19:59:16;0;-1;-1;-1;-1;-1;100;0;0;0;0;0;0;0;0;0;0;0;0;0;0;129.6;304.8;10.2861;118.149;309.065;0;19;1;1.43023;-1.53978;-1.38929;1.4704;-1.53008;-1.3449;-0.806098;-0.302998;-1.14245;-1.42015;-1.57455;-1.44999;0;0;0;0;0;0;0;0;0;0;675;304;1024;1024;1024;224;1024;1024;1024;1;4;0;0;0;0;0; 
481;487;2019/11/01 19:59:16;0;-1;-1;-1;-1;-1;100;0;0;0;0;0;0;0;0;0;0;0;0;0;0;136.571;302;10.1622;125.274;306.245;0;20;1;1.41338;-1.54802;-1.41509;1.4533;-1.53546;-1.36596;-0.874656;-0.288095;-1.14002;-1.81426;-1.21912;-1.09682;0;0;0;0;0;0;0;0;0;0;675;304;1024;1024;1024;224;1024;1024;1024;1;4;0;0;0;0;0; 
482;488;2019/11/01 19:59:16;0;-1;-1;-1;-1;-1;100;0;0;0;0;0;0;0;0;0;0;0;0;0;0;142.571;300;9.92005;132.258;303.597;0;21;1;1.41767;-1.57811;-1.45613;1.44261;-1.54826;-1.39301;-0.914044;-0.300097;-1.16401;-2.29502;-0.786452;-0.792988;0;0;0;0;0;0;0;0;0;0;675;304;1024;1024;1024;224;1024;1024;1024;1;4;0;0;0;0;0; 
483;489;2019/11/01 19:59:16;0;-1;-1;-1;-1;-1;100;0;0;0;0;0;0;0;0;0;0;0;0;0;0;147.75;297.75;9.96954;138.884;301.002;0;22;1;1.38469;-1.56166;-1.45617;1.42523;-1.55228;-1.41196;-0.946845;-0.303736;-1.17678;-2.57958;-0.456577;-0.603328;0;0;0;0;0;0;0;0;0;0;675;304;1024;1024;1024;224;1024;1024;1024;1;4;0;0;0;0;0; 
484;490;2019/11/01 19:59:17;0;-1;-1;-1;-1;-1;100;0;0;0;0;0;0;0;0;0;0;0;0;0;0;154;295;9.94474;145.572;298.292;0;23;1;1.35674;-1.55499;-1.46871;1.40469;-1.55309;-1.42898;-0.969279;-0.30133;-1.18663;-2.61702;-0.234239;-0.507008;0;0;0;0;0;0;0;0;0;0;675;304;1024;1024;1024;224;1024;1024;1024;1;4;0;0;0;0;0; 
485;491;2019/11/01 19:59:17;0;-1;-1;-1;-1;-1;100;0;0;0;0;0;0;0;0;0;0;0;0;0;0;161;293;9.92965;152.532;295.73;0;24;1;1.32359;-1.54966;-1.47743;1.38036;-1.55206;-1.44352;-1.00983;-0.285197;-1.18168;-2.60399;-0.0294581;-0.430903;0;0;0;0;0;0;0;0;0;0;675;304;1024;1024;1024;224;1024;1024;1024;1;4;0;0;0;0;0; 
486;492;2019/11/01 19:59:17;0;-1;-1;-1;-1;-1;100;0;0;0;0;0;0;0;0;0;0;0;0;0;0;165;291;9.78554;158.762;293.279;0;25;1;1.32266;-1.56468;-1.50577;1.36305;-1.55585;-1.46219;-1.03452;-0.274016;-1.17731;-2.47437;0.0980348;-0.397726;0;0;0;0;0;0;0;0;0;0;675;304;1024;1024;1024;224;1024;1024;1024;1;4;0;0;0;0;0; 
487;493;2019/11/01 19:59:17;0;-1;-1;-1;-1;-1;100;0;0;0;0;0;0;0;0;0;0;0;0;0;0;172;288.571;9.64868;165.381;290.777;0;26;1;1.30518;-1.57726;-1.53523;1.34569;-1.56227;-1.4841;-1.05035;-0.271459;-1.17809;-2.18609;0.12524;-0.390622;0;0;0;0;0;0;0;0;0;0;675;304;1024;1024;1024;224;1024;1024;1024;1;4;0;0;0;0;0; 
488;494;2019/11/01 19:59:17;0;-1;-1;-1;-1;-1;100;0;0;0;0;0;0;0;0;0;0;0;0;0;0;178;287;9.57979;171.97;288.507;0;27;1;1.28327;-1.58234;-1.55155;1.32696;-1.56829;-1.50434;-1.09194;-0.242868;-1.15133;-2.02189;0.303631;-0.183744;0;0;0;0;0;0;0;0;0;0;675;304;1024;1024;1024;224;1024;1024;1024;1;4;0;0;0;0;0; 
489;495;2019/11/01 19:59:17;0;-1;-1;-1;-1;-1;100;0;0;0;0;0;0;0;0;0;0;0;0;0;0;182.4;285.2;9.45194;178.035;286.336;0;28;1;1.27738;-1.59647;-1.57867;1.31209;-1.57674;-1.52664;-1.1069;-0.243404;-1.14866;-1.85216;0.423057;0.00205125;0;0;0;0;0;0;0;0;0;0;675;304;1024;1024;1024;224;1024;1024;1024;1;4;0;0;0;0;0; 
490;496;2019/11/01 19:59:17;0;-1;-1;-1;-1;-1;100;0;0;0;0;0;0;0;0;0;0;0;0;0;0;188;283;9.49555;184.086;284.114;0;29;1;1.24205;-1.58029;-1.57888;1.29107;-1.57781;-1.54231;-1.11774;-0.244713;-1.14165;-1.70402;0.479877;0.180799;0;0;0;0;0;0;0;0;0;0;675;304;1024;1024;1024;224;1024;1024;1024;1;4;0;0;0;0;0; 
491;497;2019/11/01 19:59:17;0;-1;-1;-1;-1;-1;100;0;0;0;0;0;0;0;0;0;0;0;0;0;0;192;281;9.50788; -nan; -nan;0;30;1;1.21942;-1.5702;-1.58361;1.26958;-1.57553;-1.5547;-1.11293;-0.240498;-1.12889;-1.43404;0.466389;0.31925;0;0;0;0;0;0;0;0;0;0;675;304;1024;1024;1024;224;1024;1024;1024;1;4;0;0;0;0;0; 
492;498;2019/11/01 19:59:17;0;-1;-1;-1;-1;-1;100;0;0;0;0;0;0;0;0;0;0;0;0;0;0;197.667;278.333;9.48334; -nan; -nan;0;31;1;1.19272;-1.56353;-1.59676;1.24652;-1.57193;-1.56732;-1.13299;-0.208484;-1.09705;-1.25356;0.541469;0.511983;0;0;0;0;0;0;0;0;0;0;675;304;1024;1024;1024;224;1024;1024;1024;1;4;0;0;0;0;0; 
493;499;2019/11/01 19:59:17;0;-1;-1;-1;-1;-1;100;0;0;0;0;0;0;0;0;0;0;0;0;0;0;202.333;275.667;9.22196; -nan; -nan;0;32;1;1.20125;-1.5968;-1.65133;1.23294;-1.57939;-1.59252;-1.12993;-0.193419;-1.09109;-1.06986;0.636454;0.654539;0;0;0;0;0;0;0;0;0;0;675;304;1024;1024;1024;224;1024;1024;1024;1;4;0;0;0;0;0; 
494;500;2019/11/01 19:59:17;0;-1;-1;-1;-1;-1;100;0;0;0;0;0;0;0;0;0;0;0;0;0;0;206.333;273.667;9.38161; -nan; -nan;0;33;1;1.15951;-1.56148;-1.63009;1.21091;-1.57401;-1.60379;-1.1413;-0.138899;-1.05172;-0.839011;0.796966;0.790416;0;0;0;0;0;0;0;0;0;0;675;304;1024;1024;1024;224;1024;1024;1024;1;4;0;0;0;0;0; 
495;501;2019/11/01 19:59:17;0;-1;-1;-1;-1;-1;100;0;0;0;0;0;0;0;0;0;0;0;0;0;0;211;271;9.33613; -nan; -nan;0;34;1;1.14018;-1.55818;-1.64723;1.18969;-1.56926;-1.61682;-1.17344;-0.0534712;-0.9911;-0.769071;1.23648;1.1033;0;0;0;0;0;0;0;0;0;0;675;304;1024;1024;1024;224;1024;1024;1024;1;4;0;0;0;0;0; 
496;502;2019/11/01 19:59:17;0;-1;-1;-1;-1;-1;100;0;0;0;0;0;0;0;0;0;0;0;0;0;0;215;269;9.2301; -nan; -nan;0;35;1;1.13163;-1.5678;-1.67313;1.17227;-1.56882;-1.63372;-1.17838;0.00377809;-0.959593;-0.70355;1.73399;1.38885;0;0;0;0;0;0;0;0;0;0;675;304;1024;1024;1024;224;1024;1024;1024;1;4;0;0;0;0;0; 
497;503;2019/11/01 19:59:17;0;-1;-1;-1;-1;-1;100;0;0;0;0;0;0;0;0;0;0;0;0;0;0;220;267;9.23892; -nan; -nan;0;36;1;1.10351;-1.55804;-1.6785;1.15165;-1.56559;-1.64715;-1.17787;0.0419419;-0.944871;-0.681408;2.16803;1.568;0;0;0;0;0;0;0;0;0;0;675;304;1024;1024;1024;224;1024;1024;1024;1;4;0;0;0;0;0; 
498;504;2019/11/01 19:59:17;0;-1;-1;-1;-1;-1;100;0;0;0;0;0;0;0;0;0;0;0;0;0;0;224;265;9.06773; -nan; -nan;0;37;1;1.10231;-1.57903;-1.71729;1.13684;-1.56962;-1.66819;-1.1446;0.0343722;-0.969673;-0.455221;2.27042;1.44935;0;0;0;0;0;0;0;0;0;0;675;304;1024;1024;1024;224;1024;1024;1024;1;4;0;0;0;0;0; 
499;505;2019/11/01 19:59:17;0;-1;-1;-1;-1;-1;100;0;0;0;0;0;0;0;0;0;0;0;0;0;0;227;263;9.16493; -nan; -nan;0;38;1;1.07427;-1.55394;-1.70611;1.11807;-1.56492;-1.67957;-1.14537;0.0783923;-0.929342;-0.334756;2.44746;1.51538;0;0;0;0;0;0;0;0;0;0;675;304;1024;1024;1024;224;1024;1024;1024;1;4;0;0;0;0;0; 
500;506;2019/11/01 19:59:17;0;-1;-1;-1;-1;-1;100;0;0;0;0;0;0;0;0;0;0;0;0;0;0;230.5;260;9.06782; -nan; -nan;0;39;1;1.06649;-1.55795;-1.73503;1.1026;-1.56283;-1.69621;-1.11966;0.0917016;-0.926576;-0.114429;2.38915;1.40887;0;0;0;0;0;0;0;0;0;0;675;304;1024;1024;1024;224;1024;1024;1024;1;4;0;0;0;0;0; 
501;507;2019/11/01 19:59:17;0;-1;-1;-1;-1;-1;100;0;0;0;0;0;0;0;0;0;0;0;0;0;0;233;258;9.03323; -nan; -nan;0;40;1;1.05675;-1.55546;-1.74881;1.08884;-1.56062;-1.71199;-1.07443;0.0895416;-0.93589;0.326639;2.00447;1.06575;0;0;0;0;0;0;0;0;0;0;675;304;1024;1024;1024;224;1024;1024;1024;1;4;0;0;0;0;0; 
502;508;2019/11/01 19:59:17;0;-1;-1;-1;-1;-1;100;0;0;0;0;0;0;0;0;0;0;0;0;0;0;235.75;255.75;8.93818; -nan; -nan;0;41;1;1.05262;-1.56239;-1.77551;1.07797;-1.56115;-1.73104;-1.02166;0.0844173;-0.950646;0.822527;1.52507;0.67522;0;0;0;0;0;0;0;0;0;0;675;304;1024;1024;1024;224;1024;1024;1024;1;4;0;0;0;0;0; 
503;509;2019/11/01 19:59:17;0;-1;-1;-1;-1;-1;100;0;0;0;0;0;0;0;0;0;0;0;0;0;0;237.333;252.222;9.09974; -nan; -nan;0;42;1;1.02523;-1.51984;-1.75647;1.06215;-1.54876;-1.73867;-0.970786;0.117946;-0.936281;1.32143;1.2189;0.439476;0;0;0;0;0;0;0;0;0;0;675;304;1024;1024;1024;224;1024;1024;1024;1;4;0;0;0;0;0; 
504;510;2019/11/01 19:59:17;0;-1;-1;-1;-1;-1;100;0;0;0;0;0;0;0;0;0;0;0;0;0;0;238.571;250;9.17622; -nan; -nan;0;43;1;1.00995;-1.49792;-1.74963;1.04649;-1.53351;-1.74196;-0.943702;0.215149;-0.856676;1.59605;1.45408;0.715441;0;0;0;0;0;0;0;0;0;0;675;304;1024;1024;1024;224;1024;1024;1024;1;4;0;0;0;0;0; 
505;511;2019/11/01 19:59:17;0;-1;-1;-1;-1;-1;100;0;0;0;0;0;0;0;0;0;0;0;0;0;0;240.4;247.2;8.91764; -nan; -nan;0;44;1;1.02899;-1.52936;-1.81047;1.04124;-1.53226;-1.76251;-0.87339;0.259639;-0.845614;2.04499;1.59706;0.764008;0;0;0;0;0;0;0;0;0;0;675;304;1024;1024;1024;224;1024;1024;1024;1;4;0;0;0;0;0; 
506;512;2019/11/01 19:59:17;0;-1;-1;-1;-1;-1;100;0;0;0;0;0;0;0;0;0;0;0;0;0;0;241;245;9.02362; -nan; -nan;0;45;1;1.01358;-1.50209;-1.79706;1.03294;-1.52321;-1.77288;-0.802509;0.314165;-0.813888;2.49494;1.84764;0.908927;0;0;0;0;0;0;0;0;0;0;675;304;1024;1024;1024;224;1024;1024;1024;1;4;0;0;0;0;0; 
507;513;2019/11/01 19:59:17;0;-1;-1;-1;-1;-1;100;0;0;0;0;0;0;0;0;0;0;0;0;0;0;241.333;242.667;8.92403; -nan; -nan;0;46;1;1.02303;-1.50887;-1.82553;1.02997;-1.51891;-1.78867;-0.716882;0.355251;-0.794923;2.92645;2.17089;1.10894;0;0;0;0;0;0;0;0;0;0;675;304;1024;1024;1024;224;1024;1024;1024;1;4;0;0;0;0;0; 
508;514;2019/11/01 19:59:17;0;-1;-1;-1;-1;-1;100;0;0;0;0;0;0;0;0;0;0;0;0;0;0;243;239;8.77878; -nan; -nan;0;47;1;1.03047;-1.51788;-1.86919;1.03012;-1.5186;-1.81283;-0.621195;0.383027;-0.803483;3.35476;2.49476;1.25292;0;0;0;0;0;0;0;0;0;0;675;304;1024;1024;1024;224;1024;1024;1024;1;4;0;0;0;0;0; 
509;515;2019/11/01 19:59:17;0;-1;-1;-1;-1;-1;100;0;0;0;0;0;0;0;0;0;0;0;0;0;0;244.667;237.333;8.99545; -nan; -nan;0;48;1;0.996393;-1.47424;-1.83013;1.02;-1.50529;-1.81802;-0.541007;0.403345;-0.798889;3.72878;2.63633;1.3003;0;0;0;0;0;0;0;0;0;0;675;304;1024;1024;1024;224;1024;1024;1024;1;4;0;0;0;0;0; 
510;516;2019/11/01 19:59:17;0;-1;-1;-1;-1;-1;100;0;0;0;0;0;0;0;0;0;0;0;0;0;0;245;236;8.85031; -nan; -nan;0;49;1;1.01085;-1.49267;-1.865;1.01726;-1.5015;-1.83211;-0.441324;0.369774;-0.83928;4.24305;2.19915;0.849637;0;0;0;0;0;0;0;0;0;0;675;304;1024;1024;1024;224;1024;1024;1024;1;4;0;0;0;0;0; 
511;517;2019/11/01 19:59:17;0;-1;-1;-1;-1;-1;100;0;0;0;0;0;0;0;0;0;0;0;0;0;0;247;235;8.77902; -nan; -nan;0;50;1;1.00768;-1.50044;-1.88381;1.01438;-1.50118;-1.84762;-0.372023;0.345951;-0.84337;4.54758;1.6641;0.518742;0;0;0;0;0;0;0;0;0;0;675;304;1024;1024;1024;224;1024;1024;1024;1;4;0;0;0;0;0; 
512;518;2019/11/01 19:59:17;0;-1;-1;-1;-1;-1;100;0;0;0;0;0;0;0;0;0;0;0;0;0;0;248.667;233.333;8.76539; -nan; -nan;0;51;1;0.999748;-1.49551;-1.89286;1.00999;-1.49948;-1.86119;-0.314844;0.302317;-0.858634;4.67559;0.951157;0.132595;0;0;0;0;0;0;0;0;0;0;675;304;1024;1024;1024;224;1024;1024;1024;1;4;0;0;0;0;0; 
513;519;2019/11/01 19:59:17;0;-1;-1;-1;-1;-1;100;0;0;0;0;0;0;0;0;0;0;0;0;0;0;250.667;231.333;8.74786; -nan; -nan;0;52;1;0.99033;-1.48977;-1.90402;1.00409;-1.49657;-1.87404;-0.292212;0.270584;-0.856013;4.50088;0.232658;-0.164349;0;0;0;0;0;0;0;0;0;0;675;304;1024;1024;1024;224;1024;1024;1024;1;4;0;0;0;0;0; 
514;520;2019/11/01 19:59:17;0;-1;-1;-1;-1;-1;100;0;0;0;0;0;0;0;0;0;0;0;0;0;0;252.667;229.333;8.62482; -nan; -nan;0;53;1;0.992873;-1.50217;-1.93864;1.00073;-1.49825;-1.89342;-0.292675;0.243608;-0.835384;4.01217;-0.417049;-0.225977;0;0;0;0;0;0;0;0;0;0;675;304;1024;1024;1024;224;1024;1024;1024;1;4;0;0;0;0;0; 
515;521;2019/11/01 19:59:17;0;-1;-1;-1;-1;-1;100;0;0;0;0;0;0;0;0;0;0;0;0;0;0;255;228;8.36796; -nan; -nan;0;54;1;1.00942;-1.54219;-2.00329;1.00334;-1.51143;-1.92638;-0.242145;0.121655;-0.933873;3.60054;-1.3749;-0.674521;0;0;0;0;0;0;0;0;0;0;675;304;1024;1024;1024;224;1024;1024;1024;1;4;0;0;0;0;0; 
516;522;2019/11/01 19:59:17;0;-1;-1;-1;-1;-1;100;0;0;0;0;0;0;0;0;0;0;0;0;0;0;256;226.5;8.42019; -nan; -nan;0;55;1;0.997226;-1.52582;-1.99659;1.0015;-1.51575;-1.94745;-0.208187;0.0161246;-1.0208;3.09114;-2.23691;-1.12944;0;0;0;0;0;0;0;0;0;0;675;304;1024;1024;1024;224;1024;1024;1024;1;4;0;0;0;0;0; 
517;523;2019/11/01 19:59:17;0;-1;-1;-1;-1;-1;100;0;0;0;0;0;0;0;0;0;0;0;0;0;0;258.667;224.667;8.36664; -nan; -nan;0;56;1;0.987685;-1.52722;-2.01643;0.997357;-1.51919;-1.96814;-0.192891;-0.0622122;-1.09366;2.56988;-2.97177;-1.67697;0;0;0;0;0;0;0;0;0;0;675;304;1024;1024;1024;224;1024;1024;1024;1;4;0;0;0;0;0; 
518;524;2019/11/01 19:59:17;0;-1;-1;-1;-1;-1;100;0;0;0;0;0;0;0;0;0;0;0;0;0;0;260;222;8.39719; -nan; -nan;0;57;1;0.97616;-1.50953;-2.01932;0.990998;-1.51629;-1.98349;-0.191573;-0.104447;-1.14449;2.0341;-3.4071;-2.14748;0;0;0;0;0;0;0;0;0;0;675;304;1024;1024;1024;224;1024;1024;1024;1;4;0;0;0;0;0; 
519;525;2019/11/01 19:59:17;0;-1;-1;-1;-1;-1;100;0;0;0;0;0;0;0;0;0;0;0;0;0;0;261.333;219.333;8.30401; -nan; -nan;0;58;1;0.979092;-1.51421;-2.05232;0.987426;-1.51567;-2.00414;-0.181491;-0.138918;-1.20613;1.66252;-3.67923;-2.68637;0;0;0;0;0;0;0;0;0;0;675;304;1024;1024;1024;224;1024;1024;1024;1;4;0;0;0;0;0; 
520;526;2019/11/01 19:59:17;0;-1;-1;-1;-1;-1;100;0;0;0;0;0;0;0;0;0;0;0;0;0;0;263;217;8.28508; -nan; -nan;0;59;1;0.97128;-1.50691;-2.06608;0.982582;-1.51304;-2.02272;-0.181341;-0.142407;-1.23992;1.44202;-3.74873;-3.22697;0;0;0;0;0;0;0;0;0;0;675;304;1024;1024;1024;224;1024;1024;1024;1;4;0;0;0;0;0; 
521;527;2019/11/01 19:59:17;0;-1;-1;-1;-1;-1;100;0;0;0;0;0;0;0;0;0;0;0;0;0;0;263;215;8.3; -nan; -nan;0;60;1;0.969534;-1.495;-2.07012;0.978668;-1.50763;-2.03694;-0.207292;-0.0702542;-1.18538;1.00437;-3.01545;-2.94035;0;0;0;0;0;0;0;0;0;0;675;304;1024;1024;1024;224;1024;1024;1024;1;4;0;0;0;0;0; 
522;528;2019/11/01 19:59:17;0;-1;-1;-1;-1;-1;100;0;0;0;0;0;0;0;0;0;0;0;0;0;0;263;212;8.37806; -nan; -nan;0;61;1;0.960501;-1.46739;-2.06237;0.973218;-1.49556;-2.04457;-0.237305;0.0384658;-1.09901;0.486362;-1.72007;-2.07647;0;0;0;0;0;0;0;0;0;0;675;304;1024;1024;1024;224;1024;1024;1024;1;4;0;0;0;0;0; 
523;529;2019/11/01 19:59:17;0;-1;-1;-1;-1;-1;100;0;0;0;0;0;0;0;0;0;0;0;0;0;0;263;209;8.28328; -nan; -nan;0;62;1;0.971491;-1.47035;-2.09763;0.9727;-1.48799;-2.06049;-0.240832;0.147628;-1.02811;0.100409;-0.194238;-0.984159;0;0;0;0;0;0;0;0;0;0;675;304;1024;1024;1024;224;1024;1024;1024;1;4;0;0;0;0;0; 
524;530;2019/11/01 19:59:17;0;-1;-1;-1;-1;-1;100;0;0;0;0;0;0;0;0;0;0;0;0;0;0;261;207;8.22979; -nan; -nan;0;63;1;0.989945;-1.47062;-2.11908;0.977873;-1.48278;-2.07807;-0.196901;0.222367;-0.994452;0.0389696;1.18829;0.00854141;0;0;0;0;0;0;0;0;0;0;675;304;1024;1024;1024;224;1024;1024;1024;1;4;0;0;0;0;0; 
525;531;2019/11/01 19:59:17;0;-1;-1;-1;-1;-1;100;0;0;0;0;0;0;0;0;0;0;0;0;0;0;261;205;8.29309; -nan; -nan;0;64;1;0.982389;-1.45019;-2.11068;0.979228;-1.473;-2.08785;-0.150874;0.303754;-0.930882;0.145626;2.48038;1.10409;0;0;0;0;0;0;0;0;0;0;675;304;1024;1024;1024;224;1024;1024;1024;1;4;0;0;0;0;0; 
526;532;2019/11/01 19:59:17;0;-1;-1;-1;-1;-1;100;0;0;0;0;0;0;0;0;0;0;0;0;0;0;261;203;8.27456; -nan; -nan;0;65;1;0.98459;-1.4442;-2.12319;0.980836;-1.46436;-2.09845;-0.0974949;0.376595;-0.860879;0.422138;3.56039;2.17581;0;0;0;0;0;0;0;0;0;0;675;304;1024;1024;1024;224;1024;1024;1024;1;4;0;0;0;0;0; 
527;533;2019/11/01 19:59:17;0;-1;-1;-1;-1;-1;100;0;0;0;0;0;0;0;0;0;0;0;0;0;0;261;201;8.04207; -nan; -nan;0;66;1;1.01305;-1.47646;-2.19258;0.990501;-1.46799;-2.12669;-0.0112499;0.384206;-0.874841;1.036;3.9507;2.54534;0;0;0;0;0;0;0;0;0;0;675;304;1024;1024;1024;224;1024;1024;1024;1;4;0;0;0;0;0; 
528;534;2019/11/01 19:59:17;0;-1;-1;-1;-1;-1;100;0;0;0;0;0;0;0;0;0;0;0;0;0;0;260;200;8.17744; -nan; -nan;0;67;1;1.00239;-1.44734;-2.16022;0.994069;-1.4618;-2.13675;0.0764994;0.365312;-0.892927;1.87449;3.67538;2.35;0;0;0;0;0;0;0;0;0;0;675;304;1024;1024;1024;224;1024;1024;1024;1;4;0;0;0;0;0; 
529;535;2019/11/01 19:59:17;0;-1;-1;-1;-1;-1;100;0;0;0;0;0;0;0;0;0;0;0;0;0;0;260;198;8.06669; -nan; -nan;0;68;1;1.01615;-1.45774;-2.19786;1.00069;-1.46058;-2.15508;0.15767;0.328638;-0.913424;2.71574;2.92792;1.86789;0;0;0;0;0;0;0;0;0;0;675;304;1024;1024;1024;224;1024;1024;1024;1;4;0;0;0;0;0; 
530;536;2019/11/01 19:59:17;0;-1;-1;-1;-1;-1;100;0;0;0;0;0;0;0;0;0;0;0;0;0;0;259.333;196.667;8.00298; -nan; -nan;0;69;1;1.02841;-1.46299;-2.22072;1.00901;-1.4613;-2.17477;0.218909;0.282945;-0.93416;3.2896;1.99861;1.36146;0;0;0;0;0;0;0;0;0;0;675;304;1024;1024;1024;224;1024;1024;1024;1;4;0;0;0;0;0; 
531;537;2019/11/01 19:59:17;0;-1;-1;-1;-1;-1;100;0;0;0;0;0;0;0;0;0;0;0;0;0;0;258;195;7.99857; -nan; -nan;0;70;1;1.0373;-1.45583;-2.22865;1.0175;-1.45966;-2.19094;0.284131;0.223035;-0.97208;3.71055;0.876891;0.652387;0;0;0;0;0;0;0;0;0;0;675;304;1024;1024;1024;224;1024;1024;1024;1;4;0;0;0;0;0; 
532;538;2019/11/01 19:59:17;0;-1;-1;-1;-1;-1;100;0;0;0;0;0;0;0;0;0;0;0;0;0;0;256;193;8.03334; -nan; -nan;0;71;1;1.04525;-1.44002;-2.22702;1.02582;-1.45377;-2.20176;0.350083;0.176115;-0.995731;4.01332;-0.274298;-0.146974;0;0;0;0;0;0;0;0;0;0;675;304;1024;1024;1024;224;1024;1024;1024;1;4;0;0;0;0;0; 
533;539;2019/11/01 19:59:17;0;-1;-1;-1;-1;-1;100;0;0;0;0;0;0;0;0;0;0;0;0;0;0;254;192;8.1654; -nan; -nan;0;72;1;1.04058;-1.41206;-2.19495;1.03025;-1.44126;-2.19972;0.368743;0.21241;-0.889022;3.92514;-0.850487;-0.144804;0;0;0;0;0;0;0;0;0;0;675;304;1024;1024;1024;224;1024;1024;1024;1;4;0;0;0;0;0; 
534;540;2019/11/01 19:59:17;0;-1;-1;-1;-1;-1;100;0;0;0;0;0;0;0;0;0;0;0;0;0;0;252;191;7.90733; -nan; -nan;0;73;1;1.08718;-1.45331;-2.27066;1.04733;-1.44487;-2.221;0.433882;0.195015;-0.869807;3.78196;-1.19022;0.005426;0;0;0;0;0;0;0;0;0;0;675;304;1024;1024;1024;224;1024;1024;1024;1;4;0;0;0;0;0; 
535;541;2019/11/01 19:59:17;0;-1;-1;-1;-1;-1;100;0;0;0;0;0;0;0;0;0;0;0;0;0;0;249;190;8.04512; -nan; -nan;0;74;1;1.08718;-1.42367;-2.23577;1.05928;-1.43851;-2.22543;0.494254;0.205117;-0.802772;3.61302;-1.2073;0.44504;0;0;0;0;0;0;0;0;0;0;675;304;1024;1024;1024;224;1024;1024;1024;1;4;0;0;0;0;0; 
536;542;2019/11/01 19:59:17;0;-1;-1;-1;-1;-1;100;0;0;0;0;0;0;0;0;0;0;0;0;0;0;246.667;188.667;7.91146; -nan; -nan;0;75;1;1.12029;-1.44129;-2.27897;1.07758;-1.43934;-2.24149;0.57035;0.210736;-0.748054;3.57097;-1.01268;1.01007;0;0;0;0;0;0;0;0;0;0;675;304;1024;1024;1024;224;1024;1024;1024;1;4;0;0;0;0;0; 
537;543;2019/11/01 19:59:17;0;-1;-1;-1;-1;-1;100;0;0;0;0;0;0;0;0;0;0;0;0;0;0;244;188;8.08274; -nan; -nan;0;76;1;1.11303;-1.40759;-2.23333;1.08822;-1.42982;-2.23905;0.624574;0.245587;-0.64091;3.50183;-0.517563;1.92826;0;0;0;0;0;0;0;0;0;0;675;304;1024;1024;1024;224;1024;1024;1024;1;4;0;0;0;0;0; 
538;544;2019/11/01 19:59:17;0;-1;-1;-1;-1;-1;100;0;0;0;0;0;0;0;0;0;0;0;0;0;0;241;187;7.86715; -nan; -nan;0;77;1;1.16258;-1.44131;-2.29863;1.11053;-1.43327;-2.25692;0.712935;0.229208;-0.604765;3.54981;-0.0985601;2.71792;0;0;0;0;0;0;0;0;0;0;675;304;1024;1024;1024;224;1024;1024;1024;1;4;0;0;0;0;0; 
539;545;2019/11/01 19:59:17;0;-1;-1;-1;-1;-1;100;0;0;0;0;0;0;0;0;0;0;0;0;0;0;239;185;7.95552; -nan; -nan;0;78;1;1.16223;-1.4157;-2.28119;1.12604;-1.428;-2.2642;0.810199;0.190456;-0.620309;3.89244;-0.146787;2.70361;0;0;0;0;0;0;0;0;0;0;675;304;1024;1024;1024;224;1024;1024;1024;1;4;0;0;0;0;0; 
540;546;2019/11/01 19:59:17;0;-1;-1;-1;-1;-1;100;0;0;0;0;0;0;0;0;0;0;0;0;0;0;237;184;8.12416; -nan; -nan;0;79;1;1.1504;-1.38161;-2.2378;1.13334;-1.41408;-2.25628;0.829552;0.237203;-0.513044;3.91521;0.0803649;3.04657;0;0;0;0;0;0;0;0;0;0;675;304;1024;1024;1024;224;1024;1024;1024;1;4;0;0;0;0;0; 
541;547;2019/11/01 19:59:17;0;-1;-1;-1;-1;-1;100;0;0;0;0;0;0;0;0;0;0;0;0;0;0;235;182;7.77598; -nan; -nan;0;80;1;1.21476;-1.43365;-2.34628;1.15777;-1.41995;-2.28328;0.890937;0.216417;-0.538797;3.93291;0.093335;2.88189;0;0;0;0;0;0;0;0;0;0;675;304;1024;1024;1024;224;1024;1024;1024;1;4;0;0;0;0;0; 
542;548;2019/11/01 19:59:17;0;-1;-1;-1;-1;-1;100;0;0;0;0;0;0;0;0;0;0;0;0;0;0;234;180;7.94551; -nan; -nan;0;81;1;1.19513;-1.39345;-2.30433;1.16898;-1.412;-2.2896;0.89945;0.239014;-0.515333;3.67371;0.168903;2.65829;0;0;0;0;0;0;0;0;0;0;675;304;1024;1024;1024;224;1024;1024;1024;1;4;0;0;0;0;0; 
543;549;2019/11/01 19:59:17;0;-1;-1;-1;-1;-1;100;0;0;0;0;0;0;0;0;0;0;0;0;0;0;233;178;8.11569; -nan; -nan;0;82;1;1.17622;-1.35482;-2.26394;1.17115;-1.39485;-2.2819;0.870781;0.283038;-0.480301;3.18723;0.250866;2.23622;0;0;0;0;0;0;0;0;0;0;675;304;1024;1024;1024;224;1024;1024;1024;1;4;0;0;0;0;0; 
544;550;2019/11/01 19:59:18;0;-1;-1;-1;-1;-1;100;0;0;0;0;0;0;0;0;0;0;0;0;0;0;233;175;7.71587; -nan; -nan;0;83;1;1.23717;-1.41017;-2.39377;1.19096;-1.39944;-2.31546;0.843589;0.304866;-0.521916;2.43398;0.45259;1.67251;0;0;0;0;0;0;0;0;0;0;675;304;1024;1024;1024;224;1024;1024;1024;1;4;0;0;0;0;0; 
545;551;2019/11/01 19:59:18;0;-1;-1;-1;-1;-1;100;0;0;0;0;0;0;0;0;0;0;0;0;0;0;233;173;7.71508; -nan; -nan;0;84;1;1.2373;-1.40042;-2.40237;1.20486;-1.39974;-2.34153;0.820857;0.29576;-0.621909;1.50294;0.691984;0.997116;0;0;0;0;0;0;0;0;0;0;675;304;1024;1024;1024;224;1024;1024;1024;1;4;0;0;0;0;0; 
546;552;2019/11/01 19:59:18;0;-1;-1;-1;-1;-1;100;0;0;0;0;0;0;0;0;0;0;0;0;0;0;233.333;170.667;7.71084; -nan; -nan;0;85;1;1.23582;-1.38963;-2.41343;1.21415;-1.3967;-2.3631;0.815121;0.246846;-0.799645;0.84415;0.45369;-0.546007;0;0;0;0;0;0;0;0;0;0;675;304;1024;1024;1024;224;1024;1024;1024;1;4;0;0;0;0;0; 
547;553;2019/11/01 19:59:18;0;-1;-1;-1;-1;-1;100;0;0;0;0;0;0;0;0;0;0;0;0;0;0;233.5;168;7.70463; -nan; -nan;0;86;1;1.23573;-1.37753;-2.42653;1.22062;-1.39095;-2.38213;0.740021;0.263906;-0.874447;-0.0960542;0.461815;-1.66771;0;0;0;0;0;0;0;0;0;0;675;304;1024;1024;1024;224;1024;1024;1024;1;4;0;0;0;0;0; 
548;554;2019/11/01 19:59:18;0;-1;-1;-1;-1;-1;100;0;0;0;0;0;0;0;0;0;0;0;0;0;0;233.333;165.333;7.69255; -nan; -nan;0;87;1;1.23876;-1.36645;-2.4415;1.22606;-1.3836;-2.39994;0.671936;0.271742;-0.96523;-0.966004;0.407757;-2.79688;0;0;0;0;0;0;0;0;0;0;675;304;1024;1024;1024;224;1024;1024;1024;1;4;0;0;0;0;0; 
549;555;2019/11/01 19:59:18;0;-1;-1;-1;-1;-1;100;0;0;0;0;0;0;0;0;0;0;0;0;0;0;234;163;7.65009; -nan; -nan;0;88;1;1.24128;-1.36238;-2.46487;1.23063;-1.37724;-2.41942;0.640631;0.23336;-1.1282;-1.49849;0.0463105;-4.26491;0;0;0;0;0;0;0;0;0;0;675;304;1024;1024;1024;224;1024;1024;1024;1;4;0;0;0;0;0; 
550;556;2019/11/01 19:59:18;0;-1;-1;-1;-1;-1;100;0;0;0;0;0;0;0;0;0;0;0;0;0;0;235;161;7.65098; -nan; -nan;0;89;1;1.2346;-1.35224;-2.473;1.23182;-1.36974;-2.43549;0.547536;0.258621;-1.15616;-2.08112;-0.156852;-5.09121;0;0;0;0;0;0;0;0;0;0;675;304;1024;1024;1024;224;1024;1024;1024;1;4;0;0;0;0;0; 
551;557;2019/11/01 19:59:18;0;-1;-1;-1;-1;-1;100;0;0;0;0;0;0;0;0;0;0;0;0;0;0;235;159;7.48248; -nan; -nan;0;90;1;1.26241;-1.37249;-2.5373;1.241;-1.37056;-2.46604;0.472806;0.27165;-1.19078;-2.6383;-0.190371;-5.32597;0;0;0;0;0;0;0;0;0;0;675;304;1024;1024;1024;224;1024;1024;1024;1;4;0;0;0;0;0; 
552;558;2019/11/01 19:59:18;0;-1;-1;-1;-1;-1;100;0;0;0;0;0;0;0;0;0;0;0;0;0;0;236.667;157.333;7.5848; -nan; -nan;0;91;1;1.2344;-1.34558;-2.51014;1.23902;-1.36307;-2.47927;0.382982;0.297286;-1.17826;-3.30833;0.0871649;-4.70723;0;0;0;0;0;0;0;0;0;0;675;304;1024;1024;1024;224;1024;1024;1024;1;4;0;0;0;0;0; 
553;559;2019/11/01 19:59:18;0;-1;-1;-1;-1;-1;100;0;0;0;0;0;0;0;0;0;0;0;0;0;0;238;156;7.58703; -nan; -nan;0;92;1;1.22526;-1.33847;-2.51507;1.23489;-1.35569;-2.49001;0.28675;0.319162;-1.13767;-3.79472;0.272913;-3.87526;0;0;0;0;0;0;0;0;0;0;675;304;1024;1024;1024;224;1024;1024;1024;1;4;0;0;0;0;0; 
554;560;2019/11/01 19:59:18;0;-1;-1;-1;-1;-1;100;0;0;0;0;0;0;0;0;0;0;0;0;0;0;239;153;7.50387; -nan; -nan;0;93;1;1.23218;-1.33803;-2.55581;1.23408;-1.35039;-2.50975;0.204043;0.324088;-1.12102;-4.14493;0.372745;-2.94715;0;0;0;0;0;0;0;0;0;0;675;304;1024;1024;1024;224;1024;1024;1024;1;4;0;0;0;0;0; 
555;561;2019/11/01 19:59:18;0;-1;-1;-1;-1;-1;100;0;0;0;0;0;0;0;0;0;0;0;0;0;0;241;151;7.48902; -nan; -nan;0;94;1;1.22128;-1.33049;-2.56948;1.23024;-1.34442;-2.52767;0.120868;0.325473;-1.10481;-4.56216;0.591417;-1.6749;0;0;0;0;0;0;0;0;0;0;675;304;1024;1024;1024;224;1024;1024;1024;1;4;0;0;0;0;0; 
556;562;2019/11/01 19:59:18;0;-1;-1;-1;-1;-1;100;0;0;0;0;0;0;0;0;0;0;0;0;0;0;243;149;7.43739; -nan; -nan;0;95;1;1.21632;-1.32945;-2.59598;1.22606;-1.33993;-2.54816;0.0495341;0.314297;-1.11272;-4.7256;0.577143;-0.831501;0;0;0;0;0;0;0;0;0;0;675;304;1024;1024;1024;224;1024;1024;1024;1;4;0;0;0;0;0; 
557;563;2019/11/01 19:59:18;0;-1;-1;-1;-1;-1;100;0;0;0;0;0;0;0;0;0;0;0;0;0;0;245;145;7.43105; -nan; -nan;0;96;1;1.20391;-1.31003;-2.61552;1.21942;-1.33096;-2.56837;-0.0564294;0.3467;-1.07621;-4.94837;0.645931;-0.0414861;0;0;0;0;0;0;0;0;0;0;675;304;1024;1024;1024;224;1024;1024;1024;1;4;0;0;0;0;0; 
558;564;2019/11/01 19:59:18;0;-1;-1;-1;-1;-1;100;0;0;0;0;0;0;0;0;0;0;0;0;0;0;247;143;7.27748; -nan; -nan;0;97;1;1.21559;-1.32717;-2.67957;1.21827;-1.32982;-2.60173;-0.116689;0.340748;-1.13466;-4.964;0.561084;0.149168;0;0;0;0;0;0;0;0;0;0;675;304;1024;1024;1024;224;1024;1024;1024;1;4;0;0;0;0;0; 
559;565;2019/11/01 19:59:18;0;-1;-1;-1;-1;-1;100;0;0;0;0;0;0;0;0;0;0;0;0;0;0;248.667;140.667;7.21658; -nan; -nan;0;98;1;1.21431;-1.32603;-2.71259;1.21708;-1.32868;-2.63499;-0.141104;0.312266;-1.25964;-4.68664;0.309117;-0.397503;0;0;0;0;0;0;0;0;0;0;675;304;1024;1024;1024;224;1024;1024;1024;1;4;0;0;0;0;0; 
560;566;2019/11/01 19:59:18;0;-1;-1;-1;-1;-1;100;0;0;0;0;0;0;0;0;0;0;0;0;0;0;249;137;7.25153; -nan; -nan;0;99;1;1.20616;-1.30032;-2.7158;1.21381;-1.32017;-2.65923;-0.165586;0.308002;-1.35261;-4.28776;0.121245;-1.16313;0;0;0;0;0;0;0;0;0;0;675;304;1024;1024;1024;224;1024;1024;1024;1;4;0;0;0;0;0; 
561;567;2019/11/01 19:59:18;0;-1;-1;-1;-1;-1;100;0;0;0;0;0;0;0;0;0;0;0;0;0;0;252;134;7.23442; -nan; -nan;0;100;1;1.1883;-1.28756;-2.73558;1.20615;-1.31039;-2.68214;-0.195501;0.32067;-1.42828;-3.83578;0.0535709;-1.98936;0;0;0;0;0;0;0;0;0;0;675;304;1024;1024;1024;224;1024;1024;1024;1;4;0;0;0;0;0; 
562;568;2019/11/01 19:59:18;0;-1;-1;-1;-1;-1;100;0;0;0;0;0;0;0;0;0;0;0;0;0;0;253;132;7.31158; -nan; -nan;0;101;1;1.16893;-1.26352;-2.71552;1.19499;-1.29633;-2.69215;-0.241511;0.366667;-1.43247;-3.46475;0.241461;-2.47165;0;0;0;0;0;0;0;0;0;0;675;304;1024;1024;1024;224;1024;1024;1024;1;4;0;0;0;0;0; 
563;569;2019/11/01 19:59:18;0;-1;-1;-1;-1;-1;100;0;0;0;0;0;0;0;0;0;0;0;0;0;0;255.333;129.333;7.07906; -nan; -nan;0;102;1;1.19086;-1.29064;-2.81684;1.19375;-1.29462;-2.72956;-0.247513;0.365234;-1.50373;-2.8426;0.218954;-3.19177;0;0;0;0;0;0;0;0;0;0;675;304;1024;1024;1024;224;1024;1024;1024;1;4;0;0;0;0;0; 
564;570;2019/11/01 19:59:18;0;-1;-1;-1;-1;-1;100;0;0;0;0;0;0;0;0;0;0;0;0;0;0;256;128;7.18416; -nan; -nan;0;103;1;1.1688;-1.26467;-2.78161;1.18626;-1.28564;-2.74517;-0.276443;0.395756;-1.47557;-2.34408;0.351233;-3.27763;0;0;0;0;0;0;0;0;0;0;675;304;1024;1024;1024;224;1024;1024;1024;1;4;0;0;0;0;0; 
565;571;2019/11/01 19:59:18;0;-1;-1;-1;-1;-1;100;0;0;0;0;0;0;0;0;0;0;0;0;0;0;257;126;7.1876; -nan; -nan;0;104;1;1.16129;-1.25343;-2.78924;1.17877;-1.27597;-2.75839;-0.319002;0.448127;-1.37857;-2.11749;0.753771;-2.44194;0;0;0;0;0;0;0;0;0;0;675;304;1024;1024;1024;224;1024;1024;1024;1;4;0;0;0;0;0; 
566;572;2019/11/01 19:59:18;0;-1;-1;-1;-1;-1;100;0;0;0;0;0;0;0;0;0;0;0;0;0;0;258;124;7.01551; -nan; -nan;0;105;1;1.18265;-1.27329;-2.86684;1.17993;-1.27517;-2.79092;-0.326787;0.448759;-1.35351;-1.91481;1.01486;-1.46879;0;0;0;0;0;0;0;0;0;0;675;304;1024;1024;1024;224;1024;1024;1024;1;4;0;0;0;0;0; 
567;573;2019/11/01 19:59:18;0;-1;-1;-1;-1;-1;100;0;0;0;0;0;0;0;0;0;0;0;0;0;0;258.667;121.333;7.22026; -nan; -nan;0;106;1;1.1445;-1.22308;-2.79743;1.16931;-1.25954;-2.79288;-0.343359;0.472491;-1.25474;-1.73987;1.21574;-0.187642;0;0;0;0;0;0;0;0;0;0;675;304;1024;1024;1024;224;1024;1024;1024;1;4;0;0;0;0;0; 
568;574;2019/11/01 19:59:18;0;-1;-1;-1;-1;-1;100;0;0;0;0;0;0;0;0;0;0;0;0;0;0;258;119;6.97016; -nan; -nan;0;107;1;1.19035;-1.25418;-2.90859;1.17562;-1.25793;-2.82759;-0.283346;0.436798;-1.29361;-1.21095;1.00945;0.441836;0;0;0;0;0;0;0;0;0;0;675;304;1024;1024;1024;224;1024;1024;1024;1;4;0;0;0;0;0; 
569;575;2019/11/01 19:59:18;0;-1;-1;-1;-1;-1;100;0;0;0;0;0;0;0;0;0;0;0;0;0;0;258;117;6.92762; -nan; -nan;0;108;1;1.19766;-1.25085;-2.93575;1.18223;-1.25581;-2.86004;-0.215992;0.417046;-1.29713;-0.600719;0.812537;1.09;0;0;0;0;0;0;0;0;0;0;675;304;1024;1024;1024;224;1024;1024;1024;1;4;0;0;0;0;0; 
570;576;2019/11/01 19:59:18;0;-1;-1;-1;-1;-1;100;0;0;0;0;0;0;0;0;0;0;0;0;0;0;257;115;6.89744; -nan; -nan;0;109;1;1.21014;-1.24525;-2.95793;1.1906;-1.25264;-2.8894;-0.112263;0.38196;-1.35414;0.295081;0.43244;1.1388;0;0;0;0;0;0;0;0;0;0;675;304;1024;1024;1024;224;1024;1024;1024;1;4;0;0;0;0;0; 
571;577;2019/11/01 19:59:18;0;-1;-1;-1;-1;-1;100;0;0;0;0;0;0;0;0;0;0;0;0;0;0;257;113;7.09572; -nan; -nan;0;110;1;1.17633;-1.19969;-2.88435;1.18632;-1.23676;-2.88789;-0.0372134;0.385763;-1.32952;1.30213;0.0104655;0.879134;0;0;0;0;0;0;0;0;0;0;675;304;1024;1024;1024;224;1024;1024;1024;1;4;0;0;0;0;0; 
572;578;2019/11/01 19:59:18;0;-1;-1;-1;-1;-1;100;0;0;0;0;0;0;0;0;0;0;0;0;0;0;256;112;6.99414; -nan; -nan;0;111;1;1.20055;-1.21165;-2.93084;1.19059;-1.22922;-2.90078;0.0202133;0.4149;-1.23631;2.16673;-0.128907;0.995443;0;0;0;0;0;0;0;0;0;0;675;304;1024;1024;1024;224;1024;1024;1024;1;4;0;0;0;0;0; 
573;579;2019/11/01 19:59:18;0;-1;-1;-1;-1;-1;100;0;0;0;0;0;0;0;0;0;0;0;0;0;0;256;110;7.13209; -nan; -nan;0;112;1;1.17733;-1.17751;-2.88319;1.18661;-1.21371;-2.8955;0.0812278;0.431936;-1.15152;2.99526;-0.239267;1.0094;0;0;0;0;0;0;0;0;0;0;675;304;1024;1024;1024;224;1024;1024;1024;1;4;0;0;0;0;0; 
574;580;2019/11/01 19:59:18;0;-1;-1;-1;-1;-1;100;0;0;0;0;0;0;0;0;0;0;0;0;0;0;256;109;6.88431; -nan; -nan;0;113;1;1.21971;-1.21434;-2.99164;1.19654;-1.2139;-2.92434;0.132271;0.434978;-1.07719;3.45657;-0.150827;1.46972;0;0;0;0;0;0;0;0;0;0;675;304;1024;1024;1024;224;1024;1024;1024;1;4;0;0;0;0;0; 
575;581;2019/11/01 19:59:18;0;-1;-1;-1;-1;-1;100;0;0;0;0;0;0;0;0;0;0;0;0;0;0;256;109;6.88431; -nan; -nan;1;0;1;1.21971;-1.21434;-2.99164;1.19654;-1.2139;-2.92434;0.132271;0.434978;-1.07719;3.45657;-0.150827;1.46972;0;0;0;0;0;0;0;0;0;0;675;304;1024;1024;1024;224;1024;1024;1024;1;4;0;0;0;0;0; 
576;582;2019/11/01 19:59:18;0;-1;-1;-1;-1;-1;100;0;0;0;0;0;0;0;0;0;0;0;0;0;0;256;109;6.88431; -nan; -nan;2;0;1;1.21971;-1.21434;-2.99164;1.19654;-1.2139;-2.92434;0.132271;0.434978;-1.07719;3.45657;-0.150827;1.46972;0;0;0;0;0;0;0;0;0;0;675;304;1024;1024;1024;224;1024;1024;1024;1;4;0;0;0;0;0; 
577;583;2019/11/01 19:59:18;0;-1;-1;-1;-1;-1;100;0;0;0;0;0;0;0;0;0;0;0;0;0;0;256;109;6.88431; -nan; -nan;3;0;1;1.21971;-1.21434;-2.99164;1.19654;-1.2139;-2.92434;0.132271;0.434978;-1.07719;3.45657;-0.150827;1.46972;0;0;0;0;0;0;0;0;0;0;675;304;1024;1024;1024;224;1024;1024;1024;1;4;0;0;0;0;0; 
578;584;2019/11/01 19:59:18;0;-1;-1;-1;-1;-1;100;0;0;0;0;0;0;0;0;0;0;0;0;0;0;256;109;6.88431; -nan; -nan;4;0;1;1.21971;-1.21434;-2.99164;1.19654;-1.2139;-2.92434;0.132271;0.434978;-1.07719;3.45657;-0.150827;1.46972;0;0;0;0;0;0;0;0;0;0;675;304;1024;1024;1024;224;1024;1024;1024;1;4;0;0;0;0;0; 
579;585;2019/11/01 19:59:18;0;-1;-1;-1;-1;-1;100;0;0;0;0;0;0;0;0;0;0;0;0;0;0;256;109;6.88431; -nan; -nan;5;0;1;1.21971;-1.21434;-2.99164;1.19654;-1.2139;-2.92434;0.132271;0.434978;-1.07719;3.45657;-0.150827;1.46972;0;0;0;0;0;0;0;0;0;0;675;304;1024;1024;1024;224;1024;1024;1024;1;4;0;0;0;0;0; 
580;586;2019/11/01 19:59:18;0;-1;-1;-1;-1;-1;100;0;0;0;0;0;0;0;0;0;0;0;0;0;0;256;109;6.88431; -nan; -nan;6;0;1;1.21971;-1.21434;-2.99164;1.19654;-1.2139;-2.92434;0.132271;0.434978;-1.07719;3.45657;-0.150827;1.46972;0;0;0;0;0;0;0;0;0;0;675;304;1024;1024;1024;224;1024;1024;1024;1;4;0;0;0;0;0; 
581;587;2019/11/01 19:59:18;0;-1;-1;-1;-1;-1;100;0;0;0;0;0;0;0;0;0;0;0;0;0;0;256;109;6.88431; -nan; -nan;7;0;1;1.21971;-1.21434;-2.99164;1.19654;-1.2139;-2.92434;0.132271;0.434978;-1.07719;3.45657;-0.150827;1.46972;0;0;0;0;0;0;0;0;0;0;675;304;1024;1024;1024;224;1024;1024;1024;1;4;0;0;0;0;0; 
582;588;2019/11/01 19:59:18;0;-1;-1;-1;-1;-1;100;0;0;0;0;0;0;0;0;0;0;0;0;0;0;256;109;6.88431; -nan; -nan;8;0;1;1.21971;-1.21434;-2.99164;1.19654;-1.2139;-2.92434;0.132271;0.434978;-1.07719;3.45657;-0.150827;1.46972;0;0;0;0;0;0;0;0;0;0;675;304;1024;1024;1024;224;1024;1024;1024;1;4;0;0;0;0;0; 
583;589;2019/11/01 19:59:18;0;-1;-1;-1;-1;-1;100;0;0;0;0;0;0;0;0;0;0;0;0;0;0;256;109;6.88431; -nan; -nan;9;0;1;1.21971;-1.21434;-2.99164;1.19654;-1.2139;-2.92434;0.132271;0.434978;-1.07719;3.45657;-0.150827;1.46972;0;0;0;0;0;0;0;0;0;0;675;304;1024;1024;1024;224;1024;1024;1024;1;4;0;0;0;0;0; 
