ID;RS_ID;insect_log;imLx_drone;imLy_drone;disparity_drone;imLx_pred_drone;imLy_pred_drone;n_frames_lost_drone;n_frames_tracking_drone;foundL_drone;posX_drone;posY_drone;posZ_drone;sposX_drone;sposY_drone;sposZ_drone;svelX_drone;svelY_drone;svelZ_drone;saccX_drone;saccY_drone;saccZ_drone;imLx_insect;imLy_insect;disparity_insect;imLx_pred_insect;imLy_pred_insect;n_frames_lost_insect;n_frames_tracking_insect;foundL_insect;posX_insect;posY_insect;posZ_insect;sposX_insect;sposY_insect;sposZ_insect;svelX_insect;svelY_insect;svelZ_insect;saccX_insect;saccY_insect;saccZ_insect;valid;posErrX;posErrY;posErrZ;velX;velY;velZ;accX;accY;accZ;hoverthrottle;autoThrottle;autoRoll;autoPitch;autoYaw;joyThrottle;joyRoll;joyPitch;joyYaw;joyArmSwitch;joyModeSwitch;joyTakeoffSwitch;dt;velx_sp;vely_sp;velz_sp;Unnamed: 70;time
610.0;616.0;0.0;-1.0;-1.0;-1.0;-1.0;-1.0;100.0;0.0;0.0;0.0;0.0;0.0;0.0;0.0;0.0;0.0;0.0;0.0;0.0;0.0;0.0;306.0;80.0;6.63955;306.0;80.0;0.0;1.0;1.0;0.88846;-1.09228;-3.24257;0.88846;-1.09228;-3.24257;0.0;0.0;0.0;0.0;0.0;0.0;0.0;0.0;0.0;0.0;0.0;0.0;0.0;0.0;0.0;0.0;675.0;304.0;1024.0;1024.0;1024.0;224.0;1024.0;1024.0;1024.0;1.0;4.0;0.0;0.0;0.0;0.0;0.0;;1970-01-01 00:00:00.000
611.0;617.0;0.0;-1.0;-1.0;-1.0;-1.0;-1.0;100.0;0.0;0.0;0.0;0.0;0.0;0.0;0.0;0.0;0.0;0.0;0.0;0.0;0.0;0.0;308.0;80.0;6.706639999999999;306.182;80.0;0.0;2.0;1.0;0.8646739999999999;-1.08135;-3.21013;0.881324;-1.089;-3.23283;0.0;0.0;0.0;0.0;0.0;0.0;0.0;0.0;0.0;0.0;0.0;0.0;0.0;0.0;0.0;0.0;675.0;304.0;1024.0;1024.0;1024.0;224.0;1024.0;1024.0;1024.0;1.0;4.0;0.0;0.0;0.0;0.0;0.0;;1970-01-01 00:00:00.011
612.0;618.0;0.0;-1.0;-1.0;-1.0;-1.0;-1.0;100.0;0.0;0.0;0.0;0.0;0.0;0.0;0.0;0.0;0.0;0.0;0.0;0.0;0.0;0.0;310.0;80.0;6.57994;306.796;80.0;0.0;3.0;1.0;0.8661399999999999;-1.10218;-3.2719400000000003;0.876769;-1.09295;-3.24457;0.0;0.0;0.0;0.0;0.0;0.0;0.0;0.0;0.0;0.0;0.0;0.0;0.0;0.0;0.0;0.0;675.0;304.0;1024.0;1024.0;1024.0;224.0;1024.0;1024.0;1024.0;1.0;4.0;0.0;0.0;0.0;0.0;0.0;;1970-01-01 00:00:00.022
612.0;618.0;0.0;-1.0;-1.0;-1.0;-1.0;-1.0;100.0;0.0;0.0;0.0;0.0;0.0;0.0;0.0;0.0;0.0;0.0;0.0;0.0;0.0;0.0;310.0;80.0;6.57994;306.796;80.0;0.0;3.0;1.0;0.8661399999999999;-1.10218;-3.2719400000000003;0.876769;-1.09295;-3.24457;0.0;0.0;0.0;0.0;0.0;0.0;0.0;0.0;0.0;0.0;0.0;0.0;0.0;0.0;0.0;0.0;675.0;304.0;1024.0;1024.0;1024.0;224.0;1024.0;1024.0;1024.0;1.0;4.0;0.0;0.0;0.0;0.0;0.0;;1970-01-01 00:00:00.033
613.0;619.0;0.0;-1.0;-1.0;-1.0;-1.0;-1.0;100.0;0.0;0.0;0.0;0.0;0.0;0.0;0.0;0.0;0.0;0.0;0.0;0.0;0.0;0.0;311.0;81.0;6.68887;307.671;80.2079;0.0;4.0;1.0;0.844564;-1.08994;-3.2138400000000003;0.867107;-1.09205;-3.23535;0.0;0.0;0.0;0.0;0.0;0.0;0.0;0.0;0.0;0.0;0.0;0.0;0.0;0.0;0.0;0.0;675.0;304.0;1024.0;1024.0;1024.0;224.0;1024.0;1024.0;1024.0;1.0;4.0;0.0;0.0;0.0;0.0;0.0;;1970-01-01 00:00:00.044
614.0;620.0;0.0;-1.0;-1.0;-1.0;-1.0;-1.0;100.0;0.0;0.0;0.0;0.0;0.0;0.0;0.0;0.0;0.0;0.0;0.0;0.0;0.0;0.0;313.0;81.0;6.6544300000000005;308.939;80.3966;0.0;5.0;1.0;0.8339219999999999;-1.09558;-3.23048;0.857152;-1.09311;-3.23389;0.0;0.0;0.0;0.0;0.0;0.0;0.0;0.0;0.0;0.0;0.0;0.0;0.0;0.0;0.0;0.0;675.0;304.0;1024.0;1024.0;1024.0;224.0;1024.0;1024.0;1024.0;1.0;4.0;0.0;0.0;0.0;0.0;0.0;;1970-01-01 00:00:00.055
614.0;620.0;0.0;-1.0;-1.0;-1.0;-1.0;-1.0;100.0;0.0;0.0;0.0;0.0;0.0;0.0;0.0;0.0;0.0;0.0;0.0;0.0;0.0;0.0;313.0;81.0;6.6544300000000005;308.939;80.3966;0.0;5.0;1.0;0.8339219999999999;-1.09558;-3.23048;0.857152;-1.09311;-3.23389;0.0;0.0;0.0;0.0;0.0;0.0;0.0;0.0;0.0;0.0;0.0;0.0;0.0;0.0;0.0;0.0;675.0;304.0;1024.0;1024.0;1024.0;224.0;1024.0;1024.0;1024.0;1.0;4.0;0.0;0.0;0.0;0.0;0.0;;1970-01-01 00:00:00.066
615.0;621.0;0.0;-1.0;-1.0;-1.0;-1.0;-1.0;100.0;0.0;0.0;0.0;0.0;0.0;0.0;0.0;0.0;0.0;0.0;0.0;0.0;0.0;0.0;314.0;82.0;6.7043;310.24;80.8073;0.0;6.0;1.0;0.8202659999999999;-1.09312;-3.2016400000000003;0.846086;-1.09311;-3.22421;0.0;0.0;0.0;0.0;0.0;0.0;0.0;0.0;0.0;0.0;0.0;0.0;0.0;0.0;0.0;0.0;675.0;304.0;1024.0;1024.0;1024.0;224.0;1024.0;1024.0;1024.0;1.0;4.0;0.0;0.0;0.0;0.0;0.0;;1970-01-01 00:00:00.077
616.0;622.0;0.0;-1.0;-1.0;-1.0;-1.0;-1.0;100.0;0.0;0.0;0.0;0.0;0.0;0.0;0.0;0.0;0.0;0.0;0.0;0.0;0.0;0.0;315.0;81.0;6.57555;311.524;80.8627;0.0;7.0;1.0;0.82873;-1.1087200000000001;-3.26923;0.840879;-1.09779;-3.23772;0.0;0.0;0.0;0.0;0.0;0.0;0.0;0.0;0.0;0.0;0.0;0.0;0.0;0.0;0.0;0.0;675.0;304.0;1024.0;1024.0;1024.0;224.0;1024.0;1024.0;1024.0;1.0;4.0;0.0;0.0;0.0;0.0;0.0;;1970-01-01 00:00:00.088
616.0;622.0;0.0;-1.0;-1.0;-1.0;-1.0;-1.0;100.0;0.0;0.0;0.0;0.0;0.0;0.0;0.0;0.0;0.0;0.0;0.0;0.0;0.0;0.0;315.0;81.0;6.57555;311.524;80.8627;0.0;7.0;1.0;0.82873;-1.1087200000000001;-3.26923;0.840879;-1.09779;-3.23772;0.0;0.0;0.0;0.0;0.0;0.0;0.0;0.0;0.0;0.0;0.0;0.0;0.0;0.0;0.0;0.0;675.0;304.0;1024.0;1024.0;1024.0;224.0;1024.0;1024.0;1024.0;1.0;4.0;0.0;0.0;0.0;0.0;0.0;;1970-01-01 00:00:00.099
617.0;623.0;0.0;-1.0;-1.0;-1.0;-1.0;-1.0;100.0;0.0;0.0;0.0;0.0;0.0;0.0;0.0;0.0;0.0;0.0;0.0;0.0;0.0;0.0;315.0;81.0;6.57555;311.553;80.8674;1.0;0.0;1.0;0.82873;-1.1087200000000001;-3.26923;0.840879;-1.09779;-3.23772;0.0;0.0;0.0;0.0;0.0;0.0;0.0;0.0;0.0;0.0;0.0;0.0;0.0;0.0;0.0;0.0;675.0;304.0;1024.0;1024.0;1024.0;224.0;1024.0;1024.0;1024.0;1.0;4.0;0.0;0.0;0.0;0.0;0.0;;1970-01-01 00:00:00.110
618.0;624.0;0.0;-1.0;-1.0;-1.0;-1.0;-1.0;100.0;0.0;0.0;0.0;0.0;0.0;0.0;0.0;0.0;0.0;0.0;0.0;0.0;0.0;0.0;315.0;81.0;6.57555;311.582;80.872;2.0;0.0;1.0;0.82873;-1.1087200000000001;-3.26923;0.840879;-1.09779;-3.23772;0.0;0.0;0.0;0.0;0.0;0.0;0.0;0.0;0.0;0.0;0.0;0.0;0.0;0.0;0.0;0.0;675.0;304.0;1024.0;1024.0;1024.0;224.0;1024.0;1024.0;1024.0;1.0;4.0;0.0;0.0;0.0;0.0;0.0;;1970-01-01 00:00:00.121
618.0;624.0;0.0;-1.0;-1.0;-1.0;-1.0;-1.0;100.0;0.0;0.0;0.0;0.0;0.0;0.0;0.0;0.0;0.0;0.0;0.0;0.0;0.0;0.0;315.0;81.0;6.57555;311.582;80.872;2.0;0.0;1.0;0.82873;-1.1087200000000001;-3.26923;0.840879;-1.09779;-3.23772;0.0;0.0;0.0;0.0;0.0;0.0;0.0;0.0;0.0;0.0;0.0;0.0;0.0;0.0;0.0;0.0;675.0;304.0;1024.0;1024.0;1024.0;224.0;1024.0;1024.0;1024.0;1.0;4.0;0.0;0.0;0.0;0.0;0.0;;1970-01-01 00:00:00.132
619.0;625.0;0.0;-1.0;-1.0;-1.0;-1.0;-1.0;100.0;0.0;0.0;0.0;0.0;0.0;0.0;0.0;0.0;0.0;0.0;0.0;0.0;0.0;0.0;316.0;82.0;6.55057;313.278;81.3025;0.0;1.0;1.0;0.8242649999999999;-1.1187799999999999;-3.27678;0.835895;-1.10409;-3.2494400000000003;-0.340091;-0.112951;-0.124286;0.653409;-2.3153599999999996;-5.29367;0.0;0.0;0.0;0.0;0.0;0.0;0.0;0.0;0.0;0.0;675.0;304.0;1024.0;1024.0;1024.0;224.0;1024.0;1024.0;1024.0;1.0;4.0;0.0;0.0;0.0;0.0;0.0;;1970-01-01 00:00:00.143
620.0;626.0;0.0;-1.0;-1.0;-1.0;-1.0;-1.0;100.0;0.0;0.0;0.0;0.0;0.0;0.0;0.0;0.0;0.0;0.0;0.0;0.0;0.0;0.0;316.0;82.0;6.671410000000001;314.232;81.5442;0.0;2.0;1.0;0.809334;-1.09851;-3.21743;0.8279270000000001;-1.1024200000000002;-3.23983;-0.35031100000000004;-0.0961067;-0.06039630000000001;0.15995299999999998;-0.9682200000000001;-1.25299;0.0;0.0;0.0;0.0;0.0;0.0;0.0;0.0;0.0;0.0;675.0;304.0;1024.0;1024.0;1024.0;224.0;1024.0;1024.0;1024.0;1.0;4.0;0.0;0.0;0.0;0.0;0.0;;1970-01-01 00:00:00.154
620.0;626.0;0.0;-1.0;-1.0;-1.0;-1.0;-1.0;100.0;0.0;0.0;0.0;0.0;0.0;0.0;0.0;0.0;0.0;0.0;0.0;0.0;0.0;0.0;316.0;82.0;6.671410000000001;314.232;81.5442;0.0;2.0;1.0;0.809334;-1.09851;-3.21743;0.8279270000000001;-1.1024200000000002;-3.23983;-0.35031100000000004;-0.0961067;-0.06039630000000001;0.15995299999999998;-0.9682200000000001;-1.25299;0.0;0.0;0.0;0.0;0.0;0.0;0.0;0.0;0.0;0.0;675.0;304.0;1024.0;1024.0;1024.0;224.0;1024.0;1024.0;1024.0;1.0;4.0;0.0;0.0;0.0;0.0;0.0;;1970-01-01 00:00:00.165
621.0;627.0;0.0;-1.0;-1.0;-1.0;-1.0;-1.0;100.0;0.0;0.0;0.0;0.0;0.0;0.0;0.0;0.0;0.0;0.0;0.0;0.0;0.0;0.0;316.66700000000003;82.6667;6.859389999999999;315.053;81.9067;0.0;3.0;1.0;0.782299;-1.07212;-3.1261200000000002;0.814238;-1.09333;-3.20572;-0.368502;-0.061495400000000006;0.052485500000000004;0.725195;-0.927499;-2.24782;0.0;0.0;0.0;0.0;0.0;0.0;0.0;0.0;0.0;0.0;675.0;304.0;1024.0;1024.0;1024.0;224.0;1024.0;1024.0;1024.0;1.0;4.0;0.0;0.0;0.0;0.0;0.0;;1970-01-01 00:00:00.176
622.0;628.0;0.0;-1.0;-1.0;-1.0;-1.0;-1.0;100.0;0.0;0.0;0.0;0.0;0.0;0.0;0.0;0.0;0.0;0.0;0.0;0.0;0.0;0.0;317.0;83.0;6.55612;315.717;82.2558;0.0;4.0;1.0;0.815946;-1.12366;-3.2690900000000003;0.814751;-1.10243;-3.22473;-0.348123;-0.06481519999999999;0.0589193;1.17834;-0.5607310000000001;-1.43439;0.0;0.0;0.0;0.0;0.0;0.0;0.0;0.0;0.0;0.0;675.0;304.0;1024.0;1024.0;1024.0;224.0;1024.0;1024.0;1024.0;1.0;4.0;0.0;0.0;0.0;0.0;0.0;;1970-01-01 00:00:00.187
623.0;629.0;0.0;-1.0;-1.0;-1.0;-1.0;-1.0;100.0;0.0;0.0;0.0;0.0;0.0;0.0;0.0;0.0;0.0;0.0;0.0;0.0;0.0;0.0;318.0;84.0;6.61445;316.485;82.8005;0.0;5.0;1.0;0.801198;-1.11952;-3.2354;0.810685;-1.10756;-3.2279299999999997;-0.31492600000000004;-0.08215639999999999;0.0242138;1.74895;-0.581658;-2.5238099999999997;0.0;0.0;0.0;0.0;0.0;0.0;0.0;0.0;0.0;0.0;675.0;304.0;1024.0;1024.0;1024.0;224.0;1024.0;1024.0;1024.0;1.0;4.0;0.0;0.0;0.0;0.0;0.0;;1970-01-01 00:00:00.198
623.0;629.0;0.0;-1.0;-1.0;-1.0;-1.0;-1.0;100.0;0.0;0.0;0.0;0.0;0.0;0.0;0.0;0.0;0.0;0.0;0.0;0.0;0.0;0.0;318.0;84.0;6.61445;316.485;82.8005;0.0;5.0;1.0;0.801198;-1.11952;-3.2354;0.810685;-1.10756;-3.2279299999999997;-0.31492600000000004;-0.08215639999999999;0.0242138;1.74895;-0.581658;-2.5238099999999997;0.0;0.0;0.0;0.0;0.0;0.0;0.0;0.0;0.0;0.0;675.0;304.0;1024.0;1024.0;1024.0;224.0;1024.0;1024.0;1024.0;1.0;4.0;0.0;0.0;0.0;0.0;0.0;;1970-01-01 00:00:00.209
624.0;630.0;0.0;-1.0;-1.0;-1.0;-1.0;-1.0;100.0;0.0;0.0;0.0;0.0;0.0;0.0;0.0;0.0;0.0;0.0;0.0;0.0;0.0;0.0;318.0;84.0;6.61445;316.589;82.838;1.0;0.0;1.0;0.801198;-1.11952;-3.2354;0.810685;-1.10756;-3.2279299999999997;-0.31492600000000004;-0.08215639999999999;0.0242138;1.74895;-0.581658;-2.5238099999999997;0.0;0.0;0.0;0.0;0.0;0.0;0.0;0.0;0.0;0.0;675.0;304.0;1024.0;1024.0;1024.0;224.0;1024.0;1024.0;1024.0;1.0;4.0;0.0;0.0;0.0;0.0;0.0;;1970-01-01 00:00:00.220
625.0;631.0;0.0;-1.0;-1.0;-1.0;-1.0;-1.0;100.0;0.0;0.0;0.0;0.0;0.0;0.0;0.0;0.0;0.0;0.0;0.0;0.0;0.0;0.0;319.0;85.0;6.61724;317.54900000000004;83.6436;0.0;1.0;1.0;0.793311;-1.1248200000000002;-3.22917;0.805473;-1.11274;-3.2283;-0.28323400000000004;-0.0890783;0.0395985;1.12552;0.160439;0.744506;0.0;0.0;0.0;0.0;0.0;0.0;0.0;0.0;0.0;0.0;675.0;304.0;1024.0;1024.0;1024.0;224.0;1024.0;1024.0;1024.0;1.0;4.0;0.0;0.0;0.0;0.0;0.0;;1970-01-01 00:00:00.231
625.0;631.0;0.0;-1.0;-1.0;-1.0;-1.0;-1.0;100.0;0.0;0.0;0.0;0.0;0.0;0.0;0.0;0.0;0.0;0.0;0.0;0.0;0.0;0.0;319.0;85.0;6.61724;317.54900000000004;83.6436;0.0;1.0;1.0;0.793311;-1.1248200000000002;-3.22917;0.805473;-1.11274;-3.2283;-0.28323400000000004;-0.0890783;0.0395985;1.12552;0.160439;0.744506;0.0;0.0;0.0;0.0;0.0;0.0;0.0;0.0;0.0;0.0;675.0;304.0;1024.0;1024.0;1024.0;224.0;1024.0;1024.0;1024.0;1.0;4.0;0.0;0.0;0.0;0.0;0.0;;1970-01-01 00:00:00.242
626.0;632.0;0.0;-1.0;-1.0;-1.0;-1.0;-1.0;100.0;0.0;0.0;0.0;0.0;0.0;0.0;0.0;0.0;0.0;0.0;0.0;0.0;0.0;0.0;320.0;86.0;6.64613;318.47700000000003;84.4714;0.0;2.0;1.0;0.782346;-1.12568;-3.21028;0.798535;-1.1166200000000002;-3.2229;-0.29785700000000004;-0.0963445;0.114628;0.8199120000000001;0.153123;1.26472;0.0;0.0;0.0;0.0;0.0;0.0;0.0;0.0;0.0;0.0;675.0;304.0;1024.0;1024.0;1024.0;224.0;1024.0;1024.0;1024.0;1.0;4.0;0.0;0.0;0.0;0.0;0.0;;1970-01-01 00:00:00.253
627.0;633.0;0.0;-1.0;-1.0;-1.0;-1.0;-1.0;100.0;0.0;0.0;0.0;0.0;0.0;0.0;0.0;0.0;0.0;0.0;0.0;0.0;0.0;0.0;320.0;86.0;6.90125;319.101;85.0285;0.0;3.0;1.0;0.753425;-1.08407;-3.0916099999999997;0.7850020000000001;-1.10685;-3.18351;-0.32568600000000003;-0.07299560000000001;0.26162199999999997;0.576263;0.171004;1.86139;0.0;0.0;0.0;0.0;0.0;0.0;0.0;0.0;0.0;0.0;675.0;304.0;1024.0;1024.0;1024.0;224.0;1024.0;1024.0;1024.0;1.0;4.0;0.0;0.0;0.0;0.0;0.0;;1970-01-01 00:00:00.264
627.0;633.0;0.0;-1.0;-1.0;-1.0;-1.0;-1.0;100.0;0.0;0.0;0.0;0.0;0.0;0.0;0.0;0.0;0.0;0.0;0.0;0.0;0.0;0.0;320.0;86.0;6.90125;319.101;85.0285;0.0;3.0;1.0;0.753425;-1.08407;-3.0916099999999997;0.7850020000000001;-1.10685;-3.18351;-0.32568600000000003;-0.07299560000000001;0.26162199999999997;0.576263;0.171004;1.86139;0.0;0.0;0.0;0.0;0.0;0.0;0.0;0.0;0.0;0.0;675.0;304.0;1024.0;1024.0;1024.0;224.0;1024.0;1024.0;1024.0;1.0;4.0;0.0;0.0;0.0;0.0;0.0;;1970-01-01 00:00:00.275
628.0;634.0;0.0;-1.0;-1.0;-1.0;-1.0;-1.0;100.0;0.0;0.0;0.0;0.0;0.0;0.0;0.0;0.0;0.0;0.0;0.0;0.0;0.0;0.0;321.0;86.0;7.05892;319.846;85.4181;0.0;4.0;1.0;0.7295189999999999;-1.05985;-3.02256;0.768357;-1.09275;-3.13522;-0.352505;-0.0418284;0.398345;0.40053099999999997;0.16994;2.3010200000000003;0.0;0.0;0.0;0.0;0.0;0.0;0.0;0.0;0.0;0.0;675.0;304.0;1024.0;1024.0;1024.0;224.0;1024.0;1024.0;1024.0;1.0;4.0;0.0;0.0;0.0;0.0;0.0;;1970-01-01 00:00:00.286
629.0;635.0;0.0;-1.0;-1.0;-1.0;-1.0;-1.0;100.0;0.0;0.0;0.0;0.0;0.0;0.0;0.0;0.0;0.0;0.0;0.0;0.0;0.0;0.0;322.0;87.0;6.839339999999999;320.682;86.0011;0.0;5.0;1.0;0.745636;-1.09946;-3.11489;0.761541;-1.09477;-3.12912;-0.39360300000000004;0.00111831;0.566209;0.0846701;0.32760900000000004;3.11671;0.0;0.0;0.0;0.0;0.0;0.0;0.0;0.0;0.0;0.0;675.0;304.0;1024.0;1024.0;1024.0;224.0;1024.0;1024.0;1024.0;1.0;4.0;0.0;0.0;0.0;0.0;0.0;;1970-01-01 00:00:00.297
629.0;635.0;0.0;-1.0;-1.0;-1.0;-1.0;-1.0;100.0;0.0;0.0;0.0;0.0;0.0;0.0;0.0;0.0;0.0;0.0;0.0;0.0;0.0;0.0;322.0;87.0;6.839339999999999;320.682;86.0011;0.0;5.0;1.0;0.745636;-1.09946;-3.11489;0.761541;-1.09477;-3.12912;-0.39360300000000004;0.00111831;0.566209;0.0846701;0.32760900000000004;3.11671;0.0;0.0;0.0;0.0;0.0;0.0;0.0;0.0;0.0;0.0;675.0;304.0;1024.0;1024.0;1024.0;224.0;1024.0;1024.0;1024.0;1.0;4.0;0.0;0.0;0.0;0.0;0.0;;1970-01-01 00:00:00.308
630.0;636.0;0.0;-1.0;-1.0;-1.0;-1.0;-1.0;100.0;0.0;0.0;0.0;0.0;0.0;0.0;0.0;0.0;0.0;0.0;0.0;0.0;0.0;0.0;322.0;87.0;6.839339999999999;320.879;86.1148;1.0;0.0;1.0;0.745636;-1.09946;-3.11489;0.761541;-1.09477;-3.12912;-0.39360300000000004;0.00111831;0.566209;0.0846701;0.32760900000000004;3.11671;0.0;0.0;0.0;0.0;0.0;0.0;0.0;0.0;0.0;0.0;675.0;304.0;1024.0;1024.0;1024.0;224.0;1024.0;1024.0;1024.0;1.0;4.0;0.0;0.0;0.0;0.0;0.0;;1970-01-01 00:00:00.319
631.0;637.0;0.0;-1.0;-1.0;-1.0;-1.0;-1.0;100.0;0.0;0.0;0.0;0.0;0.0;0.0;0.0;0.0;0.0;0.0;0.0;0.0;0.0;0.0;325.0;89.0;6.70757;322.592;87.2898;0.0;1.0;1.0;0.737941;-1.13245;-3.16648;0.7544609999999999;-1.10607;-3.14033;-0.404526;0.00511279;0.602049;-0.21750500000000003;0.45789300000000005;3.60036;0.0;0.0;0.0;0.0;0.0;0.0;0.0;0.0;0.0;0.0;675.0;304.0;1024.0;1024.0;1024.0;224.0;1024.0;1024.0;1024.0;1.0;4.0;0.0;0.0;0.0;0.0;0.0;;1970-01-01 00:00:00.330
631.0;637.0;0.0;-1.0;-1.0;-1.0;-1.0;-1.0;100.0;0.0;0.0;0.0;0.0;0.0;0.0;0.0;0.0;0.0;0.0;0.0;0.0;0.0;0.0;325.0;89.0;6.70757;322.592;87.2898;0.0;1.0;1.0;0.737941;-1.13245;-3.16648;0.7544609999999999;-1.10607;-3.14033;-0.404526;0.00511279;0.602049;-0.21750500000000003;0.45789300000000005;3.60036;0.0;0.0;0.0;0.0;0.0;0.0;0.0;0.0;0.0;0.0;675.0;304.0;1024.0;1024.0;1024.0;224.0;1024.0;1024.0;1024.0;1.0;4.0;0.0;0.0;0.0;0.0;0.0;;1970-01-01 00:00:00.341
632.0;638.0;0.0;-1.0;-1.0;-1.0;-1.0;-1.0;100.0;0.0;0.0;0.0;0.0;0.0;0.0;0.0;0.0;0.0;0.0;0.0;0.0;0.0;0.0;325.0;89.0;6.70757;322.83799999999997;87.4382;1.0;0.0;1.0;0.737941;-1.13245;-3.16648;0.7544609999999999;-1.10607;-3.14033;-0.404526;0.00511279;0.602049;-0.21750500000000003;0.45789300000000005;3.60036;0.0;0.0;0.0;0.0;0.0;0.0;0.0;0.0;0.0;0.0;675.0;304.0;1024.0;1024.0;1024.0;224.0;1024.0;1024.0;1024.0;1.0;4.0;0.0;0.0;0.0;0.0;0.0;;1970-01-01 00:00:00.352
633.0;639.0;0.0;-1.0;-1.0;-1.0;-1.0;-1.0;100.0;0.0;0.0;0.0;0.0;0.0;0.0;0.0;0.0;0.0;0.0;0.0;0.0;0.0;0.0;325.0;89.0;6.70757;323.084;87.5865;2.0;0.0;1.0;0.737941;-1.13245;-3.16648;0.7544609999999999;-1.10607;-3.14033;-0.404526;0.00511279;0.602049;-0.21750500000000003;0.45789300000000005;3.60036;0.0;0.0;0.0;0.0;0.0;0.0;0.0;0.0;0.0;0.0;675.0;304.0;1024.0;1024.0;1024.0;224.0;1024.0;1024.0;1024.0;1.0;4.0;0.0;0.0;0.0;0.0;0.0;;1970-01-01 00:00:00.363
634.0;640.0;0.0;-1.0;-1.0;-1.0;-1.0;-1.0;100.0;0.0;0.0;0.0;0.0;0.0;0.0;0.0;0.0;0.0;0.0;0.0;0.0;0.0;0.0;329.0;90.0;6.836180000000001;326.0;88.824;0.0;1.0;1.0;0.6948270000000001;-1.11673;-3.1022;0.73657;-1.10927;-3.12889;-0.426117;0.0122902;0.625842;-0.510826;0.544556;3.7206599999999996;0.0;0.0;0.0;0.0;0.0;0.0;0.0;0.0;0.0;0.0;675.0;304.0;1024.0;1024.0;1024.0;224.0;1024.0;1024.0;1024.0;1.0;4.0;0.0;0.0;0.0;0.0;0.0;;1970-01-01 00:00:00.374
634.0;640.0;0.0;-1.0;-1.0;-1.0;-1.0;-1.0;100.0;0.0;0.0;0.0;0.0;0.0;0.0;0.0;0.0;0.0;0.0;0.0;0.0;0.0;0.0;329.0;90.0;6.836180000000001;326.0;88.824;0.0;1.0;1.0;0.6948270000000001;-1.11673;-3.1022;0.73657;-1.10927;-3.12889;-0.426117;0.0122902;0.625842;-0.510826;0.544556;3.7206599999999996;0.0;0.0;0.0;0.0;0.0;0.0;0.0;0.0;0.0;0.0;675.0;304.0;1024.0;1024.0;1024.0;224.0;1024.0;1024.0;1024.0;1.0;4.0;0.0;0.0;0.0;0.0;0.0;;1970-01-01 00:00:00.385
635.0;641.0;0.0;-1.0;-1.0;-1.0;-1.0;-1.0;100.0;0.0;0.0;0.0;0.0;0.0;0.0;0.0;0.0;0.0;0.0;0.0;0.0;0.0;0.0;330.0;91.0;6.742260000000001;327.845;89.8297;0.0;2.0;1.0;0.697096;-1.13795;-3.14063;0.7247279999999999;-1.11788;-3.1324099999999997;-0.452128;0.00402779;0.616354;-0.7171310000000001;0.593903;3.56788;0.0;0.0;0.0;0.0;0.0;0.0;0.0;0.0;0.0;0.0;675.0;304.0;1024.0;1024.0;1024.0;224.0;1024.0;1024.0;1024.0;1.0;4.0;0.0;0.0;0.0;0.0;0.0;;1970-01-01 00:00:00.396
636.0;642.0;0.0;-1.0;-1.0;-1.0;-1.0;-1.0;100.0;0.0;0.0;0.0;0.0;0.0;0.0;0.0;0.0;0.0;0.0;0.0;0.0;0.0;0.0;332.0;91.0;6.634289999999999;329.662;90.4457;0.0;3.0;1.0;0.69338;-1.15647;-3.1917400000000002;0.715324;-1.12945;-3.15021;-0.456744;-0.0577452;0.458445;-0.7791239999999999;0.396935;2.66463;0.0;0.0;0.0;0.0;0.0;0.0;0.0;0.0;0.0;0.0;675.0;304.0;1024.0;1024.0;1024.0;224.0;1024.0;1024.0;1024.0;1.0;4.0;0.0;0.0;0.0;0.0;0.0;;1970-01-01 00:00:00.407
636.0;642.0;0.0;-1.0;-1.0;-1.0;-1.0;-1.0;100.0;0.0;0.0;0.0;0.0;0.0;0.0;0.0;0.0;0.0;0.0;0.0;0.0;0.0;0.0;332.0;91.0;6.634289999999999;329.662;90.4457;0.0;3.0;1.0;0.69338;-1.15647;-3.1917400000000002;0.715324;-1.12945;-3.15021;-0.456744;-0.0577452;0.458445;-0.7791239999999999;0.396935;2.66463;0.0;0.0;0.0;0.0;0.0;0.0;0.0;0.0;0.0;0.0;675.0;304.0;1024.0;1024.0;1024.0;224.0;1024.0;1024.0;1024.0;1.0;4.0;0.0;0.0;0.0;0.0;0.0;;1970-01-01 00:00:00.418
637.0;643.0;0.0;-1.0;-1.0;-1.0;-1.0;-1.0;100.0;0.0;0.0;0.0;0.0;0.0;0.0;0.0;0.0;0.0;0.0;0.0;0.0;0.0;0.0;333.0;91.0;6.6387;331.19599999999997;90.8557;0.0;4.0;1.0;0.685394;-1.15571;-3.18962;0.706345;-1.13733;-3.16204;-0.439109;-0.153303;0.203699;-0.697998;-0.058560900000000006;1.08067;0.0;0.0;0.0;0.0;0.0;0.0;0.0;0.0;0.0;0.0;675.0;304.0;1024.0;1024.0;1024.0;224.0;1024.0;1024.0;1024.0;1.0;4.0;0.0;0.0;0.0;0.0;0.0;;1970-01-01 00:00:00.429
638.0;644.0;0.0;-1.0;-1.0;-1.0;-1.0;-1.0;100.0;0.0;0.0;0.0;0.0;0.0;0.0;0.0;0.0;0.0;0.0;0.0;0.0;0.0;0.0;334.0;91.0;6.7187;332.574;91.1369;0.0;5.0;1.0;0.669797;-1.14194;-3.15164;0.695381;-1.13871;-3.15892;-0.439569;-0.208961;0.0429127;-0.541148;-0.594322;-0.7444970000000001;0.0;0.0;0.0;0.0;0.0;0.0;0.0;0.0;0.0;0.0;675.0;304.0;1024.0;1024.0;1024.0;224.0;1024.0;1024.0;1024.0;1.0;4.0;0.0;0.0;0.0;0.0;0.0;;1970-01-01 00:00:00.440
638.0;644.0;0.0;-1.0;-1.0;-1.0;-1.0;-1.0;100.0;0.0;0.0;0.0;0.0;0.0;0.0;0.0;0.0;0.0;0.0;0.0;0.0;0.0;0.0;334.0;91.0;6.7187;332.574;91.1369;0.0;5.0;1.0;0.669797;-1.14194;-3.15164;0.695381;-1.13871;-3.15892;-0.439569;-0.208961;0.0429127;-0.541148;-0.594322;-0.7444970000000001;0.0;0.0;0.0;0.0;0.0;0.0;0.0;0.0;0.0;0.0;675.0;304.0;1024.0;1024.0;1024.0;224.0;1024.0;1024.0;1024.0;1.0;4.0;0.0;0.0;0.0;0.0;0.0;;1970-01-01 00:00:00.451
639.0;645.0;0.0;-1.0;-1.0;-1.0;-1.0;-1.0;100.0;0.0;0.0;0.0;0.0;0.0;0.0;0.0;0.0;0.0;0.0;0.0;0.0;0.0;0.0;335.0;91.0;6.6048100000000005;333.85699999999997;91.3304;0.0;6.0;1.0;0.673784;-1.16164;-3.2059900000000003;0.688902;-1.1455899999999999;-3.1730400000000003;-0.46005799999999997;-0.243716;-0.0722023;-0.490982;-1.10171;-2.46575;0.0;0.0;0.0;0.0;0.0;0.0;0.0;0.0;0.0;0.0;675.0;304.0;1024.0;1024.0;1024.0;224.0;1024.0;1024.0;1024.0;1.0;4.0;0.0;0.0;0.0;0.0;0.0;;1970-01-01 00:00:00.462
640.0;646.0;0.0;-1.0;-1.0;-1.0;-1.0;-1.0;100.0;0.0;0.0;0.0;0.0;0.0;0.0;0.0;0.0;0.0;0.0;0.0;0.0;0.0;0.0;337.0;91.0;6.5853;335.39099999999996;91.4615;0.0;7.0;1.0;0.660608;-1.16508;-3.21549;0.6804140000000001;-1.15144;-3.18578;-0.500251;-0.31458600000000003;-0.270447;-0.5905819999999999;-1.9661400000000002;-5.05805;0.0;0.0;0.0;0.0;0.0;0.0;0.0;0.0;0.0;0.0;675.0;304.0;1024.0;1024.0;1024.0;224.0;1024.0;1024.0;1024.0;1.0;4.0;0.0;0.0;0.0;0.0;0.0;;1970-01-01 00:00:00.473
640.0;646.0;0.0;-1.0;-1.0;-1.0;-1.0;-1.0;100.0;0.0;0.0;0.0;0.0;0.0;0.0;0.0;0.0;0.0;0.0;0.0;0.0;0.0;0.0;337.0;91.0;6.5853;335.39099999999996;91.4615;0.0;7.0;1.0;0.660608;-1.16508;-3.21549;0.6804140000000001;-1.15144;-3.18578;-0.500251;-0.31458600000000003;-0.270447;-0.5905819999999999;-1.9661400000000002;-5.05805;0.0;0.0;0.0;0.0;0.0;0.0;0.0;0.0;0.0;0.0;675.0;304.0;1024.0;1024.0;1024.0;224.0;1024.0;1024.0;1024.0;1.0;4.0;0.0;0.0;0.0;0.0;0.0;;1970-01-01 00:00:00.484
641.0;647.0;0.0;-1.0;-1.0;-1.0;-1.0;-1.0;100.0;0.0;0.0;0.0;0.0;0.0;0.0;0.0;0.0;0.0;0.0;0.0;0.0;0.0;0.0;337.0;91.0;6.57056;336.48;91.5474;0.0;8.0;1.0;0.66209;-1.16769;-3.2227;0.674917;-1.15631;-3.19685;-0.499032;-0.34221999999999997;-0.41956000000000004;-0.541624;-2.5621400000000003;-7.1709;0.0;0.0;0.0;0.0;0.0;0.0;0.0;0.0;0.0;0.0;675.0;304.0;1024.0;1024.0;1024.0;224.0;1024.0;1024.0;1024.0;1.0;4.0;0.0;0.0;0.0;0.0;0.0;;1970-01-01 00:00:00.495
642.0;648.0;0.0;-1.0;-1.0;-1.0;-1.0;-1.0;100.0;0.0;0.0;0.0;0.0;0.0;0.0;0.0;0.0;0.0;0.0;0.0;0.0;0.0;0.0;338.0;91.0;6.56383;337.561;91.6005;0.0;9.0;1.0;0.655158;-1.16889;-3.22601;0.6689890000000001;-1.16009;-3.2056;-0.48441899999999993;-0.327631;-0.472884;-0.435475;-2.61485;-8.02104;0.0;0.0;0.0;0.0;0.0;0.0;0.0;0.0;0.0;0.0;675.0;304.0;1024.0;1024.0;1024.0;224.0;1024.0;1024.0;1024.0;1.0;4.0;0.0;0.0;0.0;0.0;0.0;;1970-01-01 00:00:00.506
642.0;648.0;0.0;-1.0;-1.0;-1.0;-1.0;-1.0;100.0;0.0;0.0;0.0;0.0;0.0;0.0;0.0;0.0;0.0;0.0;0.0;0.0;0.0;0.0;338.0;91.0;6.56383;337.561;91.6005;0.0;9.0;1.0;0.655158;-1.16889;-3.22601;0.6689890000000001;-1.16009;-3.2056;-0.48441899999999993;-0.327631;-0.472884;-0.435475;-2.61485;-8.02104;0.0;0.0;0.0;0.0;0.0;0.0;0.0;0.0;0.0;0.0;675.0;304.0;1024.0;1024.0;1024.0;224.0;1024.0;1024.0;1024.0;1.0;4.0;0.0;0.0;0.0;0.0;0.0;;1970-01-01 00:00:00.517
643.0;649.0;0.0;-1.0;-1.0;-1.0;-1.0;-1.0;100.0;0.0;0.0;0.0;0.0;0.0;0.0;0.0;0.0;0.0;0.0;0.0;0.0;0.0;0.0;339.0;91.0;6.57735;338.63599999999997;91.6299;0.0;10.0;1.0;0.646216;-1.16649;-3.21938;0.662157;-1.16201;-3.20973;-0.467079;-0.295101;-0.47417200000000004;-0.37296;-2.1350599999999997;-7.519139999999999;0.0;0.0;0.0;0.0;0.0;0.0;0.0;0.0;0.0;0.0;675.0;304.0;1024.0;1024.0;1024.0;224.0;1024.0;1024.0;1024.0;1.0;4.0;0.0;0.0;0.0;0.0;0.0;;1970-01-01 00:00:00.528
644.0;650.0;0.0;-1.0;-1.0;-1.0;-1.0;-1.0;100.0;0.0;0.0;0.0;0.0;0.0;0.0;0.0;0.0;0.0;0.0;0.0;0.0;0.0;0.0;340.0;90.0;6.54334;339.70599999999996;91.3269;0.0;11.0;1.0;0.641939;-1.1667100000000001;-3.24103;0.656092;-1.1634200000000001;-3.21912;-0.437116;-0.27569099999999996;-0.524877;-0.213981;-1.5474700000000001;-6.77848;0.0;0.0;0.0;0.0;0.0;0.0;0.0;0.0;0.0;0.0;675.0;304.0;1024.0;1024.0;1024.0;224.0;1024.0;1024.0;1024.0;1.0;4.0;0.0;0.0;0.0;0.0;0.0;;1970-01-01 00:00:00.539
645.0;651.0;0.0;-1.0;-1.0;-1.0;-1.0;-1.0;100.0;0.0;0.0;0.0;0.0;0.0;0.0;0.0;0.0;0.0;0.0;0.0;0.0;0.0;0.0;340.0;90.0;6.653339999999999;340.457;91.0979;0.0;12.0;1.0;0.631326;-1.14742;-3.18745;0.648662;-1.15862;-3.20962;-0.422933;-0.21743099999999999;-0.460975;0.0198418;-0.8235370000000001;-5.619330000000001;0.0;0.0;0.0;0.0;0.0;0.0;0.0;0.0;0.0;0.0;675.0;304.0;1024.0;1024.0;1024.0;224.0;1024.0;1024.0;1024.0;1.0;4.0;0.0;0.0;0.0;0.0;0.0;;1970-01-01 00:00:00.550
645.0;651.0;0.0;-1.0;-1.0;-1.0;-1.0;-1.0;100.0;0.0;0.0;0.0;0.0;0.0;0.0;0.0;0.0;0.0;0.0;0.0;0.0;0.0;0.0;340.0;90.0;6.653339999999999;340.457;91.0979;0.0;12.0;1.0;0.631326;-1.14742;-3.18745;0.648662;-1.15862;-3.20962;-0.422933;-0.21743099999999999;-0.460975;0.0198418;-0.8235370000000001;-5.619330000000001;0.0;0.0;0.0;0.0;0.0;0.0;0.0;0.0;0.0;0.0;675.0;304.0;1024.0;1024.0;1024.0;224.0;1024.0;1024.0;1024.0;1.0;4.0;0.0;0.0;0.0;0.0;0.0;;1970-01-01 00:00:00.561
646.0;652.0;0.0;-1.0;-1.0;-1.0;-1.0;-1.0;100.0;0.0;0.0;0.0;0.0;0.0;0.0;0.0;0.0;0.0;0.0;0.0;0.0;0.0;0.0;340.667;89.3333;6.717210000000001;341.185;90.713;0.0;13.0;1.0;0.6203649999999999;-1.1327200000000002;-3.16033;0.640173;-1.15085;-3.19483;-0.41442799999999996;-0.12811199999999998;-0.312749;0.354571;0.250407;-3.54049;0.0;0.0;0.0;0.0;0.0;0.0;0.0;0.0;0.0;0.0;675.0;304.0;1024.0;1024.0;1024.0;224.0;1024.0;1024.0;1024.0;1.0;4.0;0.0;0.0;0.0;0.0;0.0;;1970-01-01 00:00:00.572
647.0;653.0;0.0;-1.0;-1.0;-1.0;-1.0;-1.0;100.0;0.0;0.0;0.0;0.0;0.0;0.0;0.0;0.0;0.0;0.0;0.0;0.0;0.0;0.0;342.0;89.0;6.6425399999999994;342.10699999999997;90.3207;0.0;14.0;1.0;0.6173109999999999;-1.14354;-3.19748;0.633314;-1.14866;-3.19563;-0.41476;-0.046293;-0.182746;0.549214;1.33179;-1.17877;0.0;0.0;0.0;0.0;0.0;0.0;0.0;0.0;0.0;0.0;675.0;304.0;1024.0;1024.0;1024.0;224.0;1024.0;1024.0;1024.0;1.0;4.0;0.0;0.0;0.0;0.0;0.0;;1970-01-01 00:00:00.583
647.0;653.0;0.0;-1.0;-1.0;-1.0;-1.0;-1.0;100.0;0.0;0.0;0.0;0.0;0.0;0.0;0.0;0.0;0.0;0.0;0.0;0.0;0.0;0.0;342.0;89.0;6.6425399999999994;342.10699999999997;90.3207;0.0;14.0;1.0;0.6173109999999999;-1.14354;-3.19748;0.633314;-1.14866;-3.19563;-0.41476;-0.046293;-0.182746;0.549214;1.33179;-1.17877;0.0;0.0;0.0;0.0;0.0;0.0;0.0;0.0;0.0;0.0;675.0;304.0;1024.0;1024.0;1024.0;224.0;1024.0;1024.0;1024.0;1.0;4.0;0.0;0.0;0.0;0.0;0.0;;1970-01-01 00:00:00.594
648.0;654.0;0.0;-1.0;-1.0;-1.0;-1.0;-1.0;100.0;0.0;0.0;0.0;0.0;0.0;0.0;0.0;0.0;0.0;0.0;0.0;0.0;0.0;0.0;342.0;89.0;6.6425399999999994;342.783;90.4475;1.0;0.0;1.0;0.6173109999999999;-1.14354;-3.19748;0.633314;-1.14866;-3.19563;-0.41476;-0.046293;-0.182746;0.549214;1.33179;-1.17877;0.0;0.0;0.0;0.0;0.0;0.0;0.0;0.0;0.0;0.0;675.0;304.0;1024.0;1024.0;1024.0;224.0;1024.0;1024.0;1024.0;1.0;4.0;0.0;0.0;0.0;0.0;0.0;;1970-01-01 00:00:00.605
649.0;655.0;0.0;-1.0;-1.0;-1.0;-1.0;-1.0;100.0;0.0;0.0;0.0;0.0;0.0;0.0;0.0;0.0;0.0;0.0;0.0;0.0;0.0;0.0;343.0;90.0;6.56675;343.541;90.40299999999999;0.0;1.0;1.0;0.616829;-1.16255;-3.22948;0.628369;-1.1528200000000002;-3.20578;-0.387871;-0.00292631;-0.110268;0.6599470000000001;1.91031;0.533718;0.0;0.0;0.0;0.0;0.0;0.0;0.0;0.0;0.0;0.0;675.0;304.0;1024.0;1024.0;1024.0;224.0;1024.0;1024.0;1024.0;1.0;4.0;0.0;0.0;0.0;0.0;0.0;;1970-01-01 00:00:00.616
649.0;655.0;0.0;-1.0;-1.0;-1.0;-1.0;-1.0;100.0;0.0;0.0;0.0;0.0;0.0;0.0;0.0;0.0;0.0;0.0;0.0;0.0;0.0;0.0;343.0;90.0;6.56675;343.541;90.40299999999999;0.0;1.0;1.0;0.616829;-1.16255;-3.22948;0.628369;-1.1528200000000002;-3.20578;-0.387871;-0.00292631;-0.110268;0.6599470000000001;1.91031;0.533718;0.0;0.0;0.0;0.0;0.0;0.0;0.0;0.0;0.0;0.0;675.0;304.0;1024.0;1024.0;1024.0;224.0;1024.0;1024.0;1024.0;1.0;4.0;0.0;0.0;0.0;0.0;0.0;;1970-01-01 00:00:00.627
650.0;656.0;0.0;-1.0;-1.0;-1.0;-1.0;-1.0;100.0;0.0;0.0;0.0;0.0;0.0;0.0;0.0;0.0;0.0;0.0;0.0;0.0;0.0;0.0;344.0;90.0;6.759339999999999;344.38;90.3817;0.0;2.0;1.0;0.591862;-1.12943;-3.13746;0.617417;-1.14581;-3.18528;-0.385836;0.0536861;0.0175102;0.674004;2.33983;2.0029;0.0;0.0;0.0;0.0;0.0;0.0;0.0;0.0;0.0;0.0;675.0;304.0;1024.0;1024.0;1024.0;224.0;1024.0;1024.0;1024.0;1.0;4.0;0.0;0.0;0.0;0.0;0.0;;1970-01-01 00:00:00.638
651.0;657.0;0.0;-1.0;-1.0;-1.0;-1.0;-1.0;100.0;0.0;0.0;0.0;0.0;0.0;0.0;0.0;0.0;0.0;0.0;0.0;0.0;0.0;0.0;345.0;91.0;6.583019999999999;345.273;90.70200000000001;0.0;3.0;1.0;0.6001270000000001;-1.1654799999999998;-3.2166;0.61223;-1.15171;-3.19468;-0.38161100000000003;0.07228330000000001;0.0941515;0.594357;2.59477;3.32025;0.0;0.0;0.0;0.0;0.0;0.0;0.0;0.0;0.0;0.0;675.0;304.0;1024.0;1024.0;1024.0;224.0;1024.0;1024.0;1024.0;1.0;4.0;0.0;0.0;0.0;0.0;0.0;;1970-01-01 00:00:00.649
651.0;657.0;0.0;-1.0;-1.0;-1.0;-1.0;-1.0;100.0;0.0;0.0;0.0;0.0;0.0;0.0;0.0;0.0;0.0;0.0;0.0;0.0;0.0;0.0;345.0;91.0;6.583019999999999;345.273;90.70200000000001;0.0;3.0;1.0;0.6001270000000001;-1.1654799999999998;-3.2166;0.61223;-1.15171;-3.19468;-0.38161100000000003;0.07228330000000001;0.0941515;0.594357;2.59477;3.32025;0.0;0.0;0.0;0.0;0.0;0.0;0.0;0.0;0.0;0.0;675.0;304.0;1024.0;1024.0;1024.0;224.0;1024.0;1024.0;1024.0;1.0;4.0;0.0;0.0;0.0;0.0;0.0;;1970-01-01 00:00:00.660
652.0;658.0;0.0;-1.0;-1.0;-1.0;-1.0;-1.0;100.0;0.0;0.0;0.0;0.0;0.0;0.0;0.0;0.0;0.0;0.0;0.0;0.0;0.0;0.0;346.0;91.0;6.60405;346.204;90.9216;0.0;4.0;1.0;0.590651;-1.16177;-3.2063599999999997;0.6057560000000001;-1.15473;-3.19818;-0.375802;0.056688499999999996;0.0956206;0.517907;2.49498;3.8969699999999996;0.0;0.0;0.0;0.0;0.0;0.0;0.0;0.0;0.0;0.0;675.0;304.0;1024.0;1024.0;1024.0;224.0;1024.0;1024.0;1024.0;1.0;4.0;0.0;0.0;0.0;0.0;0.0;;1970-01-01 00:00:00.671
653.0;659.0;0.0;-1.0;-1.0;-1.0;-1.0;-1.0;100.0;0.0;0.0;0.0;0.0;0.0;0.0;0.0;0.0;0.0;0.0;0.0;0.0;0.0;0.0;348.0;92.0;6.551819999999999;347.486;91.3952;0.0;5.0;1.0;0.580109;-1.17686;-3.227;0.598062;-1.16137;-3.20683;-0.369598;-0.0019814;0.016311700000000002;0.464164;1.92865;3.4643300000000004;0.0;0.0;0.0;0.0;0.0;0.0;0.0;0.0;0.0;0.0;675.0;304.0;1024.0;1024.0;1024.0;224.0;1024.0;1024.0;1024.0;1.0;4.0;0.0;0.0;0.0;0.0;0.0;;1970-01-01 00:00:00.682
653.0;659.0;0.0;-1.0;-1.0;-1.0;-1.0;-1.0;100.0;0.0;0.0;0.0;0.0;0.0;0.0;0.0;0.0;0.0;0.0;0.0;0.0;0.0;0.0;348.0;92.0;6.551819999999999;347.486;91.3952;0.0;5.0;1.0;0.580109;-1.17686;-3.227;0.598062;-1.16137;-3.20683;-0.369598;-0.0019814;0.016311700000000002;0.464164;1.92865;3.4643300000000004;0.0;0.0;0.0;0.0;0.0;0.0;0.0;0.0;0.0;0.0;675.0;304.0;1024.0;1024.0;1024.0;224.0;1024.0;1024.0;1024.0;1.0;4.0;0.0;0.0;0.0;0.0;0.0;;1970-01-01 00:00:00.693
654.0;660.0;0.0;-1.0;-1.0;-1.0;-1.0;-1.0;100.0;0.0;0.0;0.0;0.0;0.0;0.0;0.0;0.0;0.0;0.0;0.0;0.0;0.0;0.0;348.0;92.0;6.57435;348.379;91.7298;0.0;6.0;1.0;0.578122;-1.1728299999999998;-3.21595;0.59208;-1.1648;-3.2095700000000003;-0.362875;-0.0564571;-0.0379207;0.456063;1.1224;2.57423;0.0;0.0;0.0;0.0;0.0;0.0;0.0;0.0;0.0;0.0;675.0;304.0;1024.0;1024.0;1024.0;224.0;1024.0;1024.0;1024.0;1.0;4.0;0.0;0.0;0.0;0.0;0.0;;1970-01-01 00:00:00.704
655.0;661.0;0.0;-1.0;-1.0;-1.0;-1.0;-1.0;100.0;0.0;0.0;0.0;0.0;0.0;0.0;0.0;0.0;0.0;0.0;0.0;0.0;0.0;0.0;350.0;92.0;6.623130000000001;349.631;91.9654;0.0;7.0;1.0;0.558778;-1.16419;-3.1922599999999997;0.5820890000000001;-1.16462;-3.20437;-0.402504;-0.0809705;-0.0171351;0.21520999999999998;0.36183699999999996;1.91639;0.0;0.0;0.0;0.0;0.0;0.0;0.0;0.0;0.0;0.0;675.0;304.0;1024.0;1024.0;1024.0;224.0;1024.0;1024.0;1024.0;1.0;4.0;0.0;0.0;0.0;0.0;0.0;;1970-01-01 00:00:00.715
656.0;662.0;0.0;-1.0;-1.0;-1.0;-1.0;-1.0;100.0;0.0;0.0;0.0;0.0;0.0;0.0;0.0;0.0;0.0;0.0;0.0;0.0;0.0;0.0;350.0;92.0;6.715739999999999;350.506;92.1295;0.0;8.0;1.0;0.551072;-1.1481299999999999;-3.14824;0.572784;-1.15967;-3.1875299999999998;-0.419707;-0.103957;-0.0192616;-0.00610985;-0.412317;1.00301;0.0;0.0;0.0;0.0;0.0;0.0;0.0;0.0;0.0;0.0;675.0;304.0;1024.0;1024.0;1024.0;224.0;1024.0;1024.0;1024.0;1.0;4.0;0.0;0.0;0.0;0.0;0.0;;1970-01-01 00:00:00.726
656.0;662.0;0.0;-1.0;-1.0;-1.0;-1.0;-1.0;100.0;0.0;0.0;0.0;0.0;0.0;0.0;0.0;0.0;0.0;0.0;0.0;0.0;0.0;0.0;350.0;92.0;6.715739999999999;350.506;92.1295;0.0;8.0;1.0;0.551072;-1.1481299999999999;-3.14824;0.572784;-1.15967;-3.1875299999999998;-0.419707;-0.103957;-0.0192616;-0.00610985;-0.412317;1.00301;0.0;0.0;0.0;0.0;0.0;0.0;0.0;0.0;0.0;0.0;675.0;304.0;1024.0;1024.0;1024.0;224.0;1024.0;1024.0;1024.0;1.0;4.0;0.0;0.0;0.0;0.0;0.0;;1970-01-01 00:00:00.737
657.0;663.0;0.0;-1.0;-1.0;-1.0;-1.0;-1.0;100.0;0.0;0.0;0.0;0.0;0.0;0.0;0.0;0.0;0.0;0.0;0.0;0.0;0.0;0.0;351.0;92.0;6.5289;351.426;92.2419;0.0;9.0;1.0;0.559191;-1.18099;-3.23833;0.568706;-1.1660700000000002;-3.20277;-0.4256;-0.11971500000000002;-0.0438702;-0.179303;-1.0139799999999999;0.0507317;0.0;0.0;0.0;0.0;0.0;0.0;0.0;0.0;0.0;0.0;675.0;304.0;1024.0;1024.0;1024.0;224.0;1024.0;1024.0;1024.0;1.0;4.0;0.0;0.0;0.0;0.0;0.0;;1970-01-01 00:00:00.748
658.0;664.0;0.0;-1.0;-1.0;-1.0;-1.0;-1.0;100.0;0.0;0.0;0.0;0.0;0.0;0.0;0.0;0.0;0.0;0.0;0.0;0.0;0.0;0.0;352.0;93.0;6.596030000000001;352.37800000000004;92.635;0.0;10.0;1.0;0.545926;-1.17476;-3.2005;0.561872;-1.16868;-3.20209;-0.430575;-0.127531;-0.0419157;-0.326272;-1.34392;-0.5187;0.0;0.0;0.0;0.0;0.0;0.0;0.0;0.0;0.0;0.0;675.0;304.0;1024.0;1024.0;1024.0;224.0;1024.0;1024.0;1024.0;1.0;4.0;0.0;0.0;0.0;0.0;0.0;;1970-01-01 00:00:00.759
658.0;664.0;0.0;-1.0;-1.0;-1.0;-1.0;-1.0;100.0;0.0;0.0;0.0;0.0;0.0;0.0;0.0;0.0;0.0;0.0;0.0;0.0;0.0;0.0;352.0;93.0;6.596030000000001;352.37800000000004;92.635;0.0;10.0;1.0;0.545926;-1.17476;-3.2005;0.561872;-1.16868;-3.20209;-0.430575;-0.127531;-0.0419157;-0.326272;-1.34392;-0.5187;0.0;0.0;0.0;0.0;0.0;0.0;0.0;0.0;0.0;0.0;675.0;304.0;1024.0;1024.0;1024.0;224.0;1024.0;1024.0;1024.0;1.0;4.0;0.0;0.0;0.0;0.0;0.0;;1970-01-01 00:00:00.770
659.0;665.0;0.0;-1.0;-1.0;-1.0;-1.0;-1.0;100.0;0.0;0.0;0.0;0.0;0.0;0.0;0.0;0.0;0.0;0.0;0.0;0.0;0.0;0.0;352.0;93.0;6.54932;353.035;92.9133;0.0;11.0;1.0;0.54982;-1.1831399999999999;-3.22332;0.5582560000000001;-1.1730200000000002;-3.2084599999999996;-0.41727600000000004;-0.12303499999999999;-0.0316558;-0.38612399999999997;-1.28968;-0.502738;0.0;0.0;0.0;0.0;0.0;0.0;0.0;0.0;0.0;0.0;675.0;304.0;1024.0;1024.0;1024.0;224.0;1024.0;1024.0;1024.0;1.0;4.0;0.0;0.0;0.0;0.0;0.0;;1970-01-01 00:00:00.781
660.0;666.0;0.0;-1.0;-1.0;-1.0;-1.0;-1.0;100.0;0.0;0.0;0.0;0.0;0.0;0.0;0.0;0.0;0.0;0.0;0.0;0.0;0.0;0.0;353.0;93.0;6.54967;353.796;93.1081;0.0;12.0;1.0;0.542162;-1.18308;-3.22315;0.5534279999999999;-1.17604;-3.21287;-0.40468899999999997;-0.11865899999999999;-0.0321691;-0.398624;-1.02216;-0.278679;0.0;0.0;0.0;0.0;0.0;0.0;0.0;0.0;0.0;0.0;675.0;304.0;1024.0;1024.0;1024.0;224.0;1024.0;1024.0;1024.0;1.0;4.0;0.0;0.0;0.0;0.0;0.0;;1970-01-01 00:00:00.792
660.0;666.0;0.0;-1.0;-1.0;-1.0;-1.0;-1.0;100.0;0.0;0.0;0.0;0.0;0.0;0.0;0.0;0.0;0.0;0.0;0.0;0.0;0.0;0.0;353.0;93.0;6.54967;353.796;93.1081;0.0;12.0;1.0;0.542162;-1.18308;-3.22315;0.5534279999999999;-1.17604;-3.21287;-0.40468899999999997;-0.11865899999999999;-0.0321691;-0.398624;-1.02216;-0.278679;0.0;0.0;0.0;0.0;0.0;0.0;0.0;0.0;0.0;0.0;675.0;304.0;1024.0;1024.0;1024.0;224.0;1024.0;1024.0;1024.0;1.0;4.0;0.0;0.0;0.0;0.0;0.0;;1970-01-01 00:00:00.803
661.0;667.0;0.0;-1.0;-1.0;-1.0;-1.0;-1.0;100.0;0.0;0.0;0.0;0.0;0.0;0.0;0.0;0.0;0.0;0.0;0.0;0.0;0.0;0.0;354.0;93.0;6.87438;354.63199999999995;93.2421;0.0;13.0;1.0;0.5092869999999999;-1.1272;-3.0709;0.5401859999999999;-1.1613799999999999;-3.17028;-0.410121;-0.058271699999999996;0.116836;-0.269584;-0.522667;0.367697;0.0;0.0;0.0;0.0;0.0;0.0;0.0;0.0;0.0;0.0;675.0;304.0;1024.0;1024.0;1024.0;224.0;1024.0;1024.0;1024.0;1.0;4.0;0.0;0.0;0.0;0.0;0.0;;1970-01-01 00:00:00.814
662.0;668.0;0.0;-1.0;-1.0;-1.0;-1.0;-1.0;100.0;0.0;0.0;0.0;0.0;0.0;0.0;0.0;0.0;0.0;0.0;0.0;0.0;0.0;0.0;354.0;93.0;6.87438;355.406;93.40899999999999;1.0;0.0;1.0;0.5092869999999999;-1.1272;-3.0709;0.5401859999999999;-1.1613799999999999;-3.17028;-0.410121;-0.058271699999999996;0.116836;-0.269584;-0.522667;0.367697;0.0;0.0;0.0;0.0;0.0;0.0;0.0;0.0;0.0;0.0;675.0;304.0;1024.0;1024.0;1024.0;224.0;1024.0;1024.0;1024.0;1.0;4.0;0.0;0.0;0.0;0.0;0.0;;1970-01-01 00:00:00.825
662.0;668.0;0.0;-1.0;-1.0;-1.0;-1.0;-1.0;100.0;0.0;0.0;0.0;0.0;0.0;0.0;0.0;0.0;0.0;0.0;0.0;0.0;0.0;0.0;354.0;93.0;6.87438;355.406;93.40899999999999;1.0;0.0;1.0;0.5092869999999999;-1.1272;-3.0709;0.5401859999999999;-1.1613799999999999;-3.17028;-0.410121;-0.058271699999999996;0.116836;-0.269584;-0.522667;0.367697;0.0;0.0;0.0;0.0;0.0;0.0;0.0;0.0;0.0;0.0;675.0;304.0;1024.0;1024.0;1024.0;224.0;1024.0;1024.0;1024.0;1.0;4.0;0.0;0.0;0.0;0.0;0.0;;1970-01-01 00:00:00.836
663.0;669.0;0.0;-1.0;-1.0;-1.0;-1.0;-1.0;100.0;0.0;0.0;0.0;0.0;0.0;0.0;0.0;0.0;0.0;0.0;0.0;0.0;0.0;0.0;354.0;93.0;6.87438;356.181;93.5758;2.0;0.0;1.0;0.5092869999999999;-1.1272;-3.0709;0.5401859999999999;-1.1613799999999999;-3.17028;-0.410121;-0.058271699999999996;0.116836;-0.269584;-0.522667;0.367697;0.0;0.0;0.0;0.0;0.0;0.0;0.0;0.0;0.0;0.0;675.0;304.0;1024.0;1024.0;1024.0;224.0;1024.0;1024.0;1024.0;1.0;4.0;0.0;0.0;0.0;0.0;0.0;;1970-01-01 00:00:00.847
664.0;670.0;0.0;-1.0;-1.0;-1.0;-1.0;-1.0;100.0;0.0;0.0;0.0;0.0;0.0;0.0;0.0;0.0;0.0;0.0;0.0;0.0;0.0;0.0;355.0;95.0;6.7672;356.42900000000003;94.3766;0.0;1.0;1.0;0.50997;-1.15634;-3.11002;0.531121;-1.1598700000000002;-3.1522;-0.370832;-0.0355463;0.175905;-0.0153951;-0.10874400000000001;0.805045;0.0;0.0;0.0;0.0;0.0;0.0;0.0;0.0;0.0;0.0;675.0;304.0;1024.0;1024.0;1024.0;224.0;1024.0;1024.0;1024.0;1.0;4.0;0.0;0.0;0.0;0.0;0.0;;1970-01-01 00:00:00.858
664.0;670.0;0.0;-1.0;-1.0;-1.0;-1.0;-1.0;100.0;0.0;0.0;0.0;0.0;0.0;0.0;0.0;0.0;0.0;0.0;0.0;0.0;0.0;0.0;355.0;95.0;6.7672;356.42900000000003;94.3766;0.0;1.0;1.0;0.50997;-1.15634;-3.11002;0.531121;-1.1598700000000002;-3.1522;-0.370832;-0.0355463;0.175905;-0.0153951;-0.10874400000000001;0.805045;0.0;0.0;0.0;0.0;0.0;0.0;0.0;0.0;0.0;0.0;675.0;304.0;1024.0;1024.0;1024.0;224.0;1024.0;1024.0;1024.0;1.0;4.0;0.0;0.0;0.0;0.0;0.0;;1970-01-01 00:00:00.869
665.0;671.0;0.0;-1.0;-1.0;-1.0;-1.0;-1.0;100.0;0.0;0.0;0.0;0.0;0.0;0.0;0.0;0.0;0.0;0.0;0.0;0.0;0.0;0.0;355.0;95.0;6.78308;356.64;94.8066;0.0;2.0;1.0;0.508777;-1.15363;-3.10275;0.524418;-1.158;-3.1373599999999997;-0.355121;0.00284426;0.30141;0.20181500000000002;0.30175799999999997;1.5169700000000002;0.0;0.0;0.0;0.0;0.0;0.0;0.0;0.0;0.0;0.0;675.0;304.0;1024.0;1024.0;1024.0;224.0;1024.0;1024.0;1024.0;1.0;4.0;0.0;0.0;0.0;0.0;0.0;;1970-01-01 00:00:00.880
666.0;672.0;0.0;-1.0;-1.0;-1.0;-1.0;-1.0;100.0;0.0;0.0;0.0;0.0;0.0;0.0;0.0;0.0;0.0;0.0;0.0;0.0;0.0;0.0;355.0;96.0;6.81243;356.79699999999997;95.4262;0.0;3.0;1.0;0.5065850000000001;-1.1542700000000001;-3.08465;0.519068;-1.15688;-3.12155;-0.34125;0.0370411;0.42202399999999995;0.388575;0.673867;2.29945;0.0;0.0;0.0;0.0;0.0;0.0;0.0;0.0;0.0;0.0;675.0;304.0;1024.0;1024.0;1024.0;224.0;1024.0;1024.0;1024.0;1.0;4.0;0.0;0.0;0.0;0.0;0.0;;1970-01-01 00:00:00.891
667.0;673.0;0.0;-1.0;-1.0;-1.0;-1.0;-1.0;100.0;0.0;0.0;0.0;0.0;0.0;0.0;0.0;0.0;0.0;0.0;0.0;0.0;0.0;0.0;356.0;96.0;6.89872;357.236;95.8388;0.0;4.0;1.0;0.493007;-1.13983;-3.0460700000000003;0.51125;-1.1517600000000001;-3.09891;-0.345512;0.08587;0.581278;0.448043;1.02989;3.2151;0.0;0.0;0.0;0.0;0.0;0.0;0.0;0.0;0.0;0.0;675.0;304.0;1024.0;1024.0;1024.0;224.0;1024.0;1024.0;1024.0;1.0;4.0;0.0;0.0;0.0;0.0;0.0;;1970-01-01 00:00:00.902
667.0;673.0;0.0;-1.0;-1.0;-1.0;-1.0;-1.0;100.0;0.0;0.0;0.0;0.0;0.0;0.0;0.0;0.0;0.0;0.0;0.0;0.0;0.0;0.0;356.0;96.0;6.89872;357.236;95.8388;0.0;4.0;1.0;0.493007;-1.13983;-3.0460700000000003;0.51125;-1.1517600000000001;-3.09891;-0.345512;0.08587;0.581278;0.448043;1.02989;3.2151;0.0;0.0;0.0;0.0;0.0;0.0;0.0;0.0;0.0;0.0;675.0;304.0;1024.0;1024.0;1024.0;224.0;1024.0;1024.0;1024.0;1.0;4.0;0.0;0.0;0.0;0.0;0.0;;1970-01-01 00:00:00.913
668.0;674.0;0.0;-1.0;-1.0;-1.0;-1.0;-1.0;100.0;0.0;0.0;0.0;0.0;0.0;0.0;0.0;0.0;0.0;0.0;0.0;0.0;0.0;0.0;356.0;98.0;6.848389999999999;357.527;96.773;0.0;5.0;1.0;0.49663;-1.15936;-3.05905;0.506864;-1.15404;-3.08695;-0.34674499999999997;0.117382;0.72583;0.442341;1.32476;4.1988900000000005;0.0;0.0;0.0;0.0;0.0;0.0;0.0;0.0;0.0;0.0;675.0;304.0;1024.0;1024.0;1024.0;224.0;1024.0;1024.0;1024.0;1.0;4.0;0.0;0.0;0.0;0.0;0.0;;1970-01-01 00:00:00.924
669.0;675.0;0.0;-1.0;-1.0;-1.0;-1.0;-1.0;100.0;0.0;0.0;0.0;0.0;0.0;0.0;0.0;0.0;0.0;0.0;0.0;0.0;0.0;0.0;357.0;99.0;6.768039999999999;358.034;97.7504;0.0;6.0;1.0;0.495144;-1.17877;-3.0906;0.5033479999999999;-1.16146;-3.0880400000000003;-0.318358;0.0702034;0.6817439999999999;0.540187;1.17957;4.21095;0.0;0.0;0.0;0.0;0.0;0.0;0.0;0.0;0.0;0.0;675.0;304.0;1024.0;1024.0;1024.0;224.0;1024.0;1024.0;1024.0;1.0;4.0;0.0;0.0;0.0;0.0;0.0;;1970-01-01 00:00:00.935
669.0;675.0;0.0;-1.0;-1.0;-1.0;-1.0;-1.0;100.0;0.0;0.0;0.0;0.0;0.0;0.0;0.0;0.0;0.0;0.0;0.0;0.0;0.0;0.0;357.0;99.0;6.768039999999999;358.034;97.7504;0.0;6.0;1.0;0.495144;-1.17877;-3.0906;0.5033479999999999;-1.16146;-3.0880400000000003;-0.318358;0.0702034;0.6817439999999999;0.540187;1.17957;4.21095;0.0;0.0;0.0;0.0;0.0;0.0;0.0;0.0;0.0;0.0;675.0;304.0;1024.0;1024.0;1024.0;224.0;1024.0;1024.0;1024.0;1.0;4.0;0.0;0.0;0.0;0.0;0.0;;1970-01-01 00:00:00.946
670.0;676.0;0.0;-1.0;-1.0;-1.0;-1.0;-1.0;100.0;0.0;0.0;0.0;0.0;0.0;0.0;0.0;0.0;0.0;0.0;0.0;0.0;0.0;0.0;358.0;100.0;6.841060000000001;358.69199999999995;98.7617;0.0;7.0;1.0;0.48255699999999996;-1.17177;-3.05291;0.49711000000000005;-1.16455;-3.0775099999999997;-0.326808;0.0234276;0.707284;0.499885;0.943208;4.6481900000000005;0.0;0.0;0.0;0.0;0.0;0.0;0.0;0.0;0.0;0.0;675.0;304.0;1024.0;1024.0;1024.0;224.0;1024.0;1024.0;1024.0;1.0;4.0;0.0;0.0;0.0;0.0;0.0;;1970-01-01 00:00:00.957
671.0;677.0;0.0;-1.0;-1.0;-1.0;-1.0;-1.0;100.0;0.0;0.0;0.0;0.0;0.0;0.0;0.0;0.0;0.0;0.0;0.0;0.0;0.0;0.0;358.0;100.0;6.79927;359.14;99.4788;0.0;8.0;1.0;0.485523;-1.17897;-3.0716799999999997;0.493634;-1.16888;-3.07576;-0.318994;-0.029381900000000002;0.6703520000000001;0.44417299999999993;0.43725600000000003;4.26198;0.0;0.0;0.0;0.0;0.0;0.0;0.0;0.0;0.0;0.0;675.0;304.0;1024.0;1024.0;1024.0;224.0;1024.0;1024.0;1024.0;1.0;4.0;0.0;0.0;0.0;0.0;0.0;;1970-01-01 00:00:00.968
671.0;677.0;0.0;-1.0;-1.0;-1.0;-1.0;-1.0;100.0;0.0;0.0;0.0;0.0;0.0;0.0;0.0;0.0;0.0;0.0;0.0;0.0;0.0;0.0;358.0;100.0;6.79927;359.14;99.4788;0.0;8.0;1.0;0.485523;-1.17897;-3.0716799999999997;0.493634;-1.16888;-3.07576;-0.318994;-0.029381900000000002;0.6703520000000001;0.44417299999999993;0.43725600000000003;4.26198;0.0;0.0;0.0;0.0;0.0;0.0;0.0;0.0;0.0;0.0;675.0;304.0;1024.0;1024.0;1024.0;224.0;1024.0;1024.0;1024.0;1.0;4.0;0.0;0.0;0.0;0.0;0.0;;1970-01-01 00:00:00.979
672.0;678.0;0.0;-1.0;-1.0;-1.0;-1.0;-1.0;100.0;0.0;0.0;0.0;0.0;0.0;0.0;0.0;0.0;0.0;0.0;0.0;0.0;0.0;0.0;359.0;101.0;6.9885;359.754;100.303;0.0;9.0;1.0;0.46522700000000006;-1.1525100000000001;-2.98389;0.485112;-1.1639700000000002;-3.0482;-0.326971;-0.045933800000000004;0.6950850000000001;0.32351599999999997;-0.0689386;3.6474300000000004;0.0;0.0;0.0;0.0;0.0;0.0;0.0;0.0;0.0;0.0;675.0;304.0;1024.0;1024.0;1024.0;224.0;1024.0;1024.0;1024.0;1.0;4.0;0.0;0.0;0.0;0.0;0.0;;1970-01-01 00:00:00.990
673.0;679.0;0.0;-1.0;-1.0;-1.0;-1.0;-1.0;100.0;0.0;0.0;0.0;0.0;0.0;0.0;0.0;0.0;0.0;0.0;0.0;0.0;0.0;0.0;360.0;102.0;6.9816899999999995;360.49;101.204;0.0;10.0;1.0;0.45852600000000004;-1.15911;-2.98219;0.47713599999999995;-1.16251;-3.0284;-0.332385;-0.0704656;0.698569;0.24651900000000002;-0.665561;2.65676;0.0;0.0;0.0;0.0;0.0;0.0;0.0;0.0;0.0;0.0;675.0;304.0;1024.0;1024.0;1024.0;224.0;1024.0;1024.0;1024.0;1.0;4.0;0.0;0.0;0.0;0.0;0.0;;1970-01-01 00:00:01.001
673.0;679.0;0.0;-1.0;-1.0;-1.0;-1.0;-1.0;100.0;0.0;0.0;0.0;0.0;0.0;0.0;0.0;0.0;0.0;0.0;0.0;0.0;0.0;0.0;360.0;102.0;6.9816899999999995;360.49;101.204;0.0;10.0;1.0;0.45852600000000004;-1.15911;-2.98219;0.47713599999999995;-1.16251;-3.0284;-0.332385;-0.0704656;0.698569;0.24651900000000002;-0.665561;2.65676;0.0;0.0;0.0;0.0;0.0;0.0;0.0;0.0;0.0;0.0;675.0;304.0;1024.0;1024.0;1024.0;224.0;1024.0;1024.0;1024.0;1.0;4.0;0.0;0.0;0.0;0.0;0.0;;1970-01-01 00:00:01.012
674.0;680.0;0.0;-1.0;-1.0;-1.0;-1.0;-1.0;100.0;0.0;0.0;0.0;0.0;0.0;0.0;0.0;0.0;0.0;0.0;0.0;0.0;0.0;0.0;360.0;102.0;6.889139999999999;360.994;101.84100000000001;0.0;11.0;1.0;0.464686;-1.17468;-3.0222599999999997;0.473401;-1.16616;-3.02655;-0.333036;-0.09066210000000001;0.660273;0.202648;-1.22999;1.33231;0.0;0.0;0.0;0.0;0.0;0.0;0.0;0.0;0.0;0.0;675.0;304.0;1024.0;1024.0;1024.0;224.0;1024.0;1024.0;1024.0;1.0;4.0;0.0;0.0;0.0;0.0;0.0;;1970-01-01 00:00:01.023
675.0;681.0;0.0;-1.0;-1.0;-1.0;-1.0;-1.0;100.0;0.0;0.0;0.0;0.0;0.0;0.0;0.0;0.0;0.0;0.0;0.0;0.0;0.0;0.0;361.0;103.0;6.83975;361.65;102.605;0.0;12.0;1.0;0.460737;-1.18874;-3.03937;0.469602;-1.17293;-3.0304;-0.334557;-0.100217;0.626323;0.0569134;-1.4184299999999999;0.5781109999999999;0.0;0.0;0.0;0.0;0.0;0.0;0.0;0.0;0.0;0.0;675.0;304.0;1024.0;1024.0;1024.0;224.0;1024.0;1024.0;1024.0;1.0;4.0;0.0;0.0;0.0;0.0;0.0;;1970-01-01 00:00:01.034
675.0;681.0;0.0;-1.0;-1.0;-1.0;-1.0;-1.0;100.0;0.0;0.0;0.0;0.0;0.0;0.0;0.0;0.0;0.0;0.0;0.0;0.0;0.0;0.0;361.0;103.0;6.83975;361.65;102.605;0.0;12.0;1.0;0.460737;-1.18874;-3.03937;0.469602;-1.17293;-3.0304;-0.334557;-0.100217;0.626323;0.0569134;-1.4184299999999999;0.5781109999999999;0.0;0.0;0.0;0.0;0.0;0.0;0.0;0.0;0.0;0.0;675.0;304.0;1024.0;1024.0;1024.0;224.0;1024.0;1024.0;1024.0;1.0;4.0;0.0;0.0;0.0;0.0;0.0;;1970-01-01 00:00:01.045
676.0;682.0;0.0;-1.0;-1.0;-1.0;-1.0;-1.0;100.0;0.0;0.0;0.0;0.0;0.0;0.0;0.0;0.0;0.0;0.0;0.0;0.0;0.0;0.0;362.0;104.0;6.83523;362.416;103.46;0.0;13.0;1.0;0.453734;-1.1951200000000002;-3.03667;0.46484200000000003;-1.17959;-3.03228;-0.329574;-0.120174;0.5563560000000001;0.023106799999999997;-1.42441;-0.255741;0.0;0.0;0.0;0.0;0.0;0.0;0.0;0.0;0.0;0.0;675.0;304.0;1024.0;1024.0;1024.0;224.0;1024.0;1024.0;1024.0;1.0;4.0;0.0;0.0;0.0;0.0;0.0;;1970-01-01 00:00:01.056
677.0;683.0;0.0;-1.0;-1.0;-1.0;-1.0;-1.0;100.0;0.0;0.0;0.0;0.0;0.0;0.0;0.0;0.0;0.0;0.0;0.0;0.0;0.0;0.0;364.0;104.0;6.956810000000001;363.58;104.06200000000001;0.0;14.0;1.0;0.43144099999999996;-1.1742299999999999;-2.9836;0.45482100000000003;-1.17798;-3.01768;-0.352711;-0.10845899999999999;0.565706;-0.12075599999999999;-1.17038;-0.5712619999999999;0.0;0.0;0.0;0.0;0.0;0.0;0.0;0.0;0.0;0.0;675.0;304.0;1024.0;1024.0;1024.0;224.0;1024.0;1024.0;1024.0;1.0;4.0;0.0;0.0;0.0;0.0;0.0;;1970-01-01 00:00:01.067
678.0;684.0;0.0;-1.0;-1.0;-1.0;-1.0;-1.0;100.0;0.0;0.0;0.0;0.0;0.0;0.0;0.0;0.0;0.0;0.0;0.0;0.0;0.0;0.0;365.0;105.0;6.75595;364.714;104.79799999999999;0.0;15.0;1.0;0.436874;-1.2148;-3.06754;0.449437;-1.18903;-3.0326400000000002;-0.354065;-0.165128;0.40156;-0.180633;-1.17813;-1.51471;0.0;0.0;0.0;0.0;0.0;0.0;0.0;0.0;0.0;0.0;675.0;304.0;1024.0;1024.0;1024.0;224.0;1024.0;1024.0;1024.0;1.0;4.0;0.0;0.0;0.0;0.0;0.0;;1970-01-01 00:00:01.078
678.0;684.0;0.0;-1.0;-1.0;-1.0;-1.0;-1.0;100.0;0.0;0.0;0.0;0.0;0.0;0.0;0.0;0.0;0.0;0.0;0.0;0.0;0.0;0.0;365.0;105.0;6.75595;364.714;104.79799999999999;0.0;15.0;1.0;0.436874;-1.2148;-3.06754;0.449437;-1.18903;-3.0326400000000002;-0.354065;-0.165128;0.40156;-0.180633;-1.17813;-1.51471;0.0;0.0;0.0;0.0;0.0;0.0;0.0;0.0;0.0;0.0;675.0;304.0;1024.0;1024.0;1024.0;224.0;1024.0;1024.0;1024.0;1.0;4.0;0.0;0.0;0.0;0.0;0.0;;1970-01-01 00:00:01.089
679.0;685.0;0.0;-1.0;-1.0;-1.0;-1.0;-1.0;100.0;0.0;0.0;0.0;0.0;0.0;0.0;0.0;0.0;0.0;0.0;0.0;0.0;0.0;0.0;365.0;105.0;6.96289;365.506;105.31299999999999;0.0;16.0;1.0;0.42389;-1.17869;-2.97637;0.44177299999999997;-1.18593;-3.0157599999999998;-0.353633;-0.192573;0.291405;-0.193215;-1.19441;-2.5344900000000004;0.0;0.0;0.0;0.0;0.0;0.0;0.0;0.0;0.0;0.0;675.0;304.0;1024.0;1024.0;1024.0;224.0;1024.0;1024.0;1024.0;1.0;4.0;0.0;0.0;0.0;0.0;0.0;;1970-01-01 00:00:01.100
680.0;686.0;0.0;-1.0;-1.0;-1.0;-1.0;-1.0;100.0;0.0;0.0;0.0;0.0;0.0;0.0;0.0;0.0;0.0;0.0;0.0;0.0;0.0;0.0;366.667;105.333;7.06349;366.58;105.772;0.0;17.0;1.0;0.406065;-1.16371;-2.93246;0.43106099999999997;-1.17926;-2.99077;-0.381231;-0.16785;0.317729;-0.308359;-1.02483;-2.88836;0.0;0.0;0.0;0.0;0.0;0.0;0.0;0.0;0.0;0.0;675.0;304.0;1024.0;1024.0;1024.0;224.0;1024.0;1024.0;1024.0;1.0;4.0;0.0;0.0;0.0;0.0;0.0;;1970-01-01 00:00:01.111
680.0;686.0;0.0;-1.0;-1.0;-1.0;-1.0;-1.0;100.0;0.0;0.0;0.0;0.0;0.0;0.0;0.0;0.0;0.0;0.0;0.0;0.0;0.0;0.0;366.667;105.333;7.06349;366.58;105.772;0.0;17.0;1.0;0.406065;-1.16371;-2.93246;0.43106099999999997;-1.17926;-2.99077;-0.381231;-0.16785;0.317729;-0.308359;-1.02483;-2.88836;0.0;0.0;0.0;0.0;0.0;0.0;0.0;0.0;0.0;0.0;675.0;304.0;1024.0;1024.0;1024.0;224.0;1024.0;1024.0;1024.0;1.0;4.0;0.0;0.0;0.0;0.0;0.0;;1970-01-01 00:00:01.122
681.0;687.0;0.0;-1.0;-1.0;-1.0;-1.0;-1.0;100.0;0.0;0.0;0.0;0.0;0.0;0.0;0.0;0.0;0.0;0.0;0.0;0.0;0.0;0.0;367.0;106.0;6.77619;367.435;106.29799999999999;0.0;18.0;1.0;0.420825;-1.2168;-3.05363;0.42799;-1.19052;-3.00962;-0.394883;-0.17093599999999998;0.27358499999999997;-0.425875;-0.8972530000000001;-3.1413900000000003;0.0;0.0;0.0;0.0;0.0;0.0;0.0;0.0;0.0;0.0;675.0;304.0;1024.0;1024.0;1024.0;224.0;1024.0;1024.0;1024.0;1.0;4.0;0.0;0.0;0.0;0.0;0.0;;1970-01-01 00:00:01.133
682.0;688.0;0.0;-1.0;-1.0;-1.0;-1.0;-1.0;100.0;0.0;0.0;0.0;0.0;0.0;0.0;0.0;0.0;0.0;0.0;0.0;0.0;0.0;0.0;367.0;106.0;6.77619;368.161;106.75399999999999;1.0;0.0;1.0;0.420825;-1.2168;-3.05363;0.42799;-1.19052;-3.00962;-0.394883;-0.17093599999999998;0.27358499999999997;-0.425875;-0.8972530000000001;-3.1413900000000003;0.0;0.0;0.0;0.0;0.0;0.0;0.0;0.0;0.0;0.0;675.0;304.0;1024.0;1024.0;1024.0;224.0;1024.0;1024.0;1024.0;1.0;4.0;0.0;0.0;0.0;0.0;0.0;;1970-01-01 00:00:01.144
682.0;688.0;0.0;-1.0;-1.0;-1.0;-1.0;-1.0;100.0;0.0;0.0;0.0;0.0;0.0;0.0;0.0;0.0;0.0;0.0;0.0;0.0;0.0;0.0;367.0;106.0;6.77619;368.161;106.75399999999999;1.0;0.0;1.0;0.420825;-1.2168;-3.05363;0.42799;-1.19052;-3.00962;-0.394883;-0.17093599999999998;0.27358499999999997;-0.425875;-0.8972530000000001;-3.1413900000000003;0.0;0.0;0.0;0.0;0.0;0.0;0.0;0.0;0.0;0.0;675.0;304.0;1024.0;1024.0;1024.0;224.0;1024.0;1024.0;1024.0;1.0;4.0;0.0;0.0;0.0;0.0;0.0;;1970-01-01 00:00:01.155
683.0;689.0;0.0;-1.0;-1.0;-1.0;-1.0;-1.0;100.0;0.0;0.0;0.0;0.0;0.0;0.0;0.0;0.0;0.0;0.0;0.0;0.0;0.0;0.0;370.0;106.0;6.746230000000001;369.597;106.919;0.0;1.0;1.0;0.400478;-1.22221;-3.06719;0.41973599999999994;-1.20003;-3.0268900000000003;-0.391316;-0.172519;0.182595;-0.46685600000000005;-0.7175159999999999;-3.16414;0.0;0.0;0.0;0.0;0.0;0.0;0.0;0.0;0.0;0.0;675.0;304.0;1024.0;1024.0;1024.0;224.0;1024.0;1024.0;1024.0;1.0;4.0;0.0;0.0;0.0;0.0;0.0;;1970-01-01 00:00:01.166
684.0;690.0;0.0;-1.0;-1.0;-1.0;-1.0;-1.0;100.0;0.0;0.0;0.0;0.0;0.0;0.0;0.0;0.0;0.0;0.0;0.0;0.0;0.0;0.0;370.0;107.0;6.85787;370.496;107.39200000000001;0.0;2.0;1.0;0.393958;-1.2078799999999998;-3.0125599999999997;0.41200299999999995;-1.20238;-3.02259;-0.381348;-0.18703399999999998;0.092731;-0.378131;-0.6994520000000001;-3.5173699999999997;0.0;0.0;0.0;0.0;0.0;0.0;0.0;0.0;0.0;0.0;675.0;304.0;1024.0;1024.0;1024.0;224.0;1024.0;1024.0;1024.0;1.0;4.0;0.0;0.0;0.0;0.0;0.0;;1970-01-01 00:00:01.177
684.0;690.0;0.0;-1.0;-1.0;-1.0;-1.0;-1.0;100.0;0.0;0.0;0.0;0.0;0.0;0.0;0.0;0.0;0.0;0.0;0.0;0.0;0.0;0.0;370.0;107.0;6.85787;370.496;107.39200000000001;0.0;2.0;1.0;0.393958;-1.2078799999999998;-3.0125599999999997;0.41200299999999995;-1.20238;-3.02259;-0.381348;-0.18703399999999998;0.092731;-0.378131;-0.6994520000000001;-3.5173699999999997;0.0;0.0;0.0;0.0;0.0;0.0;0.0;0.0;0.0;0.0;675.0;304.0;1024.0;1024.0;1024.0;224.0;1024.0;1024.0;1024.0;1.0;4.0;0.0;0.0;0.0;0.0;0.0;;1970-01-01 00:00:01.188
685.0;691.0;0.0;-1.0;-1.0;-1.0;-1.0;-1.0;100.0;0.0;0.0;0.0;0.0;0.0;0.0;0.0;0.0;0.0;0.0;0.0;0.0;0.0;0.0;371.333;107.333;6.97628;371.541;107.81700000000001;0.0;3.0;1.0;0.377723;-1.1892;-2.95989;0.401719;-1.1984299999999999;-3.00378;-0.392138;-0.14440899999999998;0.154399;-0.357196;-0.34875500000000004;-2.9564;0.0;0.0;0.0;0.0;0.0;0.0;0.0;0.0;0.0;0.0;675.0;304.0;1024.0;1024.0;1024.0;224.0;1024.0;1024.0;1024.0;1.0;4.0;0.0;0.0;0.0;0.0;0.0;;1970-01-01 00:00:01.199
686.0;692.0;0.0;-1.0;-1.0;-1.0;-1.0;-1.0;100.0;0.0;0.0;0.0;0.0;0.0;0.0;0.0;0.0;0.0;0.0;0.0;0.0;0.0;0.0;372.0;108.0;6.87365;372.467;108.321;0.0;4.0;1.0;0.37851799999999997;-1.21066;-3.00096;0.394759;-1.2021;-3.00293;-0.396203;-0.142008;0.136524;-0.360025;-0.036180300000000006;-2.30396;0.0;0.0;0.0;0.0;0.0;0.0;0.0;0.0;0.0;0.0;675.0;304.0;1024.0;1024.0;1024.0;224.0;1024.0;1024.0;1024.0;1.0;4.0;0.0;0.0;0.0;0.0;0.0;;1970-01-01 00:00:01.210
686.0;692.0;0.0;-1.0;-1.0;-1.0;-1.0;-1.0;100.0;0.0;0.0;0.0;0.0;0.0;0.0;0.0;0.0;0.0;0.0;0.0;0.0;0.0;0.0;372.0;108.0;6.87365;372.467;108.321;0.0;4.0;1.0;0.37851799999999997;-1.21066;-3.00096;0.394759;-1.2021;-3.00293;-0.396203;-0.142008;0.136524;-0.360025;-0.036180300000000006;-2.30396;0.0;0.0;0.0;0.0;0.0;0.0;0.0;0.0;0.0;0.0;675.0;304.0;1024.0;1024.0;1024.0;224.0;1024.0;1024.0;1024.0;1.0;4.0;0.0;0.0;0.0;0.0;0.0;;1970-01-01 00:00:01.221
687.0;693.0;0.0;-1.0;-1.0;-1.0;-1.0;-1.0;100.0;0.0;0.0;0.0;0.0;0.0;0.0;0.0;0.0;0.0;0.0;0.0;0.0;0.0;0.0;374.0;110.0;6.860989999999999;373.744;109.311;0.0;5.0;1.0;0.364654;-1.22403;-2.9971099999999997;0.385727;-1.20868;-3.0011900000000002;-0.392889;-0.18590399999999999;0.046247;-0.255917;-0.08350319999999999;-2.31161;0.0;0.0;0.0;0.0;0.0;0.0;0.0;0.0;0.0;0.0;675.0;304.0;1024.0;1024.0;1024.0;224.0;1024.0;1024.0;1024.0;1.0;4.0;0.0;0.0;0.0;0.0;0.0;;1970-01-01 00:00:01.232
688.0;694.0;0.0;-1.0;-1.0;-1.0;-1.0;-1.0;100.0;0.0;0.0;0.0;0.0;0.0;0.0;0.0;0.0;0.0;0.0;0.0;0.0;0.0;0.0;375.0;111.0;6.62926;374.95099999999996;110.324;0.0;6.0;1.0;0.369865;-1.2725799999999998;-3.09702;0.380968;-1.22785;-3.0299400000000003;-0.396677;-0.23930300000000002;-0.04177380000000001;-0.159693;-0.284109;-2.46637;0.0;0.0;0.0;0.0;0.0;0.0;0.0;0.0;0.0;0.0;675.0;304.0;1024.0;1024.0;1024.0;224.0;1024.0;1024.0;1024.0;1.0;4.0;0.0;0.0;0.0;0.0;0.0;;1970-01-01 00:00:01.243
689.0;695.0;0.0;-1.0;-1.0;-1.0;-1.0;-1.0;100.0;0.0;0.0;0.0;0.0;0.0;0.0;0.0;0.0;0.0;0.0;0.0;0.0;0.0;0.0;376.0;112.0;6.70085;376.10699999999997;111.354;0.0;7.0;1.0;0.358458;-1.26468;-3.05912;0.374215;-1.2389;-3.0386900000000003;-0.419757;-0.298784;-0.0721772;-0.20937199999999997;-0.674604;-2.49704;0.0;0.0;0.0;0.0;0.0;0.0;0.0;0.0;0.0;0.0;675.0;304.0;1024.0;1024.0;1024.0;224.0;1024.0;1024.0;1024.0;1.0;4.0;0.0;0.0;0.0;0.0;0.0;;1970-01-01 00:00:01.254
689.0;695.0;0.0;-1.0;-1.0;-1.0;-1.0;-1.0;100.0;0.0;0.0;0.0;0.0;0.0;0.0;0.0;0.0;0.0;0.0;0.0;0.0;0.0;0.0;376.0;112.0;6.70085;376.10699999999997;111.354;0.0;7.0;1.0;0.358458;-1.26468;-3.05912;0.374215;-1.2389;-3.0386900000000003;-0.419757;-0.298784;-0.0721772;-0.20937199999999997;-0.674604;-2.49704;0.0;0.0;0.0;0.0;0.0;0.0;0.0;0.0;0.0;0.0;675.0;304.0;1024.0;1024.0;1024.0;224.0;1024.0;1024.0;1024.0;1.0;4.0;0.0;0.0;0.0;0.0;0.0;;1970-01-01 00:00:01.265
690.0;696.0;0.0;-1.0;-1.0;-1.0;-1.0;-1.0;100.0;0.0;0.0;0.0;0.0;0.0;0.0;0.0;0.0;0.0;0.0;0.0;0.0;0.0;0.0;377.0;112.0;7.006239999999999;377.228;112.07700000000001;0.0;8.0;1.0;0.33570300000000003;-1.20956;-2.92578;0.362662;-1.2301;-3.00482;-0.448858;-0.28992399999999996;0.027654500000000002;-0.39517199999999997;-0.81557;-1.75806;0.0;0.0;0.0;0.0;0.0;0.0;0.0;0.0;0.0;0.0;675.0;304.0;1024.0;1024.0;1024.0;224.0;1024.0;1024.0;1024.0;1.0;4.0;0.0;0.0;0.0;0.0;0.0;;1970-01-01 00:00:01.276
691.0;697.0;0.0;-1.0;-1.0;-1.0;-1.0;-1.0;100.0;0.0;0.0;0.0;0.0;0.0;0.0;0.0;0.0;0.0;0.0;0.0;0.0;0.0;0.0;378.0;112.5;6.87505;378.32199999999995;112.738;0.0;9.0;1.0;0.33484200000000003;-1.23542;-2.97927;0.35431599999999996;-1.23169;-2.99716;-0.458582;-0.306766;0.043049699999999996;-0.50239;-1.13758;-1.49942;0.0;0.0;0.0;0.0;0.0;0.0;0.0;0.0;0.0;0.0;675.0;304.0;1024.0;1024.0;1024.0;224.0;1024.0;1024.0;1024.0;1.0;4.0;0.0;0.0;0.0;0.0;0.0;;1970-01-01 00:00:01.287
691.0;697.0;0.0;-1.0;-1.0;-1.0;-1.0;-1.0;100.0;0.0;0.0;0.0;0.0;0.0;0.0;0.0;0.0;0.0;0.0;0.0;0.0;0.0;0.0;378.0;112.5;6.87505;378.32199999999995;112.738;0.0;9.0;1.0;0.33484200000000003;-1.23542;-2.97927;0.35431599999999996;-1.23169;-2.99716;-0.458582;-0.306766;0.043049699999999996;-0.50239;-1.13758;-1.49942;0.0;0.0;0.0;0.0;0.0;0.0;0.0;0.0;0.0;0.0;675.0;304.0;1024.0;1024.0;1024.0;224.0;1024.0;1024.0;1024.0;1.0;4.0;0.0;0.0;0.0;0.0;0.0;;1970-01-01 00:00:01.298
692.0;698.0;0.0;-1.0;-1.0;-1.0;-1.0;-1.0;100.0;0.0;0.0;0.0;0.0;0.0;0.0;0.0;0.0;0.0;0.0;0.0;0.0;0.0;0.0;379.0;114.0;6.79292;379.397;113.67299999999999;0.0;10.0;1.0;0.331536;-1.2587899999999999;-3.00818;0.347482;-1.2398200000000001;-3.00046;-0.46391000000000004;-0.33466999999999997;0.0357004;-0.571769;-1.45179;-1.30221;0.0;0.0;0.0;0.0;0.0;0.0;0.0;0.0;0.0;0.0;675.0;304.0;1024.0;1024.0;1024.0;224.0;1024.0;1024.0;1024.0;1.0;4.0;0.0;0.0;0.0;0.0;0.0;;1970-01-01 00:00:01.309
693.0;699.0;0.0;-1.0;-1.0;-1.0;-1.0;-1.0;100.0;0.0;0.0;0.0;0.0;0.0;0.0;0.0;0.0;0.0;0.0;0.0;0.0;0.0;0.0;380.0;114.0;6.82313;380.457;114.32700000000001;0.0;11.0;1.0;0.322747;-1.25321;-2.9948599999999996;0.340061;-1.24384;-2.99878;-0.46067600000000003;-0.341184;0.031024200000000002;-0.613711;-1.49106;-0.8421040000000001;0.0;0.0;0.0;0.0;0.0;0.0;0.0;0.0;0.0;0.0;675.0;304.0;1024.0;1024.0;1024.0;224.0;1024.0;1024.0;1024.0;1.0;4.0;0.0;0.0;0.0;0.0;0.0;;1970-01-01 00:00:01.320
693.0;699.0;0.0;-1.0;-1.0;-1.0;-1.0;-1.0;100.0;0.0;0.0;0.0;0.0;0.0;0.0;0.0;0.0;0.0;0.0;0.0;0.0;0.0;0.0;380.0;114.0;6.82313;380.457;114.32700000000001;0.0;11.0;1.0;0.322747;-1.25321;-2.9948599999999996;0.340061;-1.24384;-2.99878;-0.46067600000000003;-0.341184;0.031024200000000002;-0.613711;-1.49106;-0.8421040000000001;0.0;0.0;0.0;0.0;0.0;0.0;0.0;0.0;0.0;0.0;675.0;304.0;1024.0;1024.0;1024.0;224.0;1024.0;1024.0;1024.0;1.0;4.0;0.0;0.0;0.0;0.0;0.0;;1970-01-01 00:00:01.331
694.0;700.0;0.0;-1.0;-1.0;-1.0;-1.0;-1.0;100.0;0.0;0.0;0.0;0.0;0.0;0.0;0.0;0.0;0.0;0.0;0.0;0.0;0.0;0.0;380.667;114.667;6.86459;381.401;114.98899999999999;0.0;12.0;1.0;0.315946;-1.24935;-2.97365;0.332827;-1.24549;-2.9912400000000003;-0.46862;-0.275158;0.173112;-0.655471;-1.03779;0.352707;0.0;0.0;0.0;0.0;0.0;0.0;0.0;0.0;0.0;0.0;675.0;304.0;1024.0;1024.0;1024.0;224.0;1024.0;1024.0;1024.0;1.0;4.0;0.0;0.0;0.0;0.0;0.0;;1970-01-01 00:00:01.342
695.0;701.0;0.0;-1.0;-1.0;-1.0;-1.0;-1.0;100.0;0.0;0.0;0.0;0.0;0.0;0.0;0.0;0.0;0.0;0.0;0.0;0.0;0.0;0.0;381.333;115.333;6.6561699999999995;382.25800000000004;115.65799999999999;0.0;13.0;1.0;0.320835;-1.2923;-3.06353;0.329229;-1.2595399999999999;-3.01293;-0.46078800000000003;-0.24748699999999998;0.206738;-0.557106;-0.417861;1.32524;0.0;0.0;0.0;0.0;0.0;0.0;0.0;0.0;0.0;0.0;675.0;304.0;1024.0;1024.0;1024.0;224.0;1024.0;1024.0;1024.0;1.0;4.0;0.0;0.0;0.0;0.0;0.0;;1970-01-01 00:00:01.353
695.0;701.0;0.0;-1.0;-1.0;-1.0;-1.0;-1.0;100.0;0.0;0.0;0.0;0.0;0.0;0.0;0.0;0.0;0.0;0.0;0.0;0.0;0.0;0.0;381.333;115.333;6.6561699999999995;382.25800000000004;115.65799999999999;0.0;13.0;1.0;0.320835;-1.2923;-3.06353;0.329229;-1.2595399999999999;-3.01293;-0.46078800000000003;-0.24748699999999998;0.206738;-0.557106;-0.417861;1.32524;0.0;0.0;0.0;0.0;0.0;0.0;0.0;0.0;0.0;0.0;675.0;304.0;1024.0;1024.0;1024.0;224.0;1024.0;1024.0;1024.0;1.0;4.0;0.0;0.0;0.0;0.0;0.0;;1970-01-01 00:00:01.364
696.0;702.0;0.0;-1.0;-1.0;-1.0;-1.0;-1.0;100.0;0.0;0.0;0.0;0.0;0.0;0.0;0.0;0.0;0.0;0.0;0.0;0.0;0.0;0.0;383.0;116.0;6.6160000000000005;383.37300000000005;116.331;0.0;14.0;1.0;0.31019800000000003;-1.304;-3.0788900000000003;0.32352;-1.2728700000000002;-3.03272;-0.432753;-0.319284;0.0126592;-0.269959;-0.36794099999999996;0.735275;0.0;0.0;0.0;0.0;0.0;0.0;0.0;0.0;0.0;0.0;675.0;304.0;1024.0;1024.0;1024.0;224.0;1024.0;1024.0;1024.0;1.0;4.0;0.0;0.0;0.0;0.0;0.0;;1970-01-01 00:00:01.375
697.0;703.0;0.0;-1.0;-1.0;-1.0;-1.0;-1.0;100.0;0.0;0.0;0.0;0.0;0.0;0.0;0.0;0.0;0.0;0.0;0.0;0.0;0.0;0.0;383.0;117.0;6.802230000000001;384.14300000000003;117.113;0.0;15.0;1.0;0.301706;-1.27391;-2.9898599999999997;0.31697600000000004;-1.27319;-3.01986;-0.40873899999999996;-0.357232;-0.0830605;0.0370316;-0.42225799999999997;-0.0623529;0.0;0.0;0.0;0.0;0.0;0.0;0.0;0.0;0.0;0.0;675.0;304.0;1024.0;1024.0;1024.0;224.0;1024.0;1024.0;1024.0;1.0;4.0;0.0;0.0;0.0;0.0;0.0;;1970-01-01 00:00:01.386
697.0;703.0;0.0;-1.0;-1.0;-1.0;-1.0;-1.0;100.0;0.0;0.0;0.0;0.0;0.0;0.0;0.0;0.0;0.0;0.0;0.0;0.0;0.0;0.0;383.0;117.0;6.802230000000001;384.14300000000003;117.113;0.0;15.0;1.0;0.301706;-1.27391;-2.9898599999999997;0.31697600000000004;-1.27319;-3.01986;-0.40873899999999996;-0.357232;-0.0830605;0.0370316;-0.42225799999999997;-0.0623529;0.0;0.0;0.0;0.0;0.0;0.0;0.0;0.0;0.0;0.0;675.0;304.0;1024.0;1024.0;1024.0;224.0;1024.0;1024.0;1024.0;1.0;4.0;0.0;0.0;0.0;0.0;0.0;;1970-01-01 00:00:01.397
698.0;704.0;0.0;-1.0;-1.0;-1.0;-1.0;-1.0;100.0;0.0;0.0;0.0;0.0;0.0;0.0;0.0;0.0;0.0;0.0;0.0;0.0;0.0;0.0;383.0;118.0;6.66515;384.662;117.973;0.0;16.0;1.0;0.307911;-1.30584;-3.04652;0.314256;-1.28298;-3.02786;-0.377902;-0.38666300000000003;-0.159224;0.36562100000000003;-0.460946;-0.815684;0.0;0.0;0.0;0.0;0.0;0.0;0.0;0.0;0.0;0.0;675.0;304.0;1024.0;1024.0;1024.0;224.0;1024.0;1024.0;1024.0;1.0;4.0;0.0;0.0;0.0;0.0;0.0;;1970-01-01 00:00:01.408
699.0;705.0;0.0;-1.0;-1.0;-1.0;-1.0;-1.0;100.0;0.0;0.0;0.0;0.0;0.0;0.0;0.0;0.0;0.0;0.0;0.0;0.0;0.0;0.0;384.0;118.0;6.73119;385.31800000000004;118.572;0.0;17.0;1.0;0.297468;-1.29303;-3.01663;0.30922;-1.286;-3.02449;-0.349882;-0.400316;-0.198187;0.661737;-0.512663;-1.40458;0.0;0.0;0.0;0.0;0.0;0.0;0.0;0.0;0.0;0.0;675.0;304.0;1024.0;1024.0;1024.0;224.0;1024.0;1024.0;1024.0;1.0;4.0;0.0;0.0;0.0;0.0;0.0;;1970-01-01 00:00:01.419
700.0;706.0;0.0;-1.0;-1.0;-1.0;-1.0;-1.0;100.0;0.0;0.0;0.0;0.0;0.0;0.0;0.0;0.0;0.0;0.0;0.0;0.0;0.0;0.0;385.0;120.0;7.02751;386.075;119.618;0.0;18.0;1.0;0.277816;-1.24938;-2.88027;0.299799;-1.27501;-2.98123;-0.34179899999999996;-0.358041;-0.0789245;0.9034;-0.638521;-1.84905;0.0;0.0;0.0;0.0;0.0;0.0;0.0;0.0;0.0;0.0;675.0;304.0;1024.0;1024.0;1024.0;224.0;1024.0;1024.0;1024.0;1.0;4.0;0.0;0.0;0.0;0.0;0.0;;1970-01-01 00:00:01.430
700.0;706.0;0.0;-1.0;-1.0;-1.0;-1.0;-1.0;100.0;0.0;0.0;0.0;0.0;0.0;0.0;0.0;0.0;0.0;0.0;0.0;0.0;0.0;0.0;385.0;120.0;7.02751;386.075;119.618;0.0;18.0;1.0;0.277816;-1.24938;-2.88027;0.299799;-1.27501;-2.98123;-0.34179899999999996;-0.358041;-0.0789245;0.9034;-0.638521;-1.84905;0.0;0.0;0.0;0.0;0.0;0.0;0.0;0.0;0.0;0.0;675.0;304.0;1024.0;1024.0;1024.0;224.0;1024.0;1024.0;1024.0;1.0;4.0;0.0;0.0;0.0;0.0;0.0;;1970-01-01 00:00:01.441
701.0;707.0;0.0;-1.0;-1.0;-1.0;-1.0;-1.0;100.0;0.0;0.0;0.0;0.0;0.0;0.0;0.0;0.0;0.0;0.0;0.0;0.0;0.0;0.0;385.0;121.0;6.76412;386.586;120.669;0.0;19.0;1.0;0.288634;-1.30367;-2.98766;0.29644899999999996;-1.2836100000000001;-2.98316;-0.335958;-0.31094299999999997;0.0715117;1.04044;-0.636472;-1.6493400000000003;0.0;0.0;0.0;0.0;0.0;0.0;0.0;0.0;0.0;0.0;675.0;304.0;1024.0;1024.0;1024.0;224.0;1024.0;1024.0;1024.0;1.0;4.0;0.0;0.0;0.0;0.0;0.0;;1970-01-01 00:00:01.452
702.0;708.0;0.0;-1.0;-1.0;-1.0;-1.0;-1.0;100.0;0.0;0.0;0.0;0.0;0.0;0.0;0.0;0.0;0.0;0.0;0.0;0.0;0.0;0.0;385.333;122.667;6.70945;387.025;121.936;0.0;20.0;1.0;0.288504;-1.32379;-3.00401;0.294066;-1.29566;-2.98941;-0.319175;-0.277552;0.215806;1.07774;-0.215261;-0.178506;0.0;0.0;0.0;0.0;0.0;0.0;0.0;0.0;0.0;0.0;675.0;304.0;1024.0;1024.0;1024.0;224.0;1024.0;1024.0;1024.0;1.0;4.0;0.0;0.0;0.0;0.0;0.0;;1970-01-01 00:00:01.463
702.0;708.0;0.0;-1.0;-1.0;-1.0;-1.0;-1.0;100.0;0.0;0.0;0.0;0.0;0.0;0.0;0.0;0.0;0.0;0.0;0.0;0.0;0.0;0.0;385.333;122.667;6.70945;387.025;121.936;0.0;20.0;1.0;0.288504;-1.32379;-3.00401;0.294066;-1.29566;-2.98941;-0.319175;-0.277552;0.215806;1.07774;-0.215261;-0.178506;0.0;0.0;0.0;0.0;0.0;0.0;0.0;0.0;0.0;0.0;675.0;304.0;1024.0;1024.0;1024.0;224.0;1024.0;1024.0;1024.0;1.0;4.0;0.0;0.0;0.0;0.0;0.0;;1970-01-01 00:00:01.474
703.0;709.0;0.0;-1.0;-1.0;-1.0;-1.0;-1.0;100.0;0.0;0.0;0.0;0.0;0.0;0.0;0.0;0.0;0.0;0.0;0.0;0.0;0.0;0.0;386.0;124.0;6.71937;387.52;123.25200000000001;0.0;21.0;1.0;0.283122;-1.32941;-2.9931900000000002;0.290783;-1.30579;-2.99054;-0.296086;-0.296698;0.246533;1.09643;0.11253599999999998;1.20886;0.0;0.0;0.0;0.0;0.0;0.0;0.0;0.0;0.0;0.0;675.0;304.0;1024.0;1024.0;1024.0;224.0;1024.0;1024.0;1024.0;1.0;4.0;0.0;0.0;0.0;0.0;0.0;;1970-01-01 00:00:01.485
704.0;710.0;0.0;-1.0;-1.0;-1.0;-1.0;-1.0;100.0;0.0;0.0;0.0;0.0;0.0;0.0;0.0;0.0;0.0;0.0;0.0;0.0;0.0;0.0;387.0;125.0;6.6947;388.161;124.49600000000001;0.0;22.0;1.0;0.27670300000000003;-1.3400100000000001;-2.9994099999999997;0.286559;-1.31605;-2.9932;-0.28823899999999997;-0.310067;0.28629099999999996;1.01586;0.373345;2.50412;0.0;0.0;0.0;0.0;0.0;0.0;0.0;0.0;0.0;0.0;675.0;304.0;1024.0;1024.0;1024.0;224.0;1024.0;1024.0;1024.0;1.0;4.0;0.0;0.0;0.0;0.0;0.0;;1970-01-01 00:00:01.496
704.0;710.0;0.0;-1.0;-1.0;-1.0;-1.0;-1.0;100.0;0.0;0.0;0.0;0.0;0.0;0.0;0.0;0.0;0.0;0.0;0.0;0.0;0.0;0.0;387.0;125.0;6.6947;388.161;124.49600000000001;0.0;22.0;1.0;0.27670300000000003;-1.3400100000000001;-2.9994099999999997;0.286559;-1.31605;-2.9932;-0.28823899999999997;-0.310067;0.28629099999999996;1.01586;0.373345;2.50412;0.0;0.0;0.0;0.0;0.0;0.0;0.0;0.0;0.0;0.0;675.0;304.0;1024.0;1024.0;1024.0;224.0;1024.0;1024.0;1024.0;1.0;4.0;0.0;0.0;0.0;0.0;0.0;;1970-01-01 00:00:01.507
705.0;711.0;0.0;-1.0;-1.0;-1.0;-1.0;-1.0;100.0;0.0;0.0;0.0;0.0;0.0;0.0;0.0;0.0;0.0;0.0;0.0;0.0;0.0;0.0;387.0;126.0;6.66505;388.591;125.686;0.0;23.0;1.0;0.277934;-1.3517;-3.00792;0.28397100000000003;-1.32675;-2.99762;-0.273753;-0.34875500000000004;0.279075;0.913475;0.42987299999999995;3.40803;0.0;0.0;0.0;0.0;0.0;0.0;0.0;0.0;0.0;0.0;675.0;304.0;1024.0;1024.0;1024.0;224.0;1024.0;1024.0;1024.0;1.0;4.0;0.0;0.0;0.0;0.0;0.0;;1970-01-01 00:00:01.518
706.0;712.0;0.0;-1.0;-1.0;-1.0;-1.0;-1.0;100.0;0.0;0.0;0.0;0.0;0.0;0.0;0.0;0.0;0.0;0.0;0.0;0.0;0.0;0.0;387.0;127.0;6.840610000000001;388.86699999999996;126.837;0.0;24.0;1.0;0.270801;-1.3226;-2.9260099999999998;0.28002;-1.3255;-2.97614;-0.243222;-0.410854;0.18776700000000002;0.941672;0.0470552;3.10963;0.0;0.0;0.0;0.0;0.0;0.0;0.0;0.0;0.0;0.0;675.0;304.0;1024.0;1024.0;1024.0;224.0;1024.0;1024.0;1024.0;1.0;4.0;0.0;0.0;0.0;0.0;0.0;;1970-01-01 00:00:01.529
706.0;712.0;0.0;-1.0;-1.0;-1.0;-1.0;-1.0;100.0;0.0;0.0;0.0;0.0;0.0;0.0;0.0;0.0;0.0;0.0;0.0;0.0;0.0;0.0;387.0;127.0;6.840610000000001;388.86699999999996;126.837;0.0;24.0;1.0;0.270801;-1.3226;-2.9260099999999998;0.28002;-1.3255;-2.97614;-0.243222;-0.410854;0.18776700000000002;0.941672;0.0470552;3.10963;0.0;0.0;0.0;0.0;0.0;0.0;0.0;0.0;0.0;0.0;675.0;304.0;1024.0;1024.0;1024.0;224.0;1024.0;1024.0;1024.0;1.0;4.0;0.0;0.0;0.0;0.0;0.0;;1970-01-01 00:00:01.540
707.0;713.0;0.0;-1.0;-1.0;-1.0;-1.0;-1.0;100.0;0.0;0.0;0.0;0.0;0.0;0.0;0.0;0.0;0.0;0.0;0.0;0.0;0.0;0.0;387.0;128.0;7.04435;389.033;127.95700000000001;0.0;25.0;1.0;0.262969;-1.28977;-2.83682;0.274905;-1.3147799999999998;-2.93434;-0.23195500000000002;-0.370977;0.30757199999999996;0.980258;-0.211463;2.80829;0.0;0.0;0.0;0.0;0.0;0.0;0.0;0.0;0.0;0.0;675.0;304.0;1024.0;1024.0;1024.0;224.0;1024.0;1024.0;1024.0;1.0;4.0;0.0;0.0;0.0;0.0;0.0;;1970-01-01 00:00:01.551
708.0;714.0;0.0;-1.0;-1.0;-1.0;-1.0;-1.0;100.0;0.0;0.0;0.0;0.0;0.0;0.0;0.0;0.0;0.0;0.0;0.0;0.0;0.0;0.0;388.0;128.0;7.009510000000001;389.439;128.737;0.0;26.0;1.0;0.25714899999999996;-1.2961799999999999;-2.85091;0.26957800000000004;-1.3092;-2.90931;-0.236946;-0.276642;0.504361;0.916472;-0.12324500000000001;2.83708;0.0;0.0;0.0;0.0;0.0;0.0;0.0;0.0;0.0;0.0;675.0;304.0;1024.0;1024.0;1024.0;224.0;1024.0;1024.0;1024.0;1.0;4.0;0.0;0.0;0.0;0.0;0.0;;1970-01-01 00:00:01.562
708.0;714.0;0.0;-1.0;-1.0;-1.0;-1.0;-1.0;100.0;0.0;0.0;0.0;0.0;0.0;0.0;0.0;0.0;0.0;0.0;0.0;0.0;0.0;0.0;388.0;128.0;7.009510000000001;389.439;128.737;0.0;26.0;1.0;0.25714899999999996;-1.2961799999999999;-2.85091;0.26957800000000004;-1.3092;-2.90931;-0.236946;-0.276642;0.504361;0.916472;-0.12324500000000001;2.83708;0.0;0.0;0.0;0.0;0.0;0.0;0.0;0.0;0.0;0.0;675.0;304.0;1024.0;1024.0;1024.0;224.0;1024.0;1024.0;1024.0;1.0;4.0;0.0;0.0;0.0;0.0;0.0;;1970-01-01 00:00:01.573
709.0;715.0;0.0;-1.0;-1.0;-1.0;-1.0;-1.0;100.0;0.0;0.0;0.0;0.0;0.0;0.0;0.0;0.0;0.0;0.0;0.0;0.0;0.0;0.0;388.0;128.0;7.04168;389.70099999999996;129.268;0.0;27.0;1.0;0.255974;-1.29026;-2.8378900000000002;0.265497;-1.30352;-2.88789;-0.243126;-0.156926;0.712501;0.7613340000000001;0.484116;3.56271;0.0;0.0;0.0;0.0;0.0;0.0;0.0;0.0;0.0;0.0;675.0;304.0;1024.0;1024.0;1024.0;224.0;1024.0;1024.0;1024.0;1.0;4.0;0.0;0.0;0.0;0.0;0.0;;1970-01-01 00:00:01.584
710.0;716.0;0.0;-1.0;-1.0;-1.0;-1.0;-1.0;100.0;0.0;0.0;0.0;0.0;0.0;0.0;0.0;0.0;0.0;0.0;0.0;0.0;0.0;0.0;388.0;128.0;7.1485199999999995;389.86;129.62;0.0;28.0;1.0;0.252148;-1.2709700000000002;-2.79548;0.261492;-1.29375;-2.86016;-0.245959;-0.00511558;0.9586879999999999;0.6256109999999999;1.50804;4.82229;0.0;0.0;0.0;0.0;0.0;0.0;0.0;0.0;0.0;0.0;675.0;304.0;1024.0;1024.0;1024.0;224.0;1024.0;1024.0;1024.0;1.0;4.0;0.0;0.0;0.0;0.0;0.0;;1970-01-01 00:00:01.595
711.0;717.0;0.0;-1.0;-1.0;-1.0;-1.0;-1.0;100.0;0.0;0.0;0.0;0.0;0.0;0.0;0.0;0.0;0.0;0.0;0.0;0.0;0.0;0.0;389.0;128.0;6.99786;390.26300000000003;129.842;0.0;29.0;1.0;0.250438;-1.29833;-2.85566;0.258176;-1.29513;-2.85881;-0.250569;0.12318599999999999;1.12942;0.467933;2.78914;6.28854;0.0;0.0;0.0;0.0;0.0;0.0;0.0;0.0;0.0;0.0;675.0;304.0;1024.0;1024.0;1024.0;224.0;1024.0;1024.0;1024.0;1.0;4.0;0.0;0.0;0.0;0.0;0.0;;1970-01-01 00:00:01.606
711.0;717.0;0.0;-1.0;-1.0;-1.0;-1.0;-1.0;100.0;0.0;0.0;0.0;0.0;0.0;0.0;0.0;0.0;0.0;0.0;0.0;0.0;0.0;0.0;389.0;128.0;6.99786;390.26300000000003;129.842;0.0;29.0;1.0;0.250438;-1.29833;-2.85566;0.258176;-1.29513;-2.85881;-0.250569;0.12318599999999999;1.12942;0.467933;2.78914;6.28854;0.0;0.0;0.0;0.0;0.0;0.0;0.0;0.0;0.0;0.0;675.0;304.0;1024.0;1024.0;1024.0;224.0;1024.0;1024.0;1024.0;1.0;4.0;0.0;0.0;0.0;0.0;0.0;;1970-01-01 00:00:01.617
712.0;718.0;0.0;-1.0;-1.0;-1.0;-1.0;-1.0;100.0;0.0;0.0;0.0;0.0;0.0;0.0;0.0;0.0;0.0;0.0;0.0;0.0;0.0;0.0;389.0;129.0;6.60038;390.526;130.289;0.0;30.0;1.0;0.26552;-1.38231;-3.02275;0.26037899999999997;-1.32128;-2.9079900000000003;-0.22876300000000002;0.0907661;0.9497200000000001;0.33849;3.6763;6.81537;0.0;0.0;0.0;0.0;0.0;0.0;0.0;0.0;0.0;0.0;675.0;304.0;1024.0;1024.0;1024.0;224.0;1024.0;1024.0;1024.0;1.0;4.0;0.0;0.0;0.0;0.0;0.0;;1970-01-01 00:00:01.628
713.0;719.0;0.0;-1.0;-1.0;-1.0;-1.0;-1.0;100.0;0.0;0.0;0.0;0.0;0.0;0.0;0.0;0.0;0.0;0.0;0.0;0.0;0.0;0.0;390.0;130.0;6.70661;391.006;130.901;0.0;31.0;1.0;0.253865;-1.36611;-2.97007;0.258425;-1.33473;-2.92662;-0.203057;-0.0251834;0.600665;0.318472;3.5864199999999995;5.25945;0.0;0.0;0.0;0.0;0.0;0.0;0.0;0.0;0.0;0.0;675.0;304.0;1024.0;1024.0;1024.0;224.0;1024.0;1024.0;1024.0;1.0;4.0;0.0;0.0;0.0;0.0;0.0;;1970-01-01 00:00:01.639
713.0;719.0;0.0;-1.0;-1.0;-1.0;-1.0;-1.0;100.0;0.0;0.0;0.0;0.0;0.0;0.0;0.0;0.0;0.0;0.0;0.0;0.0;0.0;0.0;390.0;130.0;6.70661;391.006;130.901;0.0;31.0;1.0;0.253865;-1.36611;-2.97007;0.258425;-1.33473;-2.92662;-0.203057;-0.0251834;0.600665;0.318472;3.5864199999999995;5.25945;0.0;0.0;0.0;0.0;0.0;0.0;0.0;0.0;0.0;0.0;675.0;304.0;1024.0;1024.0;1024.0;224.0;1024.0;1024.0;1024.0;1.0;4.0;0.0;0.0;0.0;0.0;0.0;;1970-01-01 00:00:01.650
714.0;720.0;0.0;-1.0;-1.0;-1.0;-1.0;-1.0;100.0;0.0;0.0;0.0;0.0;0.0;0.0;0.0;0.0;0.0;0.0;0.0;0.0;0.0;0.0;391.0;130.0;6.875210000000001;391.645;131.314;0.0;32.0;1.0;0.240373;-1.33261;-2.89724;0.25300900000000004;-1.33409;-2.9178;-0.18798800000000002;-0.114497;0.326495;0.386556;2.79924;2.44551;0.0;0.0;0.0;0.0;0.0;0.0;0.0;0.0;0.0;0.0;675.0;304.0;1024.0;1024.0;1024.0;224.0;1024.0;1024.0;1024.0;1.0;4.0;0.0;0.0;0.0;0.0;0.0;;1970-01-01 00:00:01.661
715.0;721.0;0.0;-1.0;-1.0;-1.0;-1.0;-1.0;100.0;0.0;0.0;0.0;0.0;0.0;0.0;0.0;0.0;0.0;0.0;0.0;0.0;0.0;0.0;391.0;131.0;6.89146;392.08;131.901;0.0;33.0;1.0;0.239806;-1.33501;-2.88573;0.249048;-1.33437;-2.9081799999999998;-0.178466;-0.19187200000000001;0.11485899999999999;0.490101;1.5400200000000002;-0.918891;0.0;0.0;0.0;0.0;0.0;0.0;0.0;0.0;0.0;0.0;675.0;304.0;1024.0;1024.0;1024.0;224.0;1024.0;1024.0;1024.0;1.0;4.0;0.0;0.0;0.0;0.0;0.0;;1970-01-01 00:00:01.672
715.0;721.0;0.0;-1.0;-1.0;-1.0;-1.0;-1.0;100.0;0.0;0.0;0.0;0.0;0.0;0.0;0.0;0.0;0.0;0.0;0.0;0.0;0.0;0.0;391.0;131.0;6.89146;392.08;131.901;0.0;33.0;1.0;0.239806;-1.33501;-2.88573;0.249048;-1.33437;-2.9081799999999998;-0.178466;-0.19187200000000001;0.11485899999999999;0.490101;1.5400200000000002;-0.918891;0.0;0.0;0.0;0.0;0.0;0.0;0.0;0.0;0.0;0.0;675.0;304.0;1024.0;1024.0;1024.0;224.0;1024.0;1024.0;1024.0;1.0;4.0;0.0;0.0;0.0;0.0;0.0;;1970-01-01 00:00:01.683
716.0;722.0;0.0;-1.0;-1.0;-1.0;-1.0;-1.0;100.0;0.0;0.0;0.0;0.0;0.0;0.0;0.0;0.0;0.0;0.0;0.0;0.0;0.0;0.0;391.333;131.333;7.02723;392.473;132.404;0.0;34.0;1.0;0.232803;-1.31103;-2.82845;0.244175;-1.32736;-2.88426;-0.176223;-0.249322;-0.027306599999999997;0.572496;-0.0510293;-4.4881;0.0;0.0;0.0;0.0;0.0;0.0;0.0;0.0;0.0;0.0;675.0;304.0;1024.0;1024.0;1024.0;224.0;1024.0;1024.0;1024.0;1.0;4.0;0.0;0.0;0.0;0.0;0.0;;1970-01-01 00:00:01.694
717.0;723.0;0.0;-1.0;-1.0;-1.0;-1.0;-1.0;100.0;0.0;0.0;0.0;0.0;0.0;0.0;0.0;0.0;0.0;0.0;0.0;0.0;0.0;0.0;391.0;132.0;7.11742;392.625;132.95;0.0;35.0;1.0;0.23219299999999998;-1.29799;-2.78959;0.24058000000000002;-1.31855;-2.85586;-0.17598699999999998;-0.24311999999999998;-0.0046048;0.6412770000000001;-1.49316;-7.2206600000000005;0.0;0.0;0.0;0.0;0.0;0.0;0.0;0.0;0.0;0.0;675.0;304.0;1024.0;1024.0;1024.0;224.0;1024.0;1024.0;1024.0;1.0;4.0;0.0;0.0;0.0;0.0;0.0;;1970-01-01 00:00:01.705
717.0;723.0;0.0;-1.0;-1.0;-1.0;-1.0;-1.0;100.0;0.0;0.0;0.0;0.0;0.0;0.0;0.0;0.0;0.0;0.0;0.0;0.0;0.0;0.0;391.0;132.0;7.11742;392.625;132.95;0.0;35.0;1.0;0.23219299999999998;-1.29799;-2.78959;0.24058000000000002;-1.31855;-2.85586;-0.17598699999999998;-0.24311999999999998;-0.0046048;0.6412770000000001;-1.49316;-7.2206600000000005;0.0;0.0;0.0;0.0;0.0;0.0;0.0;0.0;0.0;0.0;675.0;304.0;1024.0;1024.0;1024.0;224.0;1024.0;1024.0;1024.0;1.0;4.0;0.0;0.0;0.0;0.0;0.0;;1970-01-01 00:00:01.716
718.0;724.0;0.0;-1.0;-1.0;-1.0;-1.0;-1.0;100.0;0.0;0.0;0.0;0.0;0.0;0.0;0.0;0.0;0.0;0.0;0.0;0.0;0.0;0.0;391.0;132.0;6.992000000000001;392.707;133.317;0.0;36.0;1.0;0.23635799999999998;-1.3212700000000002;-2.83963;0.239313;-1.3193700000000002;-2.8509900000000004;-0.1897;-0.138232;0.22482600000000003;0.5407310000000001;-1.8102099999999999;-7.226660000000001;0.0;0.0;0.0;0.0;0.0;0.0;0.0;0.0;0.0;0.0;675.0;304.0;1024.0;1024.0;1024.0;224.0;1024.0;1024.0;1024.0;1.0;4.0;0.0;0.0;0.0;0.0;0.0;;1970-01-01 00:00:01.727
719.0;725.0;0.0;-1.0;-1.0;-1.0;-1.0;-1.0;100.0;0.0;0.0;0.0;0.0;0.0;0.0;0.0;0.0;0.0;0.0;0.0;0.0;0.0;0.0;391.0;132.0;6.854019999999999;392.741;133.553;0.0;37.0;1.0;0.241116;-1.3478700000000001;-2.8968;0.23985399999999998;-1.32792;-2.8647400000000003;-0.18796600000000002;-0.0557492;0.381973;0.384694;-1.20817;-5.209169999999999;0.0;0.0;0.0;0.0;0.0;0.0;0.0;0.0;0.0;0.0;675.0;304.0;1024.0;1024.0;1024.0;224.0;1024.0;1024.0;1024.0;1.0;4.0;0.0;0.0;0.0;0.0;0.0;;1970-01-01 00:00:01.738
719.0;725.0;0.0;-1.0;-1.0;-1.0;-1.0;-1.0;100.0;0.0;0.0;0.0;0.0;0.0;0.0;0.0;0.0;0.0;0.0;0.0;0.0;0.0;0.0;391.0;132.0;6.854019999999999;392.741;133.553;0.0;37.0;1.0;0.241116;-1.3478700000000001;-2.8968;0.23985399999999998;-1.32792;-2.8647400000000003;-0.18796600000000002;-0.0557492;0.381973;0.384694;-1.20817;-5.209169999999999;0.0;0.0;0.0;0.0;0.0;0.0;0.0;0.0;0.0;0.0;675.0;304.0;1024.0;1024.0;1024.0;224.0;1024.0;1024.0;1024.0;1.0;4.0;0.0;0.0;0.0;0.0;0.0;;1970-01-01 00:00:01.749
720.0;726.0;0.0;-1.0;-1.0;-1.0;-1.0;-1.0;100.0;0.0;0.0;0.0;0.0;0.0;0.0;0.0;0.0;0.0;0.0;0.0;0.0;0.0;0.0;390.0;132.0;6.963019999999999;392.421;133.696;0.0;38.0;1.0;0.24451599999999998;-1.32677;-2.85145;0.24125300000000002;-1.32758;-2.86075;-0.159718;-0.00742752;0.45698199999999994;0.343688;-0.29740500000000003;-2.60451;0.0;0.0;0.0;0.0;0.0;0.0;0.0;0.0;0.0;0.0;675.0;304.0;1024.0;1024.0;1024.0;224.0;1024.0;1024.0;1024.0;1.0;4.0;0.0;0.0;0.0;0.0;0.0;;1970-01-01 00:00:01.760
721.0;727.0;0.0;-1.0;-1.0;-1.0;-1.0;-1.0;100.0;0.0;0.0;0.0;0.0;0.0;0.0;0.0;0.0;0.0;0.0;0.0;0.0;0.0;0.0;390.0;132.0;6.85898;392.165;133.77200000000002;0.0;39.0;1.0;0.248225;-1.3469;-2.8947;0.24334499999999998;-1.3333700000000002;-2.87094;-0.118604;-0.000484112;0.42290200000000006;0.44522399999999995;0.585709;-0.33278800000000003;0.0;0.0;0.0;0.0;0.0;0.0;0.0;0.0;0.0;0.0;675.0;304.0;1024.0;1024.0;1024.0;224.0;1024.0;1024.0;1024.0;1.0;4.0;0.0;0.0;0.0;0.0;0.0;;1970-01-01 00:00:01.771
722.0;728.0;0.0;-1.0;-1.0;-1.0;-1.0;-1.0;100.0;0.0;0.0;0.0;0.0;0.0;0.0;0.0;0.0;0.0;0.0;0.0;0.0;0.0;0.0;390.0;132.0;6.823589999999999;391.957;133.799;0.0;40.0;1.0;0.249513;-1.35388;-2.90972;0.24519499999999997;-1.3395299999999999;-2.88257;-0.06708839999999999;-0.048846;0.260499;0.702873;1.15186;0.949442;0.0;0.0;0.0;0.0;0.0;0.0;0.0;0.0;0.0;0.0;675.0;304.0;1024.0;1024.0;1024.0;224.0;1024.0;1024.0;1024.0;1.0;4.0;0.0;0.0;0.0;0.0;0.0;;1970-01-01 00:00:01.782
722.0;728.0;0.0;-1.0;-1.0;-1.0;-1.0;-1.0;100.0;0.0;0.0;0.0;0.0;0.0;0.0;0.0;0.0;0.0;0.0;0.0;0.0;0.0;0.0;390.0;132.0;6.823589999999999;391.957;133.799;0.0;40.0;1.0;0.249513;-1.35388;-2.90972;0.24519499999999997;-1.3395299999999999;-2.88257;-0.06708839999999999;-0.048846;0.260499;0.702873;1.15186;0.949442;0.0;0.0;0.0;0.0;0.0;0.0;0.0;0.0;0.0;0.0;675.0;304.0;1024.0;1024.0;1024.0;224.0;1024.0;1024.0;1024.0;1.0;4.0;0.0;0.0;0.0;0.0;0.0;;1970-01-01 00:00:01.793
723.0;729.0;0.0;-1.0;-1.0;-1.0;-1.0;-1.0;100.0;0.0;0.0;0.0;0.0;0.0;0.0;0.0;0.0;0.0;0.0;0.0;0.0;0.0;0.0;390.0;132.0;6.87672;391.785;133.79399999999998;0.0;41.0;1.0;0.247585;-1.34342;-2.8872299999999997;0.245912;-1.3407;-2.88397;-0.018965;-0.11771500000000001;0.0440754;1.04866;1.19182;0.76403;0.0;0.0;0.0;0.0;0.0;0.0;0.0;0.0;0.0;0.0;675.0;304.0;1024.0;1024.0;1024.0;224.0;1024.0;1024.0;1024.0;1.0;4.0;0.0;0.0;0.0;0.0;0.0;;1970-01-01 00:00:01.804
724.0;730.0;0.0;-1.0;-1.0;-1.0;-1.0;-1.0;100.0;0.0;0.0;0.0;0.0;0.0;0.0;0.0;0.0;0.0;0.0;0.0;0.0;0.0;0.0;389.0;131.0;6.8482;391.32199999999995;133.446;0.0;42.0;1.0;0.255911;-1.34344;-2.9039599999999997;0.248912;-1.34152;-2.88997;0.0269433;-0.159066;-0.129165;1.49419;0.6319100000000001;-0.954957;0.0;0.0;0.0;0.0;0.0;0.0;0.0;0.0;0.0;0.0;675.0;304.0;1024.0;1024.0;1024.0;224.0;1024.0;1024.0;1024.0;1.0;4.0;0.0;0.0;0.0;0.0;0.0;;1970-01-01 00:00:01.815
724.0;730.0;0.0;-1.0;-1.0;-1.0;-1.0;-1.0;100.0;0.0;0.0;0.0;0.0;0.0;0.0;0.0;0.0;0.0;0.0;0.0;0.0;0.0;0.0;389.0;131.0;6.8482;391.32199999999995;133.446;0.0;42.0;1.0;0.255911;-1.34344;-2.9039599999999997;0.248912;-1.34152;-2.88997;0.0269433;-0.159066;-0.129165;1.49419;0.6319100000000001;-0.954957;0.0;0.0;0.0;0.0;0.0;0.0;0.0;0.0;0.0;0.0;675.0;304.0;1024.0;1024.0;1024.0;224.0;1024.0;1024.0;1024.0;1.0;4.0;0.0;0.0;0.0;0.0;0.0;;1970-01-01 00:00:01.826
725.0;731.0;0.0;-1.0;-1.0;-1.0;-1.0;-1.0;100.0;0.0;0.0;0.0;0.0;0.0;0.0;0.0;0.0;0.0;0.0;0.0;0.0;0.0;0.0;389.0;131.0;7.16409;390.967;133.17;0.0;43.0;1.0;0.244627;-1.2842;-2.7759099999999997;0.247626;-1.3243200000000002;-2.85575;0.0471964;-0.081081;-0.041629400000000004;1.8354400000000002;0.278004;-2.26428;0.0;0.0;0.0;0.0;0.0;0.0;0.0;0.0;0.0;0.0;675.0;304.0;1024.0;1024.0;1024.0;224.0;1024.0;1024.0;1024.0;1.0;4.0;0.0;0.0;0.0;0.0;0.0;;1970-01-01 00:00:01.837
726.0;732.0;0.0;-1.0;-1.0;-1.0;-1.0;-1.0;100.0;0.0;0.0;0.0;0.0;0.0;0.0;0.0;0.0;0.0;0.0;0.0;0.0;0.0;0.0;388.0;132.0;7.3377300000000005;390.375;133.267;0.0;44.0;1.0;0.245646;-1.25902;-2.7058400000000002;0.24703200000000003;-1.30473;-2.81078;0.0513924;0.042558;0.174548;1.9441599999999999;0.366379;-2.48623;0.0;0.0;0.0;0.0;0.0;0.0;0.0;0.0;0.0;0.0;675.0;304.0;1024.0;1024.0;1024.0;224.0;1024.0;1024.0;1024.0;1.0;4.0;0.0;0.0;0.0;0.0;0.0;;1970-01-01 00:00:01.848
726.0;732.0;0.0;-1.0;-1.0;-1.0;-1.0;-1.0;100.0;0.0;0.0;0.0;0.0;0.0;0.0;0.0;0.0;0.0;0.0;0.0;0.0;0.0;0.0;388.0;132.0;7.3377300000000005;390.375;133.267;0.0;44.0;1.0;0.245646;-1.25902;-2.7058400000000002;0.24703200000000003;-1.30473;-2.81078;0.0513924;0.042558;0.174548;1.9441599999999999;0.366379;-2.48623;0.0;0.0;0.0;0.0;0.0;0.0;0.0;0.0;0.0;0.0;675.0;304.0;1024.0;1024.0;1024.0;224.0;1024.0;1024.0;1024.0;1.0;4.0;0.0;0.0;0.0;0.0;0.0;;1970-01-01 00:00:01.859
727.0;733.0;0.0;-1.0;-1.0;-1.0;-1.0;-1.0;100.0;0.0;0.0;0.0;0.0;0.0;0.0;0.0;0.0;0.0;0.0;0.0;0.0;0.0;0.0;388.0;132.0;7.3377300000000005;390.68800000000005;133.721;1.0;0.0;1.0;0.245646;-1.25902;-2.7058400000000002;0.24703200000000003;-1.30473;-2.81078;0.0513924;0.042558;0.174548;1.9441599999999999;0.366379;-2.48623;0.0;0.0;0.0;0.0;0.0;0.0;0.0;0.0;0.0;0.0;675.0;304.0;1024.0;1024.0;1024.0;224.0;1024.0;1024.0;1024.0;1.0;4.0;0.0;0.0;0.0;0.0;0.0;;1970-01-01 00:00:01.870
728.0;734.0;0.0;-1.0;-1.0;-1.0;-1.0;-1.0;100.0;0.0;0.0;0.0;0.0;0.0;0.0;0.0;0.0;0.0;0.0;0.0;0.0;0.0;0.0;388.0;132.0;7.107130000000001;389.963;133.511;0.0;1.0;1.0;0.253617;-1.29987;-2.79363;0.24900799999999998;-1.3032700000000002;-2.80563;0.050215699999999995;0.12854000000000002;0.32820900000000003;1.7442400000000002;0.6613859999999999;-1.81581;0.0;0.0;0.0;0.0;0.0;0.0;0.0;0.0;0.0;0.0;675.0;304.0;1024.0;1024.0;1024.0;224.0;1024.0;1024.0;1024.0;1.0;4.0;0.0;0.0;0.0;0.0;0.0;;1970-01-01 00:00:01.881
728.0;734.0;0.0;-1.0;-1.0;-1.0;-1.0;-1.0;100.0;0.0;0.0;0.0;0.0;0.0;0.0;0.0;0.0;0.0;0.0;0.0;0.0;0.0;0.0;388.0;132.0;7.107130000000001;389.963;133.511;0.0;1.0;1.0;0.253617;-1.29987;-2.79363;0.24900799999999998;-1.3032700000000002;-2.80563;0.050215699999999995;0.12854000000000002;0.32820900000000003;1.7442400000000002;0.6613859999999999;-1.81581;0.0;0.0;0.0;0.0;0.0;0.0;0.0;0.0;0.0;0.0;675.0;304.0;1024.0;1024.0;1024.0;224.0;1024.0;1024.0;1024.0;1.0;4.0;0.0;0.0;0.0;0.0;0.0;;1970-01-01 00:00:01.892
729.0;735.0;0.0;-1.0;-1.0;-1.0;-1.0;-1.0;100.0;0.0;0.0;0.0;0.0;0.0;0.0;0.0;0.0;0.0;0.0;0.0;0.0;0.0;0.0;388.0;133.0;7.13496;389.539;133.756;0.0;2.0;1.0;0.252627;-1.30015;-2.77822;0.250093;-1.30234;-2.7974099999999997;0.046893300000000006;0.204394;0.488368;1.4366299999999999;1.2635;-0.309645;0.0;0.0;0.0;0.0;0.0;0.0;0.0;0.0;0.0;0.0;675.0;304.0;1024.0;1024.0;1024.0;224.0;1024.0;1024.0;1024.0;1.0;4.0;0.0;0.0;0.0;0.0;0.0;;1970-01-01 00:00:01.903
730.0;736.0;0.0;-1.0;-1.0;-1.0;-1.0;-1.0;100.0;0.0;0.0;0.0;0.0;0.0;0.0;0.0;0.0;0.0;0.0;0.0;0.0;0.0;0.0;388.0;133.0;7.09743;389.26;133.92;0.0;3.0;1.0;0.253963;-1.30703;-2.79291;0.251254;-1.30374;-2.7960599999999998;0.046419;0.24909099999999998;0.5938680000000001;1.08574;2.01341;1.69576;0.0;0.0;0.0;0.0;0.0;0.0;0.0;0.0;0.0;0.0;675.0;304.0;1024.0;1024.0;1024.0;224.0;1024.0;1024.0;1024.0;1.0;4.0;0.0;0.0;0.0;0.0;0.0;;1970-01-01 00:00:01.914
730.0;736.0;0.0;-1.0;-1.0;-1.0;-1.0;-1.0;100.0;0.0;0.0;0.0;0.0;0.0;0.0;0.0;0.0;0.0;0.0;0.0;0.0;0.0;0.0;388.0;133.0;7.09743;389.26;133.92;0.0;3.0;1.0;0.253963;-1.30703;-2.79291;0.251254;-1.30374;-2.7960599999999998;0.046419;0.24909099999999998;0.5938680000000001;1.08574;2.01341;1.69576;0.0;0.0;0.0;0.0;0.0;0.0;0.0;0.0;0.0;0.0;675.0;304.0;1024.0;1024.0;1024.0;224.0;1024.0;1024.0;1024.0;1.0;4.0;0.0;0.0;0.0;0.0;0.0;;1970-01-01 00:00:01.925
731.0;737.0;0.0;-1.0;-1.0;-1.0;-1.0;-1.0;100.0;0.0;0.0;0.0;0.0;0.0;0.0;0.0;0.0;0.0;0.0;0.0;0.0;0.0;0.0;387.0;134.0;7.03057;388.736;134.35299999999998;0.0;4.0;1.0;0.263484;-1.32489;-2.8149;0.254923;-1.31009;-2.80171;0.048425199999999995;0.25701799999999997;0.6583600000000001;0.724961;2.6320200000000002;3.7126099999999997;0.0;0.0;0.0;0.0;0.0;0.0;0.0;0.0;0.0;0.0;675.0;304.0;1024.0;1024.0;1024.0;224.0;1024.0;1024.0;1024.0;1.0;4.0;0.0;0.0;0.0;0.0;0.0;;1970-01-01 00:00:01.936
732.0;738.0;0.0;-1.0;-1.0;-1.0;-1.0;-1.0;100.0;0.0;0.0;0.0;0.0;0.0;0.0;0.0;0.0;0.0;0.0;0.0;0.0;0.0;0.0;387.0;135.0;7.06625;388.35900000000004;134.97;0.0;5.0;1.0;0.262154;-1.32361;-2.79612;0.257092;-1.3141399999999999;-2.80003;0.0614512;0.189052;0.5856939999999999;0.48376099999999994;2.50368;4.37445;0.0;0.0;0.0;0.0;0.0;0.0;0.0;0.0;0.0;0.0;675.0;304.0;1024.0;1024.0;1024.0;224.0;1024.0;1024.0;1024.0;1.0;4.0;0.0;0.0;0.0;0.0;0.0;;1970-01-01 00:00:01.947
733.0;739.0;0.0;-1.0;-1.0;-1.0;-1.0;-1.0;100.0;0.0;0.0;0.0;0.0;0.0;0.0;0.0;0.0;0.0;0.0;0.0;0.0;0.0;0.0;386.667;135.333;7.1752899999999995;387.975;135.504;0.0;6.0;1.0;0.260491;-1.3052700000000002;-2.7521400000000003;0.258112;-1.31148;-2.78566;0.0747887;0.0903395;0.437359;0.37032600000000004;1.66573;3.52409;0.0;0.0;0.0;0.0;0.0;0.0;0.0;0.0;0.0;0.0;675.0;304.0;1024.0;1024.0;1024.0;224.0;1024.0;1024.0;1024.0;1.0;4.0;0.0;0.0;0.0;0.0;0.0;;1970-01-01 00:00:01.958
733.0;739.0;0.0;-1.0;-1.0;-1.0;-1.0;-1.0;100.0;0.0;0.0;0.0;0.0;0.0;0.0;0.0;0.0;0.0;0.0;0.0;0.0;0.0;0.0;386.667;135.333;7.1752899999999995;387.975;135.504;0.0;6.0;1.0;0.260491;-1.3052700000000002;-2.7521400000000003;0.258112;-1.31148;-2.78566;0.0747887;0.0903395;0.437359;0.37032600000000004;1.66573;3.52409;0.0;0.0;0.0;0.0;0.0;0.0;0.0;0.0;0.0;0.0;675.0;304.0;1024.0;1024.0;1024.0;224.0;1024.0;1024.0;1024.0;1.0;4.0;0.0;0.0;0.0;0.0;0.0;;1970-01-01 00:00:01.969
734.0;740.0;0.0;-1.0;-1.0;-1.0;-1.0;-1.0;100.0;0.0;0.0;0.0;0.0;0.0;0.0;0.0;0.0;0.0;0.0;0.0;0.0;0.0;0.0;386.0;136.0;7.02427;387.47900000000004;136.084;0.0;7.0;1.0;0.270833;-1.33695;-2.80825;0.261928;-1.31912;-2.79244;0.09646060000000001;-0.00907285;0.31509299999999996;0.40683600000000003;0.449995;2.06209;0.0;0.0;0.0;0.0;0.0;0.0;0.0;0.0;0.0;0.0;675.0;304.0;1024.0;1024.0;1024.0;224.0;1024.0;1024.0;1024.0;1.0;4.0;0.0;0.0;0.0;0.0;0.0;;1970-01-01 00:00:01.980
735.0;741.0;0.0;-1.0;-1.0;-1.0;-1.0;-1.0;100.0;0.0;0.0;0.0;0.0;0.0;0.0;0.0;0.0;0.0;0.0;0.0;0.0;0.0;0.0;385.0;136.0;7.1501600000000005;386.796;136.486;0.0;8.0;1.0;0.27305100000000004;-1.31341;-2.75881;0.26526500000000003;-1.31741;-2.78235;0.118451;-0.0656224;0.24918600000000002;0.52981;-0.808095;0.282271;0.0;0.0;0.0;0.0;0.0;0.0;0.0;0.0;0.0;0.0;675.0;304.0;1024.0;1024.0;1024.0;224.0;1024.0;1024.0;1024.0;1.0;4.0;0.0;0.0;0.0;0.0;0.0;;1970-01-01 00:00:01.991
735.0;741.0;0.0;-1.0;-1.0;-1.0;-1.0;-1.0;100.0;0.0;0.0;0.0;0.0;0.0;0.0;0.0;0.0;0.0;0.0;0.0;0.0;0.0;0.0;385.0;136.0;7.1501600000000005;386.796;136.486;0.0;8.0;1.0;0.27305100000000004;-1.31341;-2.75881;0.26526500000000003;-1.31741;-2.78235;0.118451;-0.0656224;0.24918600000000002;0.52981;-0.808095;0.282271;0.0;0.0;0.0;0.0;0.0;0.0;0.0;0.0;0.0;0.0;675.0;304.0;1024.0;1024.0;1024.0;224.0;1024.0;1024.0;1024.0;1.0;4.0;0.0;0.0;0.0;0.0;0.0;;1970-01-01 00:00:02.002
736.0;742.0;0.0;-1.0;-1.0;-1.0;-1.0;-1.0;100.0;0.0;0.0;0.0;0.0;0.0;0.0;0.0;0.0;0.0;0.0;0.0;0.0;0.0;0.0;385.0;136.0;7.1501600000000005;386.87;136.914;1.0;0.0;1.0;0.27305100000000004;-1.31341;-2.75881;0.26526500000000003;-1.31741;-2.78235;0.118451;-0.0656224;0.24918600000000002;0.52981;-0.808095;0.282271;0.0;0.0;0.0;0.0;0.0;0.0;0.0;0.0;0.0;0.0;675.0;304.0;1024.0;1024.0;1024.0;224.0;1024.0;1024.0;1024.0;1.0;4.0;0.0;0.0;0.0;0.0;0.0;;1970-01-01 00:00:02.013
737.0;743.0;0.0;-1.0;-1.0;-1.0;-1.0;-1.0;100.0;0.0;0.0;0.0;0.0;0.0;0.0;0.0;0.0;0.0;0.0;0.0;0.0;0.0;0.0;383.0;136.0;7.10531;385.45;136.989;0.0;1.0;1.0;0.28883600000000004;-1.32171;-2.77622;0.272336;-1.3187;-2.78051;0.14322000000000001;-0.09055060000000001;0.202725;0.64917;-1.6472200000000001;-1.16925;0.0;0.0;0.0;0.0;0.0;0.0;0.0;0.0;0.0;0.0;675.0;304.0;1024.0;1024.0;1024.0;224.0;1024.0;1024.0;1024.0;1.0;4.0;0.0;0.0;0.0;0.0;0.0;;1970-01-01 00:00:02.024
737.0;743.0;0.0;-1.0;-1.0;-1.0;-1.0;-1.0;100.0;0.0;0.0;0.0;0.0;0.0;0.0;0.0;0.0;0.0;0.0;0.0;0.0;0.0;0.0;383.0;136.0;7.10531;385.45;136.989;0.0;1.0;1.0;0.28883600000000004;-1.32171;-2.77622;0.272336;-1.3187;-2.78051;0.14322000000000001;-0.09055060000000001;0.202725;0.64917;-1.6472200000000001;-1.16925;0.0;0.0;0.0;0.0;0.0;0.0;0.0;0.0;0.0;0.0;675.0;304.0;1024.0;1024.0;1024.0;224.0;1024.0;1024.0;1024.0;1.0;4.0;0.0;0.0;0.0;0.0;0.0;;1970-01-01 00:00:02.035
738.0;744.0;0.0;-1.0;-1.0;-1.0;-1.0;-1.0;100.0;0.0;0.0;0.0;0.0;0.0;0.0;0.0;0.0;0.0;0.0;0.0;0.0;0.0;0.0;383.0;136.0;7.10531;385.46;137.401;1.0;0.0;1.0;0.28883600000000004;-1.32171;-2.77622;0.272336;-1.3187;-2.78051;0.14322000000000001;-0.09055060000000001;0.202725;0.64917;-1.6472200000000001;-1.16925;0.0;0.0;0.0;0.0;0.0;0.0;0.0;0.0;0.0;0.0;675.0;304.0;1024.0;1024.0;1024.0;224.0;1024.0;1024.0;1024.0;1.0;4.0;0.0;0.0;0.0;0.0;0.0;;1970-01-01 00:00:02.046
739.0;745.0;0.0;-1.0;-1.0;-1.0;-1.0;-1.0;100.0;0.0;0.0;0.0;0.0;0.0;0.0;0.0;0.0;0.0;0.0;0.0;0.0;0.0;0.0;381.0;136.0;7.28568;383.615;137.231;0.0;1.0;1.0;0.29539899999999997;-1.28898;-2.70749;0.27925500000000003;-1.30978;-2.75861;0.158795;-0.0534187;0.250716;0.720005;-1.9179400000000002;-1.92225;0.0;0.0;0.0;0.0;0.0;0.0;0.0;0.0;0.0;0.0;675.0;304.0;1024.0;1024.0;1024.0;224.0;1024.0;1024.0;1024.0;1.0;4.0;0.0;0.0;0.0;0.0;0.0;;1970-01-01 00:00:02.057
739.0;745.0;0.0;-1.0;-1.0;-1.0;-1.0;-1.0;100.0;0.0;0.0;0.0;0.0;0.0;0.0;0.0;0.0;0.0;0.0;0.0;0.0;0.0;0.0;381.0;136.0;7.28568;383.615;137.231;0.0;1.0;1.0;0.29539899999999997;-1.28898;-2.70749;0.27925500000000003;-1.30978;-2.75861;0.158795;-0.0534187;0.250716;0.720005;-1.9179400000000002;-1.92225;0.0;0.0;0.0;0.0;0.0;0.0;0.0;0.0;0.0;0.0;675.0;304.0;1024.0;1024.0;1024.0;224.0;1024.0;1024.0;1024.0;1.0;4.0;0.0;0.0;0.0;0.0;0.0;;1970-01-01 00:00:02.068
740.0;746.0;0.0;-1.0;-1.0;-1.0;-1.0;-1.0;100.0;0.0;0.0;0.0;0.0;0.0;0.0;0.0;0.0;0.0;0.0;0.0;0.0;0.0;0.0;380.0;136.0;7.26704;382.223;137.168;0.0;2.0;1.0;0.303032;-1.29229;-2.71444;0.28638800000000003;-1.30454;-2.74535;0.183004;-0.00328199;0.31416900000000003;0.7959930000000001;-1.7267099999999997;-1.96643;0.0;0.0;0.0;0.0;0.0;0.0;0.0;0.0;0.0;0.0;675.0;304.0;1024.0;1024.0;1024.0;224.0;1024.0;1024.0;1024.0;1.0;4.0;0.0;0.0;0.0;0.0;0.0;;1970-01-01 00:00:02.079
741.0;747.0;0.0;-1.0;-1.0;-1.0;-1.0;-1.0;100.0;0.0;0.0;0.0;0.0;0.0;0.0;0.0;0.0;0.0;0.0;0.0;0.0;0.0;0.0;379.0;137.0;7.122669999999999;380.994;137.47899999999998;0.0;3.0;1.0;0.316188;-1.32385;-2.76494;0.29532800000000003;-1.31033;-2.75123;0.22124699999999997;0.00147667;0.29162;0.916166;-1.30213;-1.61628;0.0;0.0;0.0;0.0;0.0;0.0;0.0;0.0;0.0;0.0;675.0;304.0;1024.0;1024.0;1024.0;224.0;1024.0;1024.0;1024.0;1.0;4.0;0.0;0.0;0.0;0.0;0.0;;1970-01-01 00:00:02.090
741.0;747.0;0.0;-1.0;-1.0;-1.0;-1.0;-1.0;100.0;0.0;0.0;0.0;0.0;0.0;0.0;0.0;0.0;0.0;0.0;0.0;0.0;0.0;0.0;379.0;137.0;7.122669999999999;380.994;137.47899999999998;0.0;3.0;1.0;0.316188;-1.32385;-2.76494;0.29532800000000003;-1.31033;-2.75123;0.22124699999999997;0.00147667;0.29162;0.916166;-1.30213;-1.61628;0.0;0.0;0.0;0.0;0.0;0.0;0.0;0.0;0.0;0.0;675.0;304.0;1024.0;1024.0;1024.0;224.0;1024.0;1024.0;1024.0;1.0;4.0;0.0;0.0;0.0;0.0;0.0;;1970-01-01 00:00:02.101
742.0;748.0;0.0;-1.0;-1.0;-1.0;-1.0;-1.0;100.0;0.0;0.0;0.0;0.0;0.0;0.0;0.0;0.0;0.0;0.0;0.0;0.0;0.0;0.0;378.0;136.0;7.14601;379.83099999999996;137.356;0.0;4.0;1.0;0.322146;-1.31418;-2.76041;0.303373;-1.31148;-2.75398;0.25686;0.0237607;0.290138;1.03003;-0.6829529999999999;-1.0445;0.0;0.0;0.0;0.0;0.0;0.0;0.0;0.0;0.0;0.0;675.0;304.0;1024.0;1024.0;1024.0;224.0;1024.0;1024.0;1024.0;1.0;4.0;0.0;0.0;0.0;0.0;0.0;;1970-01-01 00:00:02.112
743.0;749.0;0.0;-1.0;-1.0;-1.0;-1.0;-1.0;100.0;0.0;0.0;0.0;0.0;0.0;0.0;0.0;0.0;0.0;0.0;0.0;0.0;0.0;0.0;378.0;136.0;7.14601;379.616;137.701;1.0;0.0;1.0;0.322146;-1.31418;-2.76041;0.303373;-1.31148;-2.75398;0.25686;0.0237607;0.290138;1.03003;-0.6829529999999999;-1.0445;0.0;0.0;0.0;0.0;0.0;0.0;0.0;0.0;0.0;0.0;675.0;304.0;1024.0;1024.0;1024.0;224.0;1024.0;1024.0;1024.0;1.0;4.0;0.0;0.0;0.0;0.0;0.0;;1970-01-01 00:00:02.123
744.0;750.0;0.0;-1.0;-1.0;-1.0;-1.0;-1.0;100.0;0.0;0.0;0.0;0.0;0.0;0.0;0.0;0.0;0.0;0.0;0.0;0.0;0.0;0.0;375.0;136.0;7.131530000000001;377.597;137.381;0.0;1.0;1.0;0.343815;-1.31685;-2.7660099999999996;0.315506;-1.3130899999999999;-2.75759;0.28784899999999997;0.025749599999999997;0.239986;1.06893;-0.166555;-0.651185;0.0;0.0;0.0;0.0;0.0;0.0;0.0;0.0;0.0;0.0;675.0;304.0;1024.0;1024.0;1024.0;224.0;1024.0;1024.0;1024.0;1.0;4.0;0.0;0.0;0.0;0.0;0.0;;1970-01-01 00:00:02.134
744.0;750.0;0.0;-1.0;-1.0;-1.0;-1.0;-1.0;100.0;0.0;0.0;0.0;0.0;0.0;0.0;0.0;0.0;0.0;0.0;0.0;0.0;0.0;0.0;375.0;136.0;7.131530000000001;377.597;137.381;0.0;1.0;1.0;0.343815;-1.31685;-2.7660099999999996;0.315506;-1.3130899999999999;-2.75759;0.28784899999999997;0.025749599999999997;0.239986;1.06893;-0.166555;-0.651185;0.0;0.0;0.0;0.0;0.0;0.0;0.0;0.0;0.0;0.0;675.0;304.0;1024.0;1024.0;1024.0;224.0;1024.0;1024.0;1024.0;1.0;4.0;0.0;0.0;0.0;0.0;0.0;;1970-01-01 00:00:02.145
745.0;751.0;0.0;-1.0;-1.0;-1.0;-1.0;-1.0;100.0;0.0;0.0;0.0;0.0;0.0;0.0;0.0;0.0;0.0;0.0;0.0;0.0;0.0;0.0;374.0;137.0;7.301010000000001;376.029;137.563;0.0;2.0;1.0;0.342677;-1.29151;-2.6974;0.32365700000000003;-1.3066200000000001;-2.73953;0.326395;0.05162819999999999;0.266705;1.18989;0.325834;-0.19911600000000002;0.0;0.0;0.0;0.0;0.0;0.0;0.0;0.0;0.0;0.0;675.0;304.0;1024.0;1024.0;1024.0;224.0;1024.0;1024.0;1024.0;1.0;4.0;0.0;0.0;0.0;0.0;0.0;;1970-01-01 00:00:02.156
746.0;752.0;0.0;-1.0;-1.0;-1.0;-1.0;-1.0;100.0;0.0;0.0;0.0;0.0;0.0;0.0;0.0;0.0;0.0;0.0;0.0;0.0;0.0;0.0;373.0;137.0;7.129160000000001;374.662;137.684;0.0;3.0;1.0;0.35794499999999996;-1.32264;-2.76242;0.333943;-1.31142;-2.7464;0.38299999999999995;0.025362700000000002;0.201799;1.48125;0.46512;-0.28688;0.0;0.0;0.0;0.0;0.0;0.0;0.0;0.0;0.0;0.0;675.0;304.0;1024.0;1024.0;1024.0;224.0;1024.0;1024.0;1024.0;1.0;4.0;0.0;0.0;0.0;0.0;0.0;;1970-01-01 00:00:02.167
746.0;752.0;0.0;-1.0;-1.0;-1.0;-1.0;-1.0;100.0;0.0;0.0;0.0;0.0;0.0;0.0;0.0;0.0;0.0;0.0;0.0;0.0;0.0;0.0;373.0;137.0;7.129160000000001;374.662;137.684;0.0;3.0;1.0;0.35794499999999996;-1.32264;-2.76242;0.333943;-1.31142;-2.7464;0.38299999999999995;0.025362700000000002;0.201799;1.48125;0.46512;-0.28688;0.0;0.0;0.0;0.0;0.0;0.0;0.0;0.0;0.0;0.0;675.0;304.0;1024.0;1024.0;1024.0;224.0;1024.0;1024.0;1024.0;1.0;4.0;0.0;0.0;0.0;0.0;0.0;;1970-01-01 00:00:02.178
747.0;753.0;0.0;-1.0;-1.0;-1.0;-1.0;-1.0;100.0;0.0;0.0;0.0;0.0;0.0;0.0;0.0;0.0;0.0;0.0;0.0;0.0;0.0;0.0;372.0;137.0;7.1593;373.399;137.762;0.0;4.0;1.0;0.363415;-1.31707;-2.7507900000000003;0.342785;-1.31312;-2.7477099999999997;0.422813;-0.014156299999999998;0.11300199999999999;1.7094799999999999;0.241856;-0.860605;0.0;0.0;0.0;0.0;0.0;0.0;0.0;0.0;0.0;0.0;675.0;304.0;1024.0;1024.0;1024.0;224.0;1024.0;1024.0;1024.0;1.0;4.0;0.0;0.0;0.0;0.0;0.0;;1970-01-01 00:00:02.189
748.0;754.0;0.0;-1.0;-1.0;-1.0;-1.0;-1.0;100.0;0.0;0.0;0.0;0.0;0.0;0.0;0.0;0.0;0.0;0.0;0.0;0.0;0.0;0.0;371.0;137.0;7.15729;372.195;137.809;0.0;5.0;1.0;0.37049699999999997;-1.31744;-2.75156;0.351099;-1.3144200000000001;-2.74887;0.44455600000000006;-0.0224797;0.0758798;1.78993;0.0631255;-1.25471;0.0;0.0;0.0;0.0;0.0;0.0;0.0;0.0;0.0;0.0;675.0;304.0;1024.0;1024.0;1024.0;224.0;1024.0;1024.0;1024.0;1.0;4.0;0.0;0.0;0.0;0.0;0.0;;1970-01-01 00:00:02.200
748.0;754.0;0.0;-1.0;-1.0;-1.0;-1.0;-1.0;100.0;0.0;0.0;0.0;0.0;0.0;0.0;0.0;0.0;0.0;0.0;0.0;0.0;0.0;0.0;371.0;137.0;7.15729;372.195;137.809;0.0;5.0;1.0;0.37049699999999997;-1.31744;-2.75156;0.351099;-1.3144200000000001;-2.74887;0.44455600000000006;-0.0224797;0.0758798;1.78993;0.0631255;-1.25471;0.0;0.0;0.0;0.0;0.0;0.0;0.0;0.0;0.0;0.0;675.0;304.0;1024.0;1024.0;1024.0;224.0;1024.0;1024.0;1024.0;1.0;4.0;0.0;0.0;0.0;0.0;0.0;;1970-01-01 00:00:02.211
749.0;755.0;0.0;-1.0;-1.0;-1.0;-1.0;-1.0;100.0;0.0;0.0;0.0;0.0;0.0;0.0;0.0;0.0;0.0;0.0;0.0;0.0;0.0;0.0;370.0;138.0;7.03539;371.029;138.153;0.0;6.0;1.0;0.38401799999999997;-1.3457;-2.79466;0.36097399999999996;-1.3238;-2.7626;0.463863;-0.0556396;0.0160217;1.7823900000000001;-0.23385799999999998;-1.69094;0.0;0.0;0.0;0.0;0.0;0.0;0.0;0.0;0.0;0.0;675.0;304.0;1024.0;1024.0;1024.0;224.0;1024.0;1024.0;1024.0;1.0;4.0;0.0;0.0;0.0;0.0;0.0;;1970-01-01 00:00:02.222
750.0;756.0;0.0;-1.0;-1.0;-1.0;-1.0;-1.0;100.0;0.0;0.0;0.0;0.0;0.0;0.0;0.0;0.0;0.0;0.0;0.0;0.0;0.0;0.0;369.0;138.0;7.279839999999999;369.88699999999994;138.389;0.0;7.0;1.0;0.377985;-1.30051;-2.70082;0.366078;-1.31681;-2.7440700000000002;0.480234;-0.0482415;0.0636122;1.8375700000000001;-0.435738;-1.7187700000000001;0.0;0.0;0.0;0.0;0.0;0.0;0.0;0.0;0.0;0.0;675.0;304.0;1024.0;1024.0;1024.0;224.0;1024.0;1024.0;1024.0;1.0;4.0;0.0;0.0;0.0;0.0;0.0;;1970-01-01 00:00:02.233
750.0;756.0;0.0;-1.0;-1.0;-1.0;-1.0;-1.0;100.0;0.0;0.0;0.0;0.0;0.0;0.0;0.0;0.0;0.0;0.0;0.0;0.0;0.0;0.0;369.0;138.0;7.279839999999999;369.88699999999994;138.389;0.0;7.0;1.0;0.377985;-1.30051;-2.70082;0.366078;-1.31681;-2.7440700000000002;0.480234;-0.0482415;0.0636122;1.8375700000000001;-0.435738;-1.7187700000000001;0.0;0.0;0.0;0.0;0.0;0.0;0.0;0.0;0.0;0.0;675.0;304.0;1024.0;1024.0;1024.0;224.0;1024.0;1024.0;1024.0;1.0;4.0;0.0;0.0;0.0;0.0;0.0;;1970-01-01 00:00:02.244
751.0;757.0;0.0;-1.0;-1.0;-1.0;-1.0;-1.0;100.0;0.0;0.0;0.0;0.0;0.0;0.0;0.0;0.0;0.0;0.0;0.0;0.0;0.0;0.0;368.0;139.0;7.083710000000001;368.764;138.86700000000002;0.0;8.0;1.0;0.395503;-1.34191;-2.77105;0.37490500000000004;-1.32434;-2.75216;0.49275699999999995;-0.0997155;-0.012251600000000001;1.7667700000000002;-0.8657090000000001;-2.14505;0.0;0.0;0.0;0.0;0.0;0.0;0.0;0.0;0.0;0.0;675.0;304.0;1024.0;1024.0;1024.0;224.0;1024.0;1024.0;1024.0;1.0;4.0;0.0;0.0;0.0;0.0;0.0;;1970-01-01 00:00:02.255
752.0;758.0;0.0;-1.0;-1.0;-1.0;-1.0;-1.0;100.0;0.0;0.0;0.0;0.0;0.0;0.0;0.0;0.0;0.0;0.0;0.0;0.0;0.0;0.0;368.0;139.0;7.083710000000001;368.218;139.159;1.0;0.0;1.0;0.395503;-1.34191;-2.77105;0.37490500000000004;-1.32434;-2.75216;0.49275699999999995;-0.0997155;-0.012251600000000001;1.7667700000000002;-0.8657090000000001;-2.14505;0.0;0.0;0.0;0.0;0.0;0.0;0.0;0.0;0.0;0.0;675.0;304.0;1024.0;1024.0;1024.0;224.0;1024.0;1024.0;1024.0;1.0;4.0;0.0;0.0;0.0;0.0;0.0;;1970-01-01 00:00:02.266
752.0;758.0;0.0;-1.0;-1.0;-1.0;-1.0;-1.0;100.0;0.0;0.0;0.0;0.0;0.0;0.0;0.0;0.0;0.0;0.0;0.0;0.0;0.0;0.0;368.0;139.0;7.083710000000001;368.218;139.159;1.0;0.0;1.0;0.395503;-1.34191;-2.77105;0.37490500000000004;-1.32434;-2.75216;0.49275699999999995;-0.0997155;-0.012251600000000001;1.7667700000000002;-0.8657090000000001;-2.14505;0.0;0.0;0.0;0.0;0.0;0.0;0.0;0.0;0.0;0.0;675.0;304.0;1024.0;1024.0;1024.0;224.0;1024.0;1024.0;1024.0;1.0;4.0;0.0;0.0;0.0;0.0;0.0;;1970-01-01 00:00:02.277
753.0;759.0;0.0;-1.0;-1.0;-1.0;-1.0;-1.0;100.0;0.0;0.0;0.0;0.0;0.0;0.0;0.0;0.0;0.0;0.0;0.0;0.0;0.0;0.0;368.0;139.0;7.083710000000001;367.67199999999997;139.45;2.0;0.0;1.0;0.395503;-1.34191;-2.77105;0.37490500000000004;-1.32434;-2.75216;0.49275699999999995;-0.0997155;-0.012251600000000001;1.7667700000000002;-0.8657090000000001;-2.14505;0.0;0.0;0.0;0.0;0.0;0.0;0.0;0.0;0.0;0.0;675.0;304.0;1024.0;1024.0;1024.0;224.0;1024.0;1024.0;1024.0;1.0;4.0;0.0;0.0;0.0;0.0;0.0;;1970-01-01 00:00:02.288
754.0;760.0;0.0;-1.0;-1.0;-1.0;-1.0;-1.0;100.0;0.0;0.0;0.0;0.0;0.0;0.0;0.0;0.0;0.0;0.0;0.0;0.0;0.0;0.0;364.0;141.0;6.97457;365.48800000000006;140.433;0.0;1.0;1.0;0.43034300000000003;-1.37386;-2.80518;0.39153699999999997;-1.3392;-2.7680700000000003;0.468117;-0.142999;-0.07223660000000001;1.31495;-1.02359;-2.10763;0.0;0.0;0.0;0.0;0.0;0.0;0.0;0.0;0.0;0.0;675.0;304.0;1024.0;1024.0;1024.0;224.0;1024.0;1024.0;1024.0;1.0;4.0;0.0;0.0;0.0;0.0;0.0;;1970-01-01 00:00:02.299
755.0;761.0;0.0;-1.0;-1.0;-1.0;-1.0;-1.0;100.0;0.0;0.0;0.0;0.0;0.0;0.0;0.0;0.0;0.0;0.0;0.0;0.0;0.0;0.0;362.0;142.0;7.01001;363.54699999999997;141.349;0.0;2.0;1.0;0.44242;-1.37236;-2.7864;0.406802;-1.34915;-2.77357;0.47257;-0.19369;-0.12075599999999999;0.9379639999999999;-1.1517700000000002;-1.9645700000000001;0.0;0.0;0.0;0.0;0.0;0.0;0.0;0.0;0.0;0.0;675.0;304.0;1024.0;1024.0;1024.0;224.0;1024.0;1024.0;1024.0;1.0;4.0;0.0;0.0;0.0;0.0;0.0;;1970-01-01 00:00:02.310
755.0;761.0;0.0;-1.0;-1.0;-1.0;-1.0;-1.0;100.0;0.0;0.0;0.0;0.0;0.0;0.0;0.0;0.0;0.0;0.0;0.0;0.0;0.0;0.0;362.0;142.0;7.01001;363.54699999999997;141.349;0.0;2.0;1.0;0.44242;-1.37236;-2.7864;0.406802;-1.34915;-2.77357;0.47257;-0.19369;-0.12075599999999999;0.9379639999999999;-1.1517700000000002;-1.9645700000000001;0.0;0.0;0.0;0.0;0.0;0.0;0.0;0.0;0.0;0.0;675.0;304.0;1024.0;1024.0;1024.0;224.0;1024.0;1024.0;1024.0;1.0;4.0;0.0;0.0;0.0;0.0;0.0;;1970-01-01 00:00:02.321
756.0;762.0;0.0;-1.0;-1.0;-1.0;-1.0;-1.0;100.0;0.0;0.0;0.0;0.0;0.0;0.0;0.0;0.0;0.0;0.0;0.0;0.0;0.0;0.0;360.0;142.0;7.2220699999999995;361.63699999999994;141.922;0.0;3.0;1.0;0.44326499999999996;-1.33207;-2.70459;0.417741;-1.34402;-2.75287;0.48310200000000003;-0.204877;-0.08444510000000001;0.678204;-1.23725;-1.65884;0.0;0.0;0.0;0.0;0.0;0.0;0.0;0.0;0.0;0.0;675.0;304.0;1024.0;1024.0;1024.0;224.0;1024.0;1024.0;1024.0;1.0;4.0;0.0;0.0;0.0;0.0;0.0;;1970-01-01 00:00:02.332
757.0;763.0;0.0;-1.0;-1.0;-1.0;-1.0;-1.0;100.0;0.0;0.0;0.0;0.0;0.0;0.0;0.0;0.0;0.0;0.0;0.0;0.0;0.0;0.0;360.0;144.0;7.0822899999999995;360.366;142.972;0.0;4.0;1.0;0.452013;-1.36914;-2.74887;0.428022;-1.35156;-2.7516700000000003;0.49063599999999996;-0.206054;-0.017929;0.487097;-1.19277;-1.09697;0.0;0.0;0.0;0.0;0.0;0.0;0.0;0.0;0.0;0.0;675.0;304.0;1024.0;1024.0;1024.0;224.0;1024.0;1024.0;1024.0;1.0;4.0;0.0;0.0;0.0;0.0;0.0;;1970-01-01 00:00:02.343
757.0;763.0;0.0;-1.0;-1.0;-1.0;-1.0;-1.0;100.0;0.0;0.0;0.0;0.0;0.0;0.0;0.0;0.0;0.0;0.0;0.0;0.0;0.0;0.0;360.0;144.0;7.0822899999999995;360.366;142.972;0.0;4.0;1.0;0.452013;-1.36914;-2.74887;0.428022;-1.35156;-2.7516700000000003;0.49063599999999996;-0.206054;-0.017929;0.487097;-1.19277;-1.09697;0.0;0.0;0.0;0.0;0.0;0.0;0.0;0.0;0.0;0.0;675.0;304.0;1024.0;1024.0;1024.0;224.0;1024.0;1024.0;1024.0;1.0;4.0;0.0;0.0;0.0;0.0;0.0;;1970-01-01 00:00:02.354
758.0;764.0;0.0;-1.0;-1.0;-1.0;-1.0;-1.0;100.0;0.0;0.0;0.0;0.0;0.0;0.0;0.0;0.0;0.0;0.0;0.0;0.0;0.0;0.0;358.0;144.0;6.924689999999999;358.845;143.69299999999998;0.0;5.0;1.0;0.476729;-1.40031;-2.81143;0.442634;-1.36618;-2.7696;0.523632;-0.271473;-0.0872163;0.42221400000000003;-1.3841299999999999;-1.10984;0.0;0.0;0.0;0.0;0.0;0.0;0.0;0.0;0.0;0.0;675.0;304.0;1024.0;1024.0;1024.0;224.0;1024.0;1024.0;1024.0;1.0;4.0;0.0;0.0;0.0;0.0;0.0;;1970-01-01 00:00:02.365
759.0;765.0;0.0;-1.0;-1.0;-1.0;-1.0;-1.0;100.0;0.0;0.0;0.0;0.0;0.0;0.0;0.0;0.0;0.0;0.0;0.0;0.0;0.0;0.0;357.0;145.0;7.019889999999999;357.469;144.515;0.0;6.0;1.0;0.47738100000000006;-1.38676;-2.76872;0.453058;-1.37236;-2.76934;0.5482100000000001;-0.30666;-0.10376099999999999;0.419383;-1.45018;-0.939931;0.0;0.0;0.0;0.0;0.0;0.0;0.0;0.0;0.0;0.0;675.0;304.0;1024.0;1024.0;1024.0;224.0;1024.0;1024.0;1024.0;1.0;4.0;0.0;0.0;0.0;0.0;0.0;;1970-01-01 00:00:02.376
759.0;765.0;0.0;-1.0;-1.0;-1.0;-1.0;-1.0;100.0;0.0;0.0;0.0;0.0;0.0;0.0;0.0;0.0;0.0;0.0;0.0;0.0;0.0;0.0;357.0;145.0;7.019889999999999;357.469;144.515;0.0;6.0;1.0;0.47738100000000006;-1.38676;-2.76872;0.453058;-1.37236;-2.76934;0.5482100000000001;-0.30666;-0.10376099999999999;0.419383;-1.45018;-0.939931;0.0;0.0;0.0;0.0;0.0;0.0;0.0;0.0;0.0;0.0;675.0;304.0;1024.0;1024.0;1024.0;224.0;1024.0;1024.0;1024.0;1.0;4.0;0.0;0.0;0.0;0.0;0.0;;1970-01-01 00:00:02.387
760.0;766.0;0.0;-1.0;-1.0;-1.0;-1.0;-1.0;100.0;0.0;0.0;0.0;0.0;0.0;0.0;0.0;0.0;0.0;0.0;0.0;0.0;0.0;0.0;355.0;146.0;7.0175600000000005;355.87;145.409;0.0;7.0;1.0;0.491777;-1.39266;-2.76505;0.464674;-1.37845;-2.76805;0.620939;-0.34070100000000003;-0.062192;0.861799;-1.65947;-0.523854;0.0;0.0;0.0;0.0;0.0;0.0;0.0;0.0;0.0;0.0;675.0;304.0;1024.0;1024.0;1024.0;224.0;1024.0;1024.0;1024.0;1.0;4.0;0.0;0.0;0.0;0.0;0.0;;1970-01-01 00:00:02.398
761.0;767.0;0.0;-1.0;-1.0;-1.0;-1.0;-1.0;100.0;0.0;0.0;0.0;0.0;0.0;0.0;0.0;0.0;0.0;0.0;0.0;0.0;0.0;0.0;354.0;147.0;7.067310000000001;354.431;146.357;0.0;8.0;1.0;0.495384;-1.38826;-2.74103;0.473887;-1.38139;-2.7599400000000003;0.640413;-0.33315500000000003;0.017075299999999998;1.18723;-1.5525200000000001;0.23600500000000002;0.0;0.0;0.0;0.0;0.0;0.0;0.0;0.0;0.0;0.0;675.0;304.0;1024.0;1024.0;1024.0;224.0;1024.0;1024.0;1024.0;1.0;4.0;0.0;0.0;0.0;0.0;0.0;;1970-01-01 00:00:02.409
761.0;767.0;0.0;-1.0;-1.0;-1.0;-1.0;-1.0;100.0;0.0;0.0;0.0;0.0;0.0;0.0;0.0;0.0;0.0;0.0;0.0;0.0;0.0;0.0;354.0;147.0;7.067310000000001;354.431;146.357;0.0;8.0;1.0;0.495384;-1.38826;-2.74103;0.473887;-1.38139;-2.7599400000000003;0.640413;-0.33315500000000003;0.017075299999999998;1.18723;-1.5525200000000001;0.23600500000000002;0.0;0.0;0.0;0.0;0.0;0.0;0.0;0.0;0.0;0.0;675.0;304.0;1024.0;1024.0;1024.0;224.0;1024.0;1024.0;1024.0;1.0;4.0;0.0;0.0;0.0;0.0;0.0;;1970-01-01 00:00:02.420
762.0;768.0;0.0;-1.0;-1.0;-1.0;-1.0;-1.0;100.0;0.0;0.0;0.0;0.0;0.0;0.0;0.0;0.0;0.0;0.0;0.0;0.0;0.0;0.0;354.0;147.0;7.067310000000001;353.56300000000005;146.817;1.0;0.0;1.0;0.495384;-1.38826;-2.74103;0.473887;-1.38139;-2.7599400000000003;0.640413;-0.33315500000000003;0.017075299999999998;1.18723;-1.5525200000000001;0.23600500000000002;0.0;0.0;0.0;0.0;0.0;0.0;0.0;0.0;0.0;0.0;675.0;304.0;1024.0;1024.0;1024.0;224.0;1024.0;1024.0;1024.0;1.0;4.0;0.0;0.0;0.0;0.0;0.0;;1970-01-01 00:00:02.431
763.0;769.0;0.0;-1.0;-1.0;-1.0;-1.0;-1.0;100.0;0.0;0.0;0.0;0.0;0.0;0.0;0.0;0.0;0.0;0.0;0.0;0.0;0.0;0.0;351.333;148.667;6.944439999999999;351.835;147.99200000000002;0.0;1.0;1.0;0.523332;-1.4219899999999999;-2.7818;0.48872;-1.39357;-2.7665;0.627163;-0.36945500000000003;-0.0363933;1.20536;-1.49475;0.306051;0.0;0.0;0.0;0.0;0.0;0.0;0.0;0.0;0.0;0.0;675.0;304.0;1024.0;1024.0;1024.0;224.0;1024.0;1024.0;1024.0;1.0;4.0;0.0;0.0;0.0;0.0;0.0;;1970-01-01 00:00:02.442
763.0;769.0;0.0;-1.0;-1.0;-1.0;-1.0;-1.0;100.0;0.0;0.0;0.0;0.0;0.0;0.0;0.0;0.0;0.0;0.0;0.0;0.0;0.0;0.0;351.333;148.667;6.944439999999999;351.835;147.99200000000002;0.0;1.0;1.0;0.523332;-1.4219899999999999;-2.7818;0.48872;-1.39357;-2.7665;0.627163;-0.36945500000000003;-0.0363933;1.20536;-1.49475;0.306051;0.0;0.0;0.0;0.0;0.0;0.0;0.0;0.0;0.0;0.0;675.0;304.0;1024.0;1024.0;1024.0;224.0;1024.0;1024.0;1024.0;1.0;4.0;0.0;0.0;0.0;0.0;0.0;;1970-01-01 00:00:02.453
764.0;770.0;0.0;-1.0;-1.0;-1.0;-1.0;-1.0;100.0;0.0;0.0;0.0;0.0;0.0;0.0;0.0;0.0;0.0;0.0;0.0;0.0;0.0;0.0;351.333;148.667;6.944439999999999;350.93;148.484;1.0;0.0;1.0;0.523332;-1.4219899999999999;-2.7818;0.48872;-1.39357;-2.7665;0.627163;-0.36945500000000003;-0.0363933;1.20536;-1.49475;0.306051;0.0;0.0;0.0;0.0;0.0;0.0;0.0;0.0;0.0;0.0;675.0;304.0;1024.0;1024.0;1024.0;224.0;1024.0;1024.0;1024.0;1.0;4.0;0.0;0.0;0.0;0.0;0.0;;1970-01-01 00:00:02.464
765.0;771.0;0.0;-1.0;-1.0;-1.0;-1.0;-1.0;100.0;0.0;0.0;0.0;0.0;0.0;0.0;0.0;0.0;0.0;0.0;0.0;0.0;0.0;0.0;348.0;150.0;7.11136;348.80800000000005;149.606;0.0;1.0;1.0;0.534465;-1.3957700000000002;-2.71047;0.502444;-1.3942299999999999;-2.74969;0.599155;-0.349452;-0.0159024;1.04817;-1.32626;0.1897;0.0;0.0;0.0;0.0;0.0;0.0;0.0;0.0;0.0;0.0;675.0;304.0;1024.0;1024.0;1024.0;224.0;1024.0;1024.0;1024.0;1.0;4.0;0.0;0.0;0.0;0.0;0.0;;1970-01-01 00:00:02.475
766.0;772.0;0.0;-1.0;-1.0;-1.0;-1.0;-1.0;100.0;0.0;0.0;0.0;0.0;0.0;0.0;0.0;0.0;0.0;0.0;0.0;0.0;0.0;0.0;347.333;151.333;6.98429;347.31199999999995;150.757;0.0;2.0;1.0;0.5489569999999999;-1.42846;-2.75363;0.5163979999999999;-1.4045;-2.75087;0.580378;-0.324407;0.0465413;0.798832;-0.9542700000000001;0.514358;0.0;0.0;0.0;0.0;0.0;0.0;0.0;0.0;0.0;0.0;675.0;304.0;1024.0;1024.0;1024.0;224.0;1024.0;1024.0;1024.0;1.0;4.0;0.0;0.0;0.0;0.0;0.0;;1970-01-01 00:00:02.486
766.0;772.0;0.0;-1.0;-1.0;-1.0;-1.0;-1.0;100.0;0.0;0.0;0.0;0.0;0.0;0.0;0.0;0.0;0.0;0.0;0.0;0.0;0.0;0.0;347.333;151.333;6.98429;347.31199999999995;150.757;0.0;2.0;1.0;0.5489569999999999;-1.42846;-2.75363;0.5163979999999999;-1.4045;-2.75087;0.580378;-0.324407;0.0465413;0.798832;-0.9542700000000001;0.514358;0.0;0.0;0.0;0.0;0.0;0.0;0.0;0.0;0.0;0.0;675.0;304.0;1024.0;1024.0;1024.0;224.0;1024.0;1024.0;1024.0;1.0;4.0;0.0;0.0;0.0;0.0;0.0;;1970-01-01 00:00:02.497
767.0;773.0;0.0;-1.0;-1.0;-1.0;-1.0;-1.0;100.0;0.0;0.0;0.0;0.0;0.0;0.0;0.0;0.0;0.0;0.0;0.0;0.0;0.0;0.0;346.0;152.0;6.9779800000000005;345.88300000000004;151.72799999999998;0.0;3.0;1.0;0.558999;-1.4334;-2.75304;0.5291779999999999;-1.41317;-2.75152;0.5761689999999999;-0.316861;0.08126599999999999;0.563025;-0.603109;0.862682;0.0;0.0;0.0;0.0;0.0;0.0;0.0;0.0;0.0;0.0;675.0;304.0;1024.0;1024.0;1024.0;224.0;1024.0;1024.0;1024.0;1.0;4.0;0.0;0.0;0.0;0.0;0.0;;1970-01-01 00:00:02.508
768.0;774.0;0.0;-1.0;-1.0;-1.0;-1.0;-1.0;100.0;0.0;0.0;0.0;0.0;0.0;0.0;0.0;0.0;0.0;0.0;0.0;0.0;0.0;0.0;345.333;152.667;6.9850699999999994;344.70300000000003;152.602;0.0;4.0;1.0;0.5632;-1.43559;-2.7471799999999997;0.539385;-1.4199;-2.75022;0.569425;-0.314236;0.102153;0.183554;-0.282615;1.0097399999999999;0.0;0.0;0.0;0.0;0.0;0.0;0.0;0.0;0.0;0.0;675.0;304.0;1024.0;1024.0;1024.0;224.0;1024.0;1024.0;1024.0;1.0;4.0;0.0;0.0;0.0;0.0;0.0;;1970-01-01 00:00:02.519
768.0;774.0;0.0;-1.0;-1.0;-1.0;-1.0;-1.0;100.0;0.0;0.0;0.0;0.0;0.0;0.0;0.0;0.0;0.0;0.0;0.0;0.0;0.0;0.0;345.333;152.667;6.9850699999999994;344.70300000000003;152.602;0.0;4.0;1.0;0.5632;-1.43559;-2.7471799999999997;0.539385;-1.4199;-2.75022;0.569425;-0.314236;0.102153;0.183554;-0.282615;1.0097399999999999;0.0;0.0;0.0;0.0;0.0;0.0;0.0;0.0;0.0;0.0;675.0;304.0;1024.0;1024.0;1024.0;224.0;1024.0;1024.0;1024.0;1.0;4.0;0.0;0.0;0.0;0.0;0.0;;1970-01-01 00:00:02.530
769.0;775.0;0.0;-1.0;-1.0;-1.0;-1.0;-1.0;100.0;0.0;0.0;0.0;0.0;0.0;0.0;0.0;0.0;0.0;0.0;0.0;0.0;0.0;0.0;344.0;153.0;7.09725;343.469;153.308;0.0;5.0;1.0;0.563683;-1.41469;-2.70224;0.546674;-1.4183299999999999;-2.73583;0.5596180000000001;-0.299171;0.133512;-0.13180999999999998;-0.0678023;0.954516;0.0;0.0;0.0;0.0;0.0;0.0;0.0;0.0;0.0;0.0;675.0;304.0;1024.0;1024.0;1024.0;224.0;1024.0;1024.0;1024.0;1.0;4.0;0.0;0.0;0.0;0.0;0.0;;1970-01-01 00:00:02.541
770.0;776.0;0.0;-1.0;-1.0;-1.0;-1.0;-1.0;100.0;0.0;0.0;0.0;0.0;0.0;0.0;0.0;0.0;0.0;0.0;0.0;0.0;0.0;0.0;343.0;154.0;7.06008;342.30199999999996;154.113;0.0;6.0;1.0;0.5737270000000001;-1.42755;-2.71191;0.55479;-1.4211;-2.72865;0.56188;-0.273715;0.20963800000000002;-0.302501;0.28697;1.4147;0.0;0.0;0.0;0.0;0.0;0.0;0.0;0.0;0.0;0.0;675.0;304.0;1024.0;1024.0;1024.0;224.0;1024.0;1024.0;1024.0;1.0;4.0;0.0;0.0;0.0;0.0;0.0;;1970-01-01 00:00:02.552
770.0;776.0;0.0;-1.0;-1.0;-1.0;-1.0;-1.0;100.0;0.0;0.0;0.0;0.0;0.0;0.0;0.0;0.0;0.0;0.0;0.0;0.0;0.0;0.0;343.0;154.0;7.06008;342.30199999999996;154.113;0.0;6.0;1.0;0.5737270000000001;-1.42755;-2.71191;0.55479;-1.4211;-2.72865;0.56188;-0.273715;0.20963800000000002;-0.302501;0.28697;1.4147;0.0;0.0;0.0;0.0;0.0;0.0;0.0;0.0;0.0;0.0;675.0;304.0;1024.0;1024.0;1024.0;224.0;1024.0;1024.0;1024.0;1.0;4.0;0.0;0.0;0.0;0.0;0.0;;1970-01-01 00:00:02.563
771.0;777.0;0.0;-1.0;-1.0;-1.0;-1.0;-1.0;100.0;0.0;0.0;0.0;0.0;0.0;0.0;0.0;0.0;0.0;0.0;0.0;0.0;0.0;0.0;343.0;154.0;7.06008;341.279;154.705;1.0;0.0;1.0;0.5737270000000001;-1.42755;-2.71191;0.55479;-1.4211;-2.72865;0.56188;-0.273715;0.20963800000000002;-0.302501;0.28697;1.4147;0.0;0.0;0.0;0.0;0.0;0.0;0.0;0.0;0.0;0.0;675.0;304.0;1024.0;1024.0;1024.0;224.0;1024.0;1024.0;1024.0;1.0;4.0;0.0;0.0;0.0;0.0;0.0;;1970-01-01 00:00:02.574
772.0;778.0;0.0;-1.0;-1.0;-1.0;-1.0;-1.0;100.0;0.0;0.0;0.0;0.0;0.0;0.0;0.0;0.0;0.0;0.0;0.0;0.0;0.0;0.0;341.0;155.0;7.1348;340.149;155.411;0.0;1.0;1.0;0.5817220000000001;-1.41795;-2.67899;0.56287;-1.42016;-2.71375;0.5439229999999999;-0.252948;0.248768;-0.37051999999999996;0.502446;1.7546;0.0;0.0;0.0;0.0;0.0;0.0;0.0;0.0;0.0;0.0;675.0;304.0;1024.0;1024.0;1024.0;224.0;1024.0;1024.0;1024.0;1.0;4.0;0.0;0.0;0.0;0.0;0.0;;1970-01-01 00:00:02.585
772.0;778.0;0.0;-1.0;-1.0;-1.0;-1.0;-1.0;100.0;0.0;0.0;0.0;0.0;0.0;0.0;0.0;0.0;0.0;0.0;0.0;0.0;0.0;0.0;341.0;155.0;7.1348;340.149;155.411;0.0;1.0;1.0;0.5817220000000001;-1.41795;-2.67899;0.56287;-1.42016;-2.71375;0.5439229999999999;-0.252948;0.248768;-0.37051999999999996;0.502446;1.7546;0.0;0.0;0.0;0.0;0.0;0.0;0.0;0.0;0.0;0.0;675.0;304.0;1024.0;1024.0;1024.0;224.0;1024.0;1024.0;1024.0;1.0;4.0;0.0;0.0;0.0;0.0;0.0;;1970-01-01 00:00:02.596
773.0;779.0;0.0;-1.0;-1.0;-1.0;-1.0;-1.0;100.0;0.0;0.0;0.0;0.0;0.0;0.0;0.0;0.0;0.0;0.0;0.0;0.0;0.0;0.0;340.667;154.667;7.075880000000001;339.30400000000003;155.745;0.0;2.0;1.0;0.588919;-1.4279600000000001;-2.70282;0.570685;-1.4225;-2.71047;0.512141;-0.213364;0.28752;-0.45584300000000005;0.681495;1.87746;0.0;0.0;0.0;0.0;0.0;0.0;0.0;0.0;0.0;0.0;675.0;304.0;1024.0;1024.0;1024.0;224.0;1024.0;1024.0;1024.0;1.0;4.0;0.0;0.0;0.0;0.0;0.0;;1970-01-01 00:00:02.607
774.0;780.0;0.0;-1.0;-1.0;-1.0;-1.0;-1.0;100.0;0.0;0.0;0.0;0.0;0.0;0.0;0.0;0.0;0.0;0.0;0.0;0.0;0.0;0.0;339.333;155.333;7.050089999999999;338.295;156.192;0.0;3.0;1.0;0.600522;-1.4368;-2.70966;0.5796359999999999;-1.42679;-2.71023;0.479965;-0.174623;0.31383099999999997;-0.602744;0.895676;1.92238;0.0;0.0;0.0;0.0;0.0;0.0;0.0;0.0;0.0;0.0;675.0;304.0;1024.0;1024.0;1024.0;224.0;1024.0;1024.0;1024.0;1.0;4.0;0.0;0.0;0.0;0.0;0.0;;1970-01-01 00:00:02.618
774.0;780.0;0.0;-1.0;-1.0;-1.0;-1.0;-1.0;100.0;0.0;0.0;0.0;0.0;0.0;0.0;0.0;0.0;0.0;0.0;0.0;0.0;0.0;0.0;339.333;155.333;7.050089999999999;338.295;156.192;0.0;3.0;1.0;0.600522;-1.4368;-2.70966;0.5796359999999999;-1.42679;-2.71023;0.479965;-0.174623;0.31383099999999997;-0.602744;0.895676;1.92238;0.0;0.0;0.0;0.0;0.0;0.0;0.0;0.0;0.0;0.0;675.0;304.0;1024.0;1024.0;1024.0;224.0;1024.0;1024.0;1024.0;1.0;4.0;0.0;0.0;0.0;0.0;0.0;;1970-01-01 00:00:02.629
775.0;781.0;0.0;-1.0;-1.0;-1.0;-1.0;-1.0;100.0;0.0;0.0;0.0;0.0;0.0;0.0;0.0;0.0;0.0;0.0;0.0;0.0;0.0;0.0;353.0;131.0;11.6175;342.094;148.517;0.0;4.0;1.0;0.305657;-0.7919189999999999;-1.7118;0.305657;-0.7919189999999999;-1.7118;0.0;0.0;0.0;0.0;0.0;0.0;0.0;0.0;0.0;0.0;0.0;0.0;0.0;0.0;0.0;0.0;675.0;580.0;1009.0;1012.0;1024.0;224.0;1024.0;1024.0;1024.0;1.0;4.0;0.0;0.0;0.0;0.0;0.0;;1970-01-01 00:00:02.640
776.0;782.0;0.0;-1.0;-1.0;-1.0;-1.0;-1.0;101.0;0.0;0.0;0.0;0.0;0.0;0.0;0.0;0.0;0.0;0.0;0.0;0.0;0.0;0.0;348.222;132.667;11.6803;343.265;143.615;0.0;5.0;1.0;0.32445100000000004;-0.7931159999999999;-1.6980099999999998;0.311295;-0.7922779999999999;-1.70766;0.0;0.0;0.0;0.0;0.0;0.0;0.0;0.0;0.0;0.0;0.32445100000000004;-0.893116;-1.6980099999999998;0.0;0.0;0.0;675.0;580.0;1006.0;1009.0;1024.0;224.0;1024.0;1024.0;1024.0;1.0;4.0;0.0;0.0;0.0;0.0;0.0;;1970-01-01 00:00:02.651
777.0;783.0;0.0;-1.0;-1.0;-1.0;-1.0;-1.0;102.0;0.0;0.0;0.0;0.0;0.0;0.0;0.0;0.0;0.0;0.0;0.0;0.0;0.0;0.0;343.42900000000003;136.0;11.7468;342.592;141.171;0.0;6.0;1.0;0.343001;-0.7994640000000001;-1.6792599999999998;0.320807;-0.794434;-1.69914;0.0;0.0;0.0;0.0;0.0;0.0;0.0;0.0;0.0;0.0;0.343001;-0.8994639999999999;-1.6792599999999998;0.0;0.0;0.0;675.0;580.0;1003.0;1006.0;1024.0;224.0;1024.0;1024.0;1024.0;1.0;4.0;0.0;0.0;0.0;0.0;0.0;;1970-01-01 00:00:02.662
777.0;783.0;0.0;-1.0;-1.0;-1.0;-1.0;-1.0;102.0;0.0;0.0;0.0;0.0;0.0;0.0;0.0;0.0;0.0;0.0;0.0;0.0;0.0;0.0;343.42900000000003;136.0;11.7468;342.592;141.171;0.0;6.0;1.0;0.343001;-0.7994640000000001;-1.6792599999999998;0.320807;-0.794434;-1.69914;0.0;0.0;0.0;0.0;0.0;0.0;0.0;0.0;0.0;0.0;0.343001;-0.8994639999999999;-1.6792599999999998;0.0;0.0;0.0;675.0;580.0;1003.0;1006.0;1024.0;224.0;1024.0;1024.0;1024.0;1.0;4.0;0.0;0.0;0.0;0.0;0.0;;1970-01-01 00:00:02.673
778.0;784.0;0.0;-1.0;-1.0;-1.0;-1.0;-1.0;103.0;0.0;0.0;0.0;0.0;0.0;0.0;0.0;0.0;0.0;0.0;0.0;0.0;0.0;0.0;340.333;137.667;11.4947;341.14599999999996;139.945;0.0;7.0;1.0;0.36397399999999996;-0.822534;-1.7114200000000002;0.333757;-0.802864;-1.7028299999999998;0.0;0.0;0.0;0.0;0.0;0.0;0.0;0.0;0.0;0.0;0.36397399999999996;-0.922534;-1.7114200000000002;0.0;0.0;0.0;675.0;580.0;1000.0;1011.0;1024.0;224.0;1024.0;1024.0;1024.0;1.0;4.0;0.0;0.0;0.0;0.0;0.0;;1970-01-01 00:00:02.684
779.0;785.0;0.0;-1.0;-1.0;-1.0;-1.0;-1.0;104.0;0.0;0.0;0.0;0.0;0.0;0.0;0.0;0.0;0.0;0.0;0.0;0.0;0.0;0.0;335.75;139.75;11.6065;338.668;139.72899999999998;0.0;8.0;1.0;0.380195;-0.821464;-1.68915;0.34768899999999997;-0.8084439999999999;-1.69872;0.0;0.0;0.0;0.0;0.0;0.0;0.0;0.0;0.0;0.0;0.380195;-0.921464;-1.68915;0.0;0.0;0.0;675.0;580.0;997.0;1008.0;1024.0;224.0;1024.0;1024.0;1024.0;1.0;4.0;0.0;0.0;0.0;0.0;0.0;;1970-01-01 00:00:02.695
779.0;785.0;0.0;-1.0;-1.0;-1.0;-1.0;-1.0;104.0;0.0;0.0;0.0;0.0;0.0;0.0;0.0;0.0;0.0;0.0;0.0;0.0;0.0;0.0;335.75;139.75;11.6065;338.668;139.72899999999998;0.0;8.0;1.0;0.380195;-0.821464;-1.68915;0.34768899999999997;-0.8084439999999999;-1.69872;0.0;0.0;0.0;0.0;0.0;0.0;0.0;0.0;0.0;0.0;0.380195;-0.921464;-1.68915;0.0;0.0;0.0;675.0;580.0;997.0;1008.0;1024.0;224.0;1024.0;1024.0;1024.0;1.0;4.0;0.0;0.0;0.0;0.0;0.0;;1970-01-01 00:00:02.706
780.0;786.0;0.0;-1.0;-1.0;-1.0;-1.0;-1.0;105.0;0.0;0.0;0.0;0.0;0.0;0.0;0.0;0.0;0.0;0.0;0.0;0.0;0.0;0.0;330.0;142.571;11.645999999999999;335.07099999999997;140.48;0.0;9.0;1.0;0.403573;-0.8279350000000001;-1.67563;0.364454;-0.814291;-1.6917900000000001;0.0;0.0;0.0;0.0;0.0;0.0;0.0;0.0;0.0;0.0;0.403573;-0.9279350000000001;-1.67563;0.0;0.0;0.0;675.0;580.0;993.0;1005.0;1024.0;224.0;1024.0;1024.0;1024.0;1.0;4.0;0.0;0.0;0.0;0.0;0.0;;1970-01-01 00:00:02.717
781.0;787.0;0.0;-1.0;-1.0;-1.0;-1.0;-1.0;106.0;0.0;0.0;0.0;0.0;0.0;0.0;0.0;0.0;0.0;0.0;0.0;0.0;0.0;0.0;326.4;145.2;11.4862;331.35400000000004;141.87;0.0;10.0;1.0;0.424845;-0.848193;-1.69157;0.382571;-0.824462;-1.69173;0.0;0.0;0.0;0.0;0.0;0.0;0.0;0.0;0.0;0.0;0.424845;-0.9481930000000001;-1.69157;0.0;0.0;0.0;675.0;1824.0;993.0;1005.0;1024.0;224.0;1024.0;1024.0;1024.0;1.0;4.0;0.0;0.0;0.0;0.0;0.0;;1970-01-01 00:00:02.728
781.0;787.0;0.0;-1.0;-1.0;-1.0;-1.0;-1.0;106.0;0.0;0.0;0.0;0.0;0.0;0.0;0.0;0.0;0.0;0.0;0.0;0.0;0.0;0.0;326.4;145.2;11.4862;331.35400000000004;141.87;0.0;10.0;1.0;0.424845;-0.848193;-1.69157;0.382571;-0.824462;-1.69173;0.0;0.0;0.0;0.0;0.0;0.0;0.0;0.0;0.0;0.0;0.424845;-0.9481930000000001;-1.69157;0.0;0.0;0.0;675.0;1824.0;993.0;1005.0;1024.0;224.0;1024.0;1024.0;1024.0;1.0;4.0;0.0;0.0;0.0;0.0;0.0;;1970-01-01 00:00:02.739
782.0;788.0;0.0;-1.0;-1.0;-1.0;-1.0;-1.0;107.0;0.0;0.0;0.0;0.0;0.0;0.0;0.0;0.0;0.0;0.0;0.0;0.0;0.0;0.0;322.25;146.25;11.5137;327.378;143.217;0.0;11.0;1.0;0.441838;-0.8496530000000001;-1.6845900000000003;0.400351;-0.8320190000000001;-1.6895900000000001;0.8889299999999999;-0.396685;0.180452;5.50265;-3.7449199999999996;-0.671393;0.0;0.0;0.0;0.0;0.441838;-0.9496530000000001;-1.6845900000000003;0.0;0.0;0.0;675.0;1824.0;993.0;1005.0;1024.0;224.0;1024.0;1024.0;1024.0;1.0;4.0;0.0;0.0;0.0;0.0;0.0;;1970-01-01 00:00:02.750
783.0;789.0;0.0;-1.0;-1.0;-1.0;-1.0;-1.0;108.0;0.0;0.0;0.0;0.0;0.0;0.0;0.0;0.0;0.0;0.0;0.0;0.0;0.0;0.0;316.25;149.75;11.5352;322.63;145.311;0.0;12.0;1.0;0.46699700000000005;-0.8596540000000001;-1.6716799999999998;0.42034499999999997;-0.84031;-1.6842099999999998;0.930782;-0.421178;0.167884;4.7434199999999995;-3.4130599999999998;-1.77005;0.0;0.0;0.0;0.0;0.7912279999999999;-0.9596540000000001;-1.60586;0.0;0.0;0.0;675.0;1824.0;993.0;1005.0;1024.0;224.0;1024.0;1024.0;1024.0;1.0;4.0;0.0;0.0;0.0;0.0;0.0;;1970-01-01 00:00:02.761
783.0;789.0;0.0;-1.0;-1.0;-1.0;-1.0;-1.0;108.0;0.0;0.0;0.0;0.0;0.0;0.0;0.0;0.0;0.0;0.0;0.0;0.0;0.0;0.0;316.25;149.75;11.5352;322.63;145.311;0.0;12.0;1.0;0.46699700000000005;-0.8596540000000001;-1.6716799999999998;0.42034499999999997;-0.84031;-1.6842099999999998;0.930782;-0.421178;0.167884;4.7434199999999995;-3.4130599999999998;-1.77005;0.0;0.0;0.0;0.0;0.7912279999999999;-0.9596540000000001;-1.60586;0.0;0.0;0.0;675.0;1824.0;993.0;1005.0;1024.0;224.0;1024.0;1024.0;1024.0;1.0;4.0;0.0;0.0;0.0;0.0;0.0;;1970-01-01 00:00:02.772
784.0;790.0;0.0;-1.0;-1.0;-1.0;-1.0;-1.0;109.0;0.0;0.0;0.0;0.0;0.0;0.0;0.0;0.0;0.0;0.0;0.0;0.0;0.0;0.0;312.0;151.429;11.5443;317.88599999999997;147.364;0.0;13.0;1.0;0.485022;-0.864534;-1.6656799999999998;0.43974799999999997;-0.847577;-1.67865;0.981658;-0.43123100000000003;0.197243;3.6689;-1.75385;0.606038;0.0;0.0;0.0;0.0;0.8339219999999999;-0.964534;-1.60275;0.0;0.0;0.0;675.0;1824.0;993.0;1005.0;1024.0;224.0;1024.0;1024.0;1024.0;1.0;4.0;0.0;0.0;0.0;0.0;0.0;;1970-01-01 00:00:02.783
785.0;791.0;0.0;-1.0;-1.0;-1.0;-1.0;-1.0;110.0;0.0;0.0;0.0;0.0;0.0;0.0;0.0;0.0;0.0;0.0;0.0;0.0;0.0;0.0;308.33299999999997;153.667;11.4585;313.33799999999997;149.561;0.0;14.0;1.0;0.5046390000000001;-0.8784649999999999;-1.67186;0.459215;-0.856843;-1.67662;1.03429;-0.451982;0.20661;2.99947;-1.52255;0.207288;0.0;0.0;0.0;0.0;0.8821889999999999;-0.9784649999999999;-1.5959999999999999;0.0;0.0;0.0;675.0;1824.0;993.0;1005.0;1024.0;224.0;1024.0;1024.0;1024.0;1.0;4.0;0.0;0.0;0.0;0.0;0.0;;1970-01-01 00:00:02.794
785.0;791.0;0.0;-1.0;-1.0;-1.0;-1.0;-1.0;110.0;0.0;0.0;0.0;0.0;0.0;0.0;0.0;0.0;0.0;0.0;0.0;0.0;0.0;0.0;308.33299999999997;153.667;11.4585;313.33799999999997;149.561;0.0;14.0;1.0;0.5046390000000001;-0.8784649999999999;-1.67186;0.459215;-0.856843;-1.67662;1.03429;-0.451982;0.20661;2.99947;-1.52255;0.207288;0.0;0.0;0.0;0.0;0.8821889999999999;-0.9784649999999999;-1.5959999999999999;0.0;0.0;0.0;675.0;1824.0;993.0;1005.0;1024.0;224.0;1024.0;1024.0;1024.0;1.0;4.0;0.0;0.0;0.0;0.0;0.0;;1970-01-01 00:00:02.805
786.0;792.0;0.0;-1.0;-1.0;-1.0;-1.0;-1.0;111.0;0.0;0.0;0.0;0.0;0.0;0.0;0.0;0.0;0.0;0.0;0.0;0.0;0.0;0.0;303.778;155.333;11.4487;308.654;151.67700000000002;0.0;15.0;1.0;0.52495;-0.8847780000000001;-1.66861;0.478936;-0.865224;-1.6742099999999998;1.07766;-0.474546;0.194157;2.09362;-1.41008;-0.757286;0.0;0.0;0.0;0.0;0.9339;-0.984778;-1.58692;0.0;0.0;0.0;675.0;1824.0;993.0;1005.0;1024.0;224.0;1024.0;1024.0;1024.0;1.0;4.0;0.0;0.0;0.0;0.0;0.0;;1970-01-01 00:00:02.816
787.0;793.0;0.0;-1.0;-1.0;-1.0;-1.0;-1.0;112.0;0.0;0.0;0.0;0.0;0.0;0.0;0.0;0.0;0.0;0.0;0.0;0.0;0.0;0.0;298.33299999999997;157.667;11.4912;303.595;153.94299999999998;0.0;16.0;1.0;0.546676;-0.889258;-1.65589;0.499258;-0.872434;-1.66872;1.11249;-0.47626499999999994;0.208362;1.36564;-0.31554;0.36127800000000004;0.0;0.0;0.0;0.0;0.984232;-0.989258;-1.5770600000000001;0.0;0.0;0.0;675.0;1824.0;993.0;1005.0;1024.0;224.0;1024.0;1024.0;1024.0;1.0;4.0;0.0;0.0;0.0;0.0;0.0;;1970-01-01 00:00:02.827
788.0;794.0;0.0;-1.0;-1.0;-1.0;-1.0;-1.0;113.0;0.0;0.0;0.0;0.0;0.0;0.0;0.0;0.0;0.0;0.0;0.0;0.0;0.0;0.0;294.0;159.0;11.4948;298.623;155.994;0.0;17.0;1.0;0.565338;-0.8934110000000001;-1.6516400000000002;0.5190819999999999;-0.878727;-1.6635900000000001;1.14155;-0.472249;0.22879899999999997;1.82802;-0.49102799999999996;0.40980200000000006;0.0;0.0;0.0;0.0;1.02857;-0.993411;-1.5648799999999998;0.0;0.0;0.0;675.0;1824.0;993.0;1005.0;1024.0;224.0;1024.0;1024.0;1024.0;1.0;4.0;0.0;0.0;0.0;0.0;0.0;;1970-01-01 00:00:02.838
788.0;794.0;0.0;-1.0;-1.0;-1.0;-1.0;-1.0;113.0;0.0;0.0;0.0;0.0;0.0;0.0;0.0;0.0;0.0;0.0;0.0;0.0;0.0;0.0;294.0;159.0;11.4948;298.623;155.994;0.0;17.0;1.0;0.565338;-0.8934110000000001;-1.6516400000000002;0.5190819999999999;-0.878727;-1.6635900000000001;1.14155;-0.472249;0.22879899999999997;1.82802;-0.49102799999999996;0.40980200000000006;0.0;0.0;0.0;0.0;1.02857;-0.993411;-1.5648799999999998;0.0;0.0;0.0;675.0;1824.0;993.0;1005.0;1024.0;224.0;1024.0;1024.0;1024.0;1.0;4.0;0.0;0.0;0.0;0.0;0.0;;1970-01-01 00:00:02.849
789.0;795.0;0.0;-1.0;-1.0;-1.0;-1.0;-1.0;114.0;0.0;0.0;0.0;0.0;0.0;0.0;0.0;0.0;0.0;0.0;0.0;0.0;0.0;0.0;290.57099999999997;160.0;11.446;294.01;157.781;0.0;18.0;1.0;0.5827140000000001;-0.900558;-1.6558700000000002;0.538171;-0.8852760000000001;-1.6612799999999999;1.1553799999999999;-0.462887;0.228859;1.99354;-0.461149;0.489335;0.0;0.0;0.0;0.0;1.06908;-1.0005600000000001;-1.55839;0.0;0.0;0.0;675.0;1824.0;489.0;953.0;1024.0;224.0;1024.0;1024.0;1024.0;1.0;4.0;0.0;0.0;0.0;0.0;0.0;;1970-01-01 00:00:02.860
790.0;796.0;0.0;-1.0;-1.0;-1.0;-1.0;-1.0;115.0;0.0;0.0;0.0;0.0;0.0;0.0;0.0;0.0;0.0;0.0;0.0;0.0;0.0;0.0;287.42900000000003;161.143;11.3532;289.754;159.418;0.0;19.0;1.0;0.6013069999999999;-0.911766;-1.6661700000000002;0.5571119999999999;-0.893223;-1.66274;1.16182;-0.459984;0.200843;1.91547;-0.391493;0.30797399999999997;0.0;0.0;0.0;0.0;1.10309;-1.01177;-1.56677;0.0;0.0;0.0;675.0;1824.0;480.0;986.0;1024.0;224.0;1024.0;1024.0;1024.0;1.0;4.0;0.0;0.0;0.0;0.0;0.0;;1970-01-01 00:00:02.871
