ID;RS_ID;insect_log;imLx_drone;imLy_drone;disparity_drone;imLx_pred_drone;imLy_pred_drone;n_frames_lost_drone;n_frames_tracking_drone;foundL_drone;posX_drone;posY_drone;posZ_drone;sposX_drone;sposY_drone;sposZ_drone;svelX_drone;svelY_drone;svelZ_drone;saccX_drone;saccY_drone;saccZ_drone;imLx_insect;imLy_insect;disparity_insect;imLx_pred_insect;imLy_pred_insect;n_frames_lost_insect;n_frames_tracking_insect;foundL_insect;posX_insect;posY_insect;posZ_insect;sposX_insect;sposY_insect;sposZ_insect;svelX_insect;svelY_insect;svelZ_insect;saccX_insect;saccY_insect;saccZ_insect;valid;posErrX;posErrY;posErrZ;velX;velY;velZ;accX;accY;accZ;hoverthrottle;autoThrottle;autoRoll;autoPitch;autoYaw;joyThrottle;joyRoll;joyPitch;joyYaw;joyArmSwitch;joyModeSwitch;joyTakeoffSwitch;dt;velx_sp;vely_sp;velz_sp;Unnamed: 70;time
300.0;303.0;0.0;-1.0;-1.0;-1.0;-1.0;-1.0;100.0;0.0;0.0;0.0;0.0;0.0;0.0;0.0;0.0;0.0;0.0;0.0;0.0;0.0;0.0;471.0;227.0;8.50511;471.0;227.0;0.0;1.0;1.0;-0.280939;-1.30978;-2.12048;-0.280939;-1.30978;-2.12048;0.0;0.0;0.0;0.0;0.0;0.0;0.0;0.0;0.0;0.0;0.0;0.0;0.0;0.0;0.0;0.0;675.0;224.0;1024.0;1024.0;1024.0;224.0;1024.0;1024.0;1024.0;1.0;4.0;0.0;0.0;0.0;0.0;0.0;;1970-01-01 00:00:00.000
301.0;304.0;0.0;-1.0;-1.0;-1.0;-1.0;-1.0;101.0;0.0;0.0;0.0;0.0;0.0;0.0;0.0;0.0;0.0;0.0;0.0;0.0;0.0;0.0;469.0;229.0;8.68713;470.81800000000004;227.18200000000002;0.0;2.0;1.0;-0.26356399999999996;-1.2919100000000001;-2.0697;-0.275727;-1.3044200000000001;-2.10525;0.0;0.0;0.0;0.0;0.0;0.0;0.0;0.0;0.0;0.0;-0.26356399999999996;-1.39191;-2.0697;0.0;0.0;0.0;675.0;650.0;1024.0;1024.0;1024.0;224.0;1024.0;1024.0;1024.0;1.0;4.0;0.0;0.0;0.0;0.0;0.0;;1970-01-01 00:00:00.011
302.0;305.0;0.0;-1.0;-1.0;-1.0;-1.0;-1.0;102.0;0.0;0.0;0.0;0.0;0.0;0.0;0.0;0.0;0.0;0.0;0.0;0.0;0.0;0.0;467.0;230.0;8.51714;470.204;227.635;0.0;3.0;1.0;-0.25710700000000003;-1.32257;-2.10777;-0.27014099999999996;-1.30986;-2.106;0.0;0.0;0.0;0.0;0.0;0.0;0.0;0.0;0.0;0.0;-0.25710700000000003;-1.4225700000000001;-2.10777;0.0;0.0;0.0;675.0;650.0;1024.0;1024.0;1024.0;224.0;1024.0;1024.0;1024.0;1.0;4.0;0.0;0.0;0.0;0.0;0.0;;1970-01-01 00:00:00.022
302.0;305.0;0.0;-1.0;-1.0;-1.0;-1.0;-1.0;102.0;0.0;0.0;0.0;0.0;0.0;0.0;0.0;0.0;0.0;0.0;0.0;0.0;0.0;0.0;467.0;230.0;8.51714;470.204;227.635;0.0;3.0;1.0;-0.25710700000000003;-1.32257;-2.10777;-0.27014099999999996;-1.30986;-2.106;0.0;0.0;0.0;0.0;0.0;0.0;0.0;0.0;0.0;0.0;-0.25710700000000003;-1.4225700000000001;-2.10777;0.0;0.0;0.0;675.0;650.0;1024.0;1024.0;1024.0;224.0;1024.0;1024.0;1024.0;1.0;4.0;0.0;0.0;0.0;0.0;0.0;;1970-01-01 00:00:00.033
303.0;306.0;0.0;-1.0;-1.0;-1.0;-1.0;-1.0;103.0;0.0;0.0;0.0;0.0;0.0;0.0;0.0;0.0;0.0;0.0;0.0;0.0;0.0;0.0;467.0;232.0;8.56991;469.537;228.543;0.0;4.0;1.0;-0.255524;-1.32413;-2.08835;-0.265756;-1.3141399999999999;-2.10071;0.0;0.0;0.0;0.0;0.0;0.0;0.0;0.0;0.0;0.0;-0.255524;-1.42413;-2.08835;0.0;0.0;0.0;675.0;650.0;1024.0;1024.0;1024.0;224.0;1024.0;1024.0;1024.0;1.0;4.0;0.0;0.0;0.0;0.0;0.0;;1970-01-01 00:00:00.044
304.0;307.0;0.0;-1.0;-1.0;-1.0;-1.0;-1.0;104.0;0.0;0.0;0.0;0.0;0.0;0.0;0.0;0.0;0.0;0.0;0.0;0.0;0.0;0.0;464.0;234.0;8.623339999999999;468.22;229.842;0.0;5.0;1.0;-0.23658099999999999;-1.3255700000000001;-2.06901;-0.257004;-1.3175700000000001;-2.0912;0.0;0.0;0.0;0.0;0.0;0.0;0.0;0.0;0.0;0.0;-0.23658099999999999;-1.42557;-2.06901;0.0;0.0;0.0;675.0;650.0;1024.0;1024.0;1024.0;224.0;1024.0;1024.0;1024.0;1.0;4.0;0.0;0.0;0.0;0.0;0.0;;1970-01-01 00:00:00.055
304.0;307.0;0.0;-1.0;-1.0;-1.0;-1.0;-1.0;104.0;0.0;0.0;0.0;0.0;0.0;0.0;0.0;0.0;0.0;0.0;0.0;0.0;0.0;0.0;464.0;234.0;8.623339999999999;468.22;229.842;0.0;5.0;1.0;-0.23658099999999999;-1.3255700000000001;-2.06901;-0.257004;-1.3175700000000001;-2.0912;0.0;0.0;0.0;0.0;0.0;0.0;0.0;0.0;0.0;0.0;-0.23658099999999999;-1.42557;-2.06901;0.0;0.0;0.0;675.0;650.0;1024.0;1024.0;1024.0;224.0;1024.0;1024.0;1024.0;1.0;4.0;0.0;0.0;0.0;0.0;0.0;;1970-01-01 00:00:00.066
305.0;308.0;0.0;-1.0;-1.0;-1.0;-1.0;-1.0;105.0;0.0;0.0;0.0;0.0;0.0;0.0;0.0;0.0;0.0;0.0;0.0;0.0;0.0;0.0;463.0;235.0;8.507;466.879;231.168;0.0;6.0;1.0;-0.23395100000000002;-1.34859;-2.09406;-0.25008800000000003;-1.3268799999999998;-2.09206;0.0;0.0;0.0;0.0;0.0;0.0;0.0;0.0;0.0;0.0;-0.23395100000000002;-1.44859;-2.09406;0.0;0.0;0.0;675.0;650.0;1024.0;1024.0;1024.0;224.0;1024.0;1024.0;1024.0;1.0;4.0;0.0;0.0;0.0;0.0;0.0;;1970-01-01 00:00:00.077
306.0;309.0;0.0;-1.0;-1.0;-1.0;-1.0;-1.0;106.0;0.0;0.0;0.0;0.0;0.0;0.0;0.0;0.0;0.0;0.0;0.0;0.0;0.0;0.0;461.0;238.0;8.99441;465.29699999999997;233.003;0.0;7.0;1.0;-0.210177;-1.2893700000000001;-1.97138;-0.23811500000000002;-1.3156299999999999;-2.05585;0.0;0.0;0.0;0.0;0.0;0.0;0.0;0.0;0.0;0.0;-0.210177;-1.38937;-1.97138;0.0;0.0;0.0;675.0;650.0;1024.0;1024.0;1024.0;224.0;1024.0;1024.0;1024.0;1.0;4.0;0.0;0.0;0.0;0.0;0.0;;1970-01-01 00:00:00.088
306.0;309.0;0.0;-1.0;-1.0;-1.0;-1.0;-1.0;106.0;0.0;0.0;0.0;0.0;0.0;0.0;0.0;0.0;0.0;0.0;0.0;0.0;0.0;0.0;461.0;238.0;8.99441;465.29699999999997;233.003;0.0;7.0;1.0;-0.210177;-1.2893700000000001;-1.97138;-0.23811500000000002;-1.3156299999999999;-2.05585;0.0;0.0;0.0;0.0;0.0;0.0;0.0;0.0;0.0;0.0;-0.210177;-1.38937;-1.97138;0.0;0.0;0.0;675.0;650.0;1024.0;1024.0;1024.0;224.0;1024.0;1024.0;1024.0;1.0;4.0;0.0;0.0;0.0;0.0;0.0;;1970-01-01 00:00:00.099
307.0;310.0;0.0;-1.0;-1.0;-1.0;-1.0;-1.0;107.0;0.0;0.0;0.0;0.0;0.0;0.0;0.0;0.0;0.0;0.0;0.0;0.0;0.0;0.0;459.6;238.8;8.524460000000001;463.711;234.61900000000003;0.0;8.0;1.0;-0.213569;-1.36436;-2.07747;-0.230751;-1.33025;-2.0623400000000003;0.44892299999999996;-0.2578;0.428277;1.36519;-5.77797;-4.8318;0.0;0.0;0.0;0.0;-0.213569;-1.36436;-2.07747;0.0;0.0;0.0;675.0;650.0;1024.0;1024.0;1024.0;224.0;1024.0;1024.0;1024.0;1.0;4.0;0.0;0.0;0.0;0.0;0.0;;1970-01-01 00:00:00.110
308.0;311.0;0.0;-1.0;-1.0;-1.0;-1.0;-1.0;108.0;0.0;0.0;0.0;0.0;0.0;0.0;0.0;0.0;0.0;0.0;0.0;0.0;0.0;0.0;458.0;241.0;8.59795;462.079;236.44;0.0;9.0;1.0;-0.202458;-1.36333;-2.05265;-0.22226300000000002;-1.34017;-2.05943;0.46051000000000003;-0.275685;0.44289700000000004;1.32207;-3.26499;-0.9498840000000001;0.0;0.0;0.0;0.0;-0.156987;-1.59089;-2.18445;0.0;0.0;0.0;675.0;650.0;1024.0;1024.0;1024.0;224.0;1024.0;1024.0;1024.0;1.0;4.0;0.0;0.0;0.0;0.0;0.0;;1970-01-01 00:00:00.121
308.0;311.0;0.0;-1.0;-1.0;-1.0;-1.0;-1.0;108.0;0.0;0.0;0.0;0.0;0.0;0.0;0.0;0.0;0.0;0.0;0.0;0.0;0.0;0.0;458.0;241.0;8.59795;462.079;236.44;0.0;9.0;1.0;-0.202458;-1.36333;-2.05265;-0.22226300000000002;-1.34017;-2.05943;0.46051000000000003;-0.275685;0.44289700000000004;1.32207;-3.26499;-0.9498840000000001;0.0;0.0;0.0;0.0;-0.156987;-1.59089;-2.18445;0.0;0.0;0.0;675.0;650.0;1024.0;1024.0;1024.0;224.0;1024.0;1024.0;1024.0;1.0;4.0;0.0;0.0;0.0;0.0;0.0;;1970-01-01 00:00:00.132
309.0;312.0;0.0;-1.0;-1.0;-1.0;-1.0;-1.0;109.0;0.0;0.0;0.0;0.0;0.0;0.0;0.0;0.0;0.0;0.0;0.0;0.0;0.0;0.0;456.4;243.2;8.52329;460.415;238.41299999999998;0.0;10.0;1.0;-0.194864;-1.38601;-2.06351;-0.21404299999999998;-1.35392;-2.06066;0.48277299999999995;-0.324226;0.425642;1.67229;-2.23;-0.136803;0.0;0.0;0.0;0.0;-0.057402;-1.48601;-1.9313099999999999;0.0;0.0;0.0;675.0;650.0;1024.0;1024.0;1024.0;224.0;1024.0;1024.0;1024.0;1.0;4.0;0.0;0.0;0.0;0.0;0.0;;1970-01-01 00:00:00.143
310.0;313.0;0.0;-1.0;-1.0;-1.0;-1.0;-1.0;110.0;0.0;0.0;0.0;0.0;0.0;0.0;0.0;0.0;0.0;0.0;0.0;0.0;0.0;0.0;455.0;245.0;8.53539;458.786;240.38400000000001;0.0;11.0;1.0;-0.18640299999999999;-1.39281;-2.05477;-0.20575100000000002;-1.3655899999999999;-2.0588900000000003;0.49429300000000004;-0.38624400000000003;0.384378;0.884019;-2.06041;-0.8211120000000001;0.0;0.0;0.0;0.0;-0.038761300000000005;-1.49281;-1.9246;0.0;0.0;0.0;675.0;650.0;1024.0;1024.0;1024.0;224.0;1024.0;1024.0;1024.0;1.0;4.0;0.0;0.0;0.0;0.0;0.0;;1970-01-01 00:00:00.154
310.0;313.0;0.0;-1.0;-1.0;-1.0;-1.0;-1.0;110.0;0.0;0.0;0.0;0.0;0.0;0.0;0.0;0.0;0.0;0.0;0.0;0.0;0.0;0.0;455.0;245.0;8.53539;458.786;240.38400000000001;0.0;11.0;1.0;-0.18640299999999999;-1.39281;-2.05477;-0.20575100000000002;-1.3655899999999999;-2.0588900000000003;0.49429300000000004;-0.38624400000000003;0.384378;0.884019;-2.06041;-0.8211120000000001;0.0;0.0;0.0;0.0;-0.038761300000000005;-1.49281;-1.9246;0.0;0.0;0.0;675.0;650.0;1024.0;1024.0;1024.0;224.0;1024.0;1024.0;1024.0;1.0;4.0;0.0;0.0;0.0;0.0;0.0;;1970-01-01 00:00:00.165
311.0;314.0;0.0;-1.0;-1.0;-1.0;-1.0;-1.0;111.0;0.0;0.0;0.0;0.0;0.0;0.0;0.0;0.0;0.0;0.0;0.0;0.0;0.0;0.0;451.333;247.333;8.73495;456.534;242.507;0.0;12.0;1.0;-0.161198;-1.3721;-2.00045;-0.192385;-1.36754;-2.04136;0.526957;-0.394104;0.433041;0.980742;-0.58518;1.44157;0.0;0.0;0.0;0.0;-0.00699456;-1.4721;-1.88054;0.0;0.0;0.0;675.0;650.0;1024.0;1024.0;1024.0;224.0;1024.0;1024.0;1024.0;1.0;4.0;0.0;0.0;0.0;0.0;0.0;;1970-01-01 00:00:00.176
312.0;315.0;0.0;-1.0;-1.0;-1.0;-1.0;-1.0;112.0;0.0;0.0;0.0;0.0;0.0;0.0;0.0;0.0;0.0;0.0;0.0;0.0;0.0;0.0;449.0;249.0;8.49278;454.20099999999996;244.551;0.0;13.0;1.0;-0.152085;-1.4193799999999999;-2.05208;-0.180295;-1.38309;-2.04457;0.5470229999999999;-0.505832;0.30485300000000004;-0.09052389999999999;-5.061;-6.57477;0.0;0.0;0.0;0.0;0.017382599999999998;-1.51938;-1.91282;0.0;0.0;0.0;675.0;650.0;1024.0;1024.0;1024.0;224.0;1024.0;1024.0;1024.0;1.0;4.0;0.0;0.0;0.0;0.0;0.0;;1970-01-01 00:00:00.187
313.0;316.0;0.0;-1.0;-1.0;-1.0;-1.0;-1.0;113.0;0.0;0.0;0.0;0.0;0.0;0.0;0.0;0.0;0.0;0.0;0.0;0.0;0.0;0.0;447.0;249.0;8.553930000000001;451.904;246.053;0.0;14.0;1.0;-0.13933099999999998;-1.40923;-2.03741;-0.168006;-1.39094;-2.04243;0.578729;-0.5458109999999999;0.262415;0.463945;-4.18651;-4.607080000000001;0.0;0.0;0.0;0.0;0.0402895;-1.5092299999999998;-1.9373099999999999;0.0;0.0;0.0;675.0;650.0;1024.0;1024.0;1024.0;224.0;1024.0;1024.0;1024.0;1.0;4.0;0.0;0.0;0.0;0.0;0.0;;1970-01-01 00:00:00.198
313.0;316.0;0.0;-1.0;-1.0;-1.0;-1.0;-1.0;113.0;0.0;0.0;0.0;0.0;0.0;0.0;0.0;0.0;0.0;0.0;0.0;0.0;0.0;0.0;447.0;249.0;8.553930000000001;451.904;246.053;0.0;14.0;1.0;-0.13933099999999998;-1.40923;-2.03741;-0.168006;-1.39094;-2.04243;0.578729;-0.5458109999999999;0.262415;0.463945;-4.18651;-4.607080000000001;0.0;0.0;0.0;0.0;0.0402895;-1.5092299999999998;-1.9373099999999999;0.0;0.0;0.0;675.0;650.0;1024.0;1024.0;1024.0;224.0;1024.0;1024.0;1024.0;1.0;4.0;0.0;0.0;0.0;0.0;0.0;;1970-01-01 00:00:00.209
314.0;317.0;0.0;-1.0;-1.0;-1.0;-1.0;-1.0;114.0;0.0;0.0;0.0;0.0;0.0;0.0;0.0;0.0;0.0;0.0;0.0;0.0;0.0;0.0;443.0;251.0;8.67572;449.045;247.739;0.0;15.0;1.0;-0.11436800000000001;-1.39904;-2.00245;-0.15191400000000002;-1.39337;-2.03043;0.628109;-0.5398689999999999;0.273235;0.94752;-3.5666800000000003;-3.44164;0.0;0.0;0.0;0.0;0.0800163;-1.49904;-1.91431;0.0;0.0;0.0;675.0;650.0;1024.0;1024.0;1024.0;224.0;1024.0;1024.0;1024.0;1.0;4.0;0.0;0.0;0.0;0.0;0.0;;1970-01-01 00:00:00.220
315.0;318.0;0.0;-1.0;-1.0;-1.0;-1.0;-1.0;115.0;0.0;0.0;0.0;0.0;0.0;0.0;0.0;0.0;0.0;0.0;0.0;0.0;0.0;0.0;440.0;253.0;8.63673;446.064;249.563;0.0;16.0;1.0;-0.0975514;-1.41498;-2.0051;-0.135606;-1.39985;-2.02283;0.690033;-0.507289;0.314958;1.39601;-2.8709;-2.5069;0.0;0.0;0.0;0.0;0.11902599999999999;-1.51498;-1.91088;0.0;0.0;0.0;675.0;650.0;1024.0;1024.0;1024.0;224.0;1024.0;1024.0;1024.0;1.0;4.0;0.0;0.0;0.0;0.0;0.0;;1970-01-01 00:00:00.231
315.0;318.0;0.0;-1.0;-1.0;-1.0;-1.0;-1.0;115.0;0.0;0.0;0.0;0.0;0.0;0.0;0.0;0.0;0.0;0.0;0.0;0.0;0.0;0.0;440.0;253.0;8.63673;446.064;249.563;0.0;16.0;1.0;-0.0975514;-1.41498;-2.0051;-0.135606;-1.39985;-2.02283;0.690033;-0.507289;0.314958;1.39601;-2.8709;-2.5069;0.0;0.0;0.0;0.0;0.11902599999999999;-1.51498;-1.91088;0.0;0.0;0.0;675.0;650.0;1024.0;1024.0;1024.0;224.0;1024.0;1024.0;1024.0;1.0;4.0;0.0;0.0;0.0;0.0;0.0;;1970-01-01 00:00:00.242
316.0;319.0;0.0;-1.0;-1.0;-1.0;-1.0;-1.0;116.0;0.0;0.0;0.0;0.0;0.0;0.0;0.0;0.0;0.0;0.0;0.0;0.0;0.0;0.0;437.0;253.0;8.6006;442.99199999999996;250.894;0.0;17.0;1.0;-0.0805556;-1.4209200000000002;-2.01352;-0.119091;-1.4061700000000001;-2.0200400000000003;0.76002;-0.466404;0.34409;1.8985400000000001;-2.04259;-1.6649900000000002;0.0;0.0;0.0;0.0;0.164949;-1.52092;-1.90146;0.0;0.0;0.0;675.0;650.0;1024.0;1024.0;1024.0;224.0;1024.0;1024.0;1024.0;1.0;4.0;0.0;0.0;0.0;0.0;0.0;;1970-01-01 00:00:00.253
317.0;320.0;0.0;-1.0;-1.0;-1.0;-1.0;-1.0;117.0;0.0;0.0;0.0;0.0;0.0;0.0;0.0;0.0;0.0;0.0;0.0;0.0;0.0;0.0;433.2;254.4;8.64885;439.61300000000006;252.28;0.0;18.0;1.0;-0.0581821;-1.41973;-1.9978200000000002;-0.10081799999999999;-1.41024;-2.01337;0.8216;-0.450313;0.318187;2.3155099999999997;-1.44997;-1.45756;0.0;0.0;0.0;0.0;0.219971;-1.51973;-1.87189;0.0;0.0;0.0;675.0;650.0;1024.0;1024.0;1024.0;224.0;1024.0;1024.0;1024.0;1.0;4.0;0.0;0.0;0.0;0.0;0.0;;1970-01-01 00:00:00.264
317.0;320.0;0.0;-1.0;-1.0;-1.0;-1.0;-1.0;117.0;0.0;0.0;0.0;0.0;0.0;0.0;0.0;0.0;0.0;0.0;0.0;0.0;0.0;0.0;433.2;254.4;8.64885;439.61300000000006;252.28;0.0;18.0;1.0;-0.0581821;-1.41973;-1.9978200000000002;-0.10081799999999999;-1.41024;-2.01337;0.8216;-0.450313;0.318187;2.3155099999999997;-1.44997;-1.45756;0.0;0.0;0.0;0.0;0.219971;-1.51973;-1.87189;0.0;0.0;0.0;675.0;650.0;1024.0;1024.0;1024.0;224.0;1024.0;1024.0;1024.0;1.0;4.0;0.0;0.0;0.0;0.0;0.0;;1970-01-01 00:00:00.275
318.0;321.0;0.0;-1.0;-1.0;-1.0;-1.0;-1.0;118.0;0.0;0.0;0.0;0.0;0.0;0.0;0.0;0.0;0.0;0.0;0.0;0.0;0.0;0.0;429.0;255.0;8.768369999999999;435.88699999999994;253.465;0.0;19.0;1.0;-0.033487199999999995;-1.4032200000000001;-1.9687;-0.0806188;-1.4081299999999999;-1.99997;0.890926;-0.370159;0.36899499999999996;2.76237;-0.32829899999999995;-0.6184430000000001;0.0;0.0;0.0;0.0;0.275503;-1.50322;-1.8490400000000002;0.0;0.0;0.0;675.0;650.0;1024.0;1024.0;1024.0;224.0;1024.0;1024.0;1024.0;1.0;4.0;0.0;0.0;0.0;0.0;0.0;;1970-01-01 00:00:00.286
319.0;322.0;0.0;-1.0;-1.0;-1.0;-1.0;-1.0;119.0;0.0;0.0;0.0;0.0;0.0;0.0;0.0;0.0;0.0;0.0;0.0;0.0;0.0;0.0;427.0;255.0;8.588510000000001;432.57099999999997;254.321;0.0;20.0;1.0;-0.022568400000000002;-1.43261;-2.0099299999999998;-0.06320369999999999;-1.41547;-2.00296;0.9529860000000001;-0.320067;0.378971;3.15167;0.704321;0.0942936;0.0;0.0;0.0;0.0;0.322721;-1.53261;-1.8669200000000001;0.0;0.0;0.0;675.0;650.0;855.0;1129.0;1024.0;224.0;1024.0;1024.0;1024.0;1.0;4.0;0.0;0.0;0.0;0.0;0.0;;1970-01-01 00:00:00.297
319.0;322.0;0.0;-1.0;-1.0;-1.0;-1.0;-1.0;119.0;0.0;0.0;0.0;0.0;0.0;0.0;0.0;0.0;0.0;0.0;0.0;0.0;0.0;0.0;427.0;255.0;8.588510000000001;432.57099999999997;254.321;0.0;20.0;1.0;-0.022568400000000002;-1.43261;-2.0099299999999998;-0.06320369999999999;-1.41547;-2.00296;0.9529860000000001;-0.320067;0.378971;3.15167;0.704321;0.0942936;0.0;0.0;0.0;0.0;0.322721;-1.53261;-1.8669200000000001;0.0;0.0;0.0;675.0;650.0;855.0;1129.0;1024.0;224.0;1024.0;1024.0;1024.0;1.0;4.0;0.0;0.0;0.0;0.0;0.0;;1970-01-01 00:00:00.308
320.0;323.0;0.0;-1.0;-1.0;-1.0;-1.0;-1.0;120.0;0.0;0.0;0.0;0.0;0.0;0.0;0.0;0.0;0.0;0.0;0.0;0.0;0.0;0.0;423.0;255.0;8.70907;428.95099999999996;254.93400000000003;0.0;21.0;1.0;0.000662523;-1.41277;-1.9821099999999998;-0.04404380000000001;-1.41466;-1.9967;1.00247;-0.277075;0.362051;3.3856800000000002;1.4718200000000001;0.411181;0.0;0.0;0.0;0.0;0.380463;-1.5127700000000002;-1.83107;0.0;0.0;0.0;675.0;650.0;852.0;1117.0;1024.0;224.0;1024.0;1024.0;1024.0;1.0;4.0;0.0;0.0;0.0;0.0;0.0;;1970-01-01 00:00:00.319
321.0;324.0;0.0;-1.0;-1.0;-1.0;-1.0;-1.0;121.0;0.0;0.0;0.0;0.0;0.0;0.0;0.0;0.0;0.0;0.0;0.0;0.0;0.0;0.0;419.0;256.0;8.7923;425.10699999999997;255.672;0.0;22.0;1.0;0.0233578;-1.4041299999999999;-1.9602;-0.023823300000000002;-1.4115;-1.98575;1.04778;-0.212773;0.36527;3.4597599999999997;2.05897;0.447585;0.0;0.0;0.0;0.0;0.432895;-1.50413;-1.8123;0.0;0.0;0.0;675.0;650.0;847.0;1104.0;1024.0;224.0;1024.0;1024.0;1024.0;1.0;4.0;0.0;0.0;0.0;0.0;0.0;;1970-01-01 00:00:00.330
321.0;324.0;0.0;-1.0;-1.0;-1.0;-1.0;-1.0;121.0;0.0;0.0;0.0;0.0;0.0;0.0;0.0;0.0;0.0;0.0;0.0;0.0;0.0;0.0;419.0;256.0;8.7923;425.10699999999997;255.672;0.0;22.0;1.0;0.0233578;-1.4041299999999999;-1.9602;-0.023823300000000002;-1.4115;-1.98575;1.04778;-0.212773;0.36527;3.4597599999999997;2.05897;0.447585;0.0;0.0;0.0;0.0;0.432895;-1.50413;-1.8123;0.0;0.0;0.0;675.0;650.0;847.0;1104.0;1024.0;224.0;1024.0;1024.0;1024.0;1.0;4.0;0.0;0.0;0.0;0.0;0.0;;1970-01-01 00:00:00.341
322.0;325.0;0.0;-1.0;-1.0;-1.0;-1.0;-1.0;122.0;0.0;0.0;0.0;0.0;0.0;0.0;0.0;0.0;0.0;0.0;0.0;0.0;0.0;0.0;416.667;255.333;8.84633;421.61300000000006;255.993;0.0;23.0;1.0;0.036376900000000004;-1.39242;-1.9503099999999998;-0.00576326;-1.40578;-1.97512;1.08114;-0.126092;0.398498;3.35795;2.5941;0.485778;0.0;0.0;0.0;0.0;0.47579099999999996;-1.49242;-1.79713;0.0;0.0;0.0;675.0;650.0;848.0;1094.0;1024.0;224.0;1024.0;1024.0;1024.0;1.0;4.0;0.0;0.0;0.0;0.0;0.0;;1970-01-01 00:00:00.352
323.0;326.0;0.0;-1.0;-1.0;-1.0;-1.0;-1.0;123.0;0.0;0.0;0.0;0.0;0.0;0.0;0.0;0.0;0.0;0.0;0.0;0.0;0.0;0.0;413.0;255.0;8.76131;417.967;256.108;0.0;24.0;1.0;0.057613199999999996;-1.40435;-1.97029;0.013249700000000001;-1.40535;-1.97367;1.1041100000000001;-0.0561364;0.397615;3.1427;3.13025;0.60859;0.0;0.0;0.0;0.0;0.522958;-1.50435;-1.79877;0.0;0.0;0.0;675.0;650.0;845.0;1096.0;1024.0;224.0;1024.0;1024.0;1024.0;1.0;4.0;0.0;0.0;0.0;0.0;0.0;;1970-01-01 00:00:00.363
324.0;327.0;0.0;-1.0;-1.0;-1.0;-1.0;-1.0;124.0;0.0;0.0;0.0;0.0;0.0;0.0;0.0;0.0;0.0;0.0;0.0;0.0;0.0;0.0;409.0;255.0;8.874460000000001;414.11;256.176;0.0;25.0;1.0;0.0793701;-1.38644;-1.94517;0.0330858;-1.39968;-1.96512;1.1164399999999999;7.312369999999999e-05;0.377719;2.78599;3.3563300000000003;0.399988;0.0;0.0;0.0;0.0;0.566066;-1.48644;-1.7699;0.0;0.0;0.0;675.0;650.0;845.0;1087.0;1024.0;224.0;1024.0;1024.0;1024.0;1.0;4.0;0.0;0.0;0.0;0.0;0.0;;1970-01-01 00:00:00.374
324.0;327.0;0.0;-1.0;-1.0;-1.0;-1.0;-1.0;124.0;0.0;0.0;0.0;0.0;0.0;0.0;0.0;0.0;0.0;0.0;0.0;0.0;0.0;0.0;409.0;255.0;8.874460000000001;414.11;256.176;0.0;25.0;1.0;0.0793701;-1.38644;-1.94517;0.0330858;-1.39968;-1.96512;1.1164399999999999;7.312369999999999e-05;0.377719;2.78599;3.3563300000000003;0.399988;0.0;0.0;0.0;0.0;0.566066;-1.48644;-1.7699;0.0;0.0;0.0;675.0;650.0;845.0;1087.0;1024.0;224.0;1024.0;1024.0;1024.0;1.0;4.0;0.0;0.0;0.0;0.0;0.0;;1970-01-01 00:00:00.385
325.0;328.0;0.0;-1.0;-1.0;-1.0;-1.0;-1.0;125.0;0.0;0.0;0.0;0.0;0.0;0.0;0.0;0.0;0.0;0.0;0.0;0.0;0.0;0.0;407.333;254.667;8.885689999999999;410.82;256.107;0.0;26.0;1.0;0.0886293;-1.38313;-1.9437400000000002;0.049748900000000006;-1.3947100000000001;-1.95871;1.12069;0.0829027;0.403256;2.34096;3.6221699999999997;0.336921;0.0;0.0;0.0;0.0;0.591179;-1.4831299999999998;-1.77372;0.0;0.0;0.0;675.0;1824.0;845.0;1087.0;1024.0;224.0;1024.0;1024.0;1024.0;1.0;4.0;0.0;0.0;0.0;0.0;0.0;;1970-01-01 00:00:00.396
326.0;329.0;0.0;-1.0;-1.0;-1.0;-1.0;-1.0;126.0;0.0;0.0;0.0;0.0;0.0;0.0;0.0;0.0;0.0;0.0;0.0;0.0;0.0;0.0;405.6;252.8;8.824580000000001;407.93199999999996;255.46099999999998;0.0;27.0;1.0;0.09904439999999999;-1.38392;-1.9630400000000001;0.0645375;-1.3914799999999998;-1.9600099999999998;1.1058;0.142297;0.388419;1.81696;3.84714;0.307397;0.0;0.0;0.0;0.0;0.6153390000000001;-1.4839200000000001;-1.7772599999999998;0.0;0.0;0.0;675.0;1824.0;845.0;1087.0;1024.0;224.0;1024.0;1024.0;1024.0;1.0;4.0;0.0;0.0;0.0;0.0;0.0;;1970-01-01 00:00:00.407
326.0;329.0;0.0;-1.0;-1.0;-1.0;-1.0;-1.0;126.0;0.0;0.0;0.0;0.0;0.0;0.0;0.0;0.0;0.0;0.0;0.0;0.0;0.0;0.0;405.6;252.8;8.824580000000001;407.93199999999996;255.46099999999998;0.0;27.0;1.0;0.09904439999999999;-1.38392;-1.9630400000000001;0.0645375;-1.3914799999999998;-1.9600099999999998;1.1058;0.142297;0.388419;1.81696;3.84714;0.307397;0.0;0.0;0.0;0.0;0.6153390000000001;-1.4839200000000001;-1.7772599999999998;0.0;0.0;0.0;675.0;1824.0;845.0;1087.0;1024.0;224.0;1024.0;1024.0;1024.0;1.0;4.0;0.0;0.0;0.0;0.0;0.0;;1970-01-01 00:00:00.418
327.0;330.0;0.0;-1.0;-1.0;-1.0;-1.0;-1.0;127.0;0.0;0.0;0.0;0.0;0.0;0.0;0.0;0.0;0.0;0.0;0.0;0.0;0.0;0.0;404.0;251.0;8.87918;405.38;254.415;0.0;28.0;1.0;0.107427;-1.3669799999999999;-1.9565599999999999;0.0774044;-1.3841299999999999;-1.95897;1.06751;0.194651;0.339938;1.1689;3.9344300000000003;0.0833289;0.0;0.0;0.0;0.0;0.627322;-1.46698;-1.77394;0.0;0.0;0.0;675.0;1824.0;845.0;1087.0;1024.0;224.0;1024.0;1024.0;1024.0;1.0;4.0;0.0;0.0;0.0;0.0;0.0;;1970-01-01 00:00:00.429
328.0;331.0;0.0;-1.0;-1.0;-1.0;-1.0;-1.0;128.0;0.0;0.0;0.0;0.0;0.0;0.0;0.0;0.0;0.0;0.0;0.0;0.0;0.0;0.0;402.667;249.333;8.80519;403.159;253.11900000000003;0.0;29.0;1.0;0.11588599999999999;-1.37059;-1.97823;0.0889489;-1.3800700000000001;-1.96475;1.01853;0.219415;0.24535900000000002;0.45144799999999996;3.7396800000000003;-0.561229;0.0;0.0;0.0;0.0;0.62653;-1.47059;-1.81562;0.0;0.0;0.0;675.0;1824.0;845.0;1087.0;1024.0;224.0;1024.0;1024.0;1024.0;1.0;4.0;0.0;0.0;0.0;0.0;0.0;;1970-01-01 00:00:00.440
328.0;331.0;0.0;-1.0;-1.0;-1.0;-1.0;-1.0;128.0;0.0;0.0;0.0;0.0;0.0;0.0;0.0;0.0;0.0;0.0;0.0;0.0;0.0;0.0;402.667;249.333;8.80519;403.159;253.11900000000003;0.0;29.0;1.0;0.11588599999999999;-1.37059;-1.97823;0.0889489;-1.3800700000000001;-1.96475;1.01853;0.219415;0.24535900000000002;0.45144799999999996;3.7396800000000003;-0.561229;0.0;0.0;0.0;0.0;0.62653;-1.47059;-1.81562;0.0;0.0;0.0;675.0;1824.0;845.0;1087.0;1024.0;224.0;1024.0;1024.0;1024.0;1.0;4.0;0.0;0.0;0.0;0.0;0.0;;1970-01-01 00:00:00.451
329.0;332.0;0.0;-1.0;-1.0;-1.0;-1.0;-1.0;129.0;0.0;0.0;0.0;0.0;0.0;0.0;0.0;0.0;0.0;0.0;0.0;0.0;0.0;0.0;401.0;248.0;8.8482;401.07599999999996;251.747;0.0;30.0;1.0;0.124722;-1.3576700000000002;-1.9727700000000001;0.0996808;-1.37335;-1.96715;0.9560879999999999;0.259382;0.173221;-0.319919;3.50313;-1.2323600000000001;0.0;0.0;0.0;0.0;0.6194270000000001;-1.45767;-1.8536;0.0;0.0;0.0;675.0;1824.0;845.0;1087.0;1024.0;224.0;1024.0;1024.0;1024.0;1.0;4.0;0.0;0.0;0.0;0.0;0.0;;1970-01-01 00:00:00.462
330.0;333.0;0.0;-1.0;-1.0;-1.0;-1.0;-1.0;130.0;0.0;0.0;0.0;0.0;0.0;0.0;0.0;0.0;0.0;0.0;0.0;0.0;0.0;0.0;400.667;245.333;8.85419;399.514;249.90400000000002;0.0;31.0;1.0;0.12651600000000002;-1.34423;-1.97975;0.107731;-1.36461;-1.9709299999999998;0.871584;0.295592;0.0807324;-1.16923;3.2813800000000004;-1.92477;0.0;0.0;0.0;0.0;0.598164;-1.44423;-1.8942900000000003;0.0;0.0;0.0;675.0;1824.0;845.0;1087.0;1024.0;224.0;1024.0;1024.0;1024.0;1.0;4.0;0.0;0.0;0.0;0.0;0.0;;1970-01-01 00:00:00.473
330.0;333.0;0.0;-1.0;-1.0;-1.0;-1.0;-1.0;130.0;0.0;0.0;0.0;0.0;0.0;0.0;0.0;0.0;0.0;0.0;0.0;0.0;0.0;0.0;400.667;245.333;8.85419;399.514;249.90400000000002;0.0;31.0;1.0;0.12651600000000002;-1.34423;-1.97975;0.107731;-1.36461;-1.9709299999999998;0.871584;0.295592;0.0807324;-1.16923;3.2813800000000004;-1.92477;0.0;0.0;0.0;0.0;0.598164;-1.44423;-1.8942900000000003;0.0;0.0;0.0;675.0;1824.0;845.0;1087.0;1024.0;224.0;1024.0;1024.0;1024.0;1.0;4.0;0.0;0.0;0.0;0.0;0.0;;1970-01-01 00:00:00.484
331.0;334.0;0.0;-1.0;-1.0;-1.0;-1.0;-1.0;131.0;0.0;0.0;0.0;0.0;0.0;0.0;0.0;0.0;0.0;0.0;0.0;0.0;0.0;0.0;401.0;244.0;8.56837;398.541;248.138;0.0;32.0;1.0;0.128795;-1.3826;-2.05008;0.114051;-1.37001;-1.99468;0.779678;0.276;-0.09517130000000001;-2.06305;2.73978;-3.14485;0.0;0.0;0.0;0.0;0.564483;-1.4826;-2.00972;0.0;0.0;0.0;675.0;1824.0;845.0;1087.0;1024.0;224.0;1024.0;1024.0;1024.0;1.0;4.0;0.0;0.0;0.0;0.0;0.0;;1970-01-01 00:00:00.495
332.0;335.0;0.0;-1.0;-1.0;-1.0;-1.0;-1.0;132.0;0.0;0.0;0.0;0.0;0.0;0.0;0.0;0.0;0.0;0.0;0.0;0.0;0.0;0.0;400.0;242.0;8.570269999999999;397.58;246.222;0.0;33.0;1.0;0.13458900000000001;-1.37259;-2.05606;0.12021199999999999;-1.3707799999999999;-2.01309;0.69009;0.248219;-0.269049;-2.89755;2.06677;-4.511880000000001;0.0;0.0;0.0;0.0;0.529778;-1.47259;-2.1043;0.0;0.0;0.0;675.0;1824.0;845.0;1087.0;1024.0;224.0;1024.0;1024.0;1024.0;1.0;4.0;0.0;0.0;0.0;0.0;0.0;;1970-01-01 00:00:00.506
332.0;335.0;0.0;-1.0;-1.0;-1.0;-1.0;-1.0;132.0;0.0;0.0;0.0;0.0;0.0;0.0;0.0;0.0;0.0;0.0;0.0;0.0;0.0;0.0;400.0;242.0;8.570269999999999;397.58;246.222;0.0;33.0;1.0;0.13458900000000001;-1.37259;-2.05606;0.12021199999999999;-1.3707799999999999;-2.01309;0.69009;0.248219;-0.269049;-2.89755;2.06677;-4.511880000000001;0.0;0.0;0.0;0.0;0.529778;-1.47259;-2.1043;0.0;0.0;0.0;675.0;1824.0;845.0;1087.0;1024.0;224.0;1024.0;1024.0;1024.0;1.0;4.0;0.0;0.0;0.0;0.0;0.0;;1970-01-01 00:00:00.517
333.0;336.0;0.0;-1.0;-1.0;-1.0;-1.0;-1.0;133.0;0.0;0.0;0.0;0.0;0.0;0.0;0.0;0.0;0.0;0.0;0.0;0.0;0.0;0.0;400.0;239.0;8.485660000000001;396.939;243.88400000000001;0.0;34.0;1.0;0.135931;-1.37158;-2.08632;0.124928;-1.3710200000000001;-2.0350599999999996;0.603793;0.201256;-0.465211;-3.5899300000000003;1.26643;-5.92172;0.0;0.0;0.0;0.0;0.491997;-1.4715799999999999;-2.22514;0.0;0.0;0.0;675.0;650.0;845.0;1087.0;1024.0;224.0;1024.0;1024.0;1024.0;1.0;4.0;0.0;0.0;0.0;0.0;0.0;;1970-01-01 00:00:00.528
334.0;337.0;0.0;-1.0;-1.0;-1.0;-1.0;-1.0;134.0;0.0;0.0;0.0;0.0;0.0;0.0;0.0;0.0;0.0;0.0;0.0;0.0;0.0;0.0;399.333;236.667;8.48665;396.32300000000004;241.452;0.0;35.0;1.0;0.139835;-1.35999;-2.09366;0.1294;-1.36771;-2.0526400000000002;0.523778;0.170087;-0.6300399999999999;-4.12927;0.562918;-7.0481;0.0;0.0;0.0;0.0;0.457821;-1.45999;-2.33867;0.0;0.0;0.0;675.0;650.0;845.0;1087.0;1024.0;224.0;1024.0;1024.0;1024.0;1.0;4.0;0.0;0.0;0.0;0.0;0.0;;1970-01-01 00:00:00.539
335.0;338.0;0.0;-1.0;-1.0;-1.0;-1.0;-1.0;135.0;0.0;0.0;0.0;0.0;0.0;0.0;0.0;0.0;0.0;0.0;0.0;0.0;0.0;0.0;400.0;234.0;8.43838;396.14300000000003;238.851;0.0;36.0;1.0;0.136693;-1.35463;-2.11436;0.131588;-1.36378;-2.07116;0.44165699999999997;0.14023;-0.793255;-4.53145;-0.13797;-8.08756;0.0;0.0;0.0;0.0;0.41880600000000007;-1.4546299999999999;-2.45371;0.0;0.0;0.0;675.0;650.0;845.0;1087.0;1024.0;224.0;1024.0;1024.0;1024.0;1.0;4.0;0.0;0.0;0.0;0.0;0.0;;1970-01-01 00:00:00.550
335.0;338.0;0.0;-1.0;-1.0;-1.0;-1.0;-1.0;135.0;0.0;0.0;0.0;0.0;0.0;0.0;0.0;0.0;0.0;0.0;0.0;0.0;0.0;0.0;400.0;234.0;8.43838;396.14300000000003;238.851;0.0;36.0;1.0;0.136693;-1.35463;-2.11436;0.131588;-1.36378;-2.07116;0.44165699999999997;0.14023;-0.793255;-4.53145;-0.13797;-8.08756;0.0;0.0;0.0;0.0;0.41880600000000007;-1.4546299999999999;-2.45371;0.0;0.0;0.0;675.0;650.0;845.0;1087.0;1024.0;224.0;1024.0;1024.0;1024.0;1.0;4.0;0.0;0.0;0.0;0.0;0.0;;1970-01-01 00:00:00.561
336.0;339.0;0.0;448.444;357.778;9.42779;448.444;357.778;0.0;1.0;1.0;-0.13406099999999999;-1.75832;-1.53019;-0.13406099999999999;-1.75832;-1.53019;0.0;0.0;0.0;0.0;0.0;0.0;401.0;232.0;8.4622;396.385;236.34;0.0;37.0;1.0;0.130411;-1.34099;-2.1149299999999998;0.131235;-1.35694;-2.08429;0.35883200000000004;0.114745;-0.928532;-4.7660599999999995;-0.804822;-8.882060000000001;1.0;0.0;0.0;0.0;0.373668;-1.44099;-2.5518400000000003;0.0;0.0;0.0;647.851;650.0;845.0;1087.0;1024.0;224.0;1024.0;1024.0;1024.0;1.0;4.0;0.0;5.6608;0.0;0.0;0.0;;1970-01-01 00:00:00.572
337.0;340.0;0.0;438.18199999999996;351.0;9.43552;447.51199999999994;357.162;0.0;2.0;1.0;-0.0796776;-1.72701;-1.54875;-0.117746;-1.7489299999999999;-1.53576;0.0;0.0;0.0;0.0;0.0;0.0;401.0;229.0;8.360610000000001;396.615;233.582;0.0;38.0;1.0;0.131996;-1.34236;-2.15053;0.13146300000000002;-1.35257;-2.10416;0.284819;0.138466;-0.994238;-4.835380000000001;-1.032;-8.9188;1.0;0.0;0.0;0.0;0.16927999999999999;-1.44236;-2.24701;0.0;0.0;0.0;647.851;650.0;845.0;1087.0;1024.0;224.0;1024.0;1024.0;1024.0;1.0;4.0;0.0;0.0166982;0.0;0.0;0.0;;1970-01-01 00:00:00.583
337.0;340.0;0.0;438.18199999999996;351.0;9.43552;447.51199999999994;357.162;0.0;2.0;1.0;-0.0796776;-1.72701;-1.54875;-0.117746;-1.7489299999999999;-1.53576;0.0;0.0;0.0;0.0;0.0;0.0;401.0;229.0;8.360610000000001;396.615;233.582;0.0;38.0;1.0;0.131996;-1.34236;-2.15053;0.13146300000000002;-1.35257;-2.10416;0.284819;0.138466;-0.994238;-4.835380000000001;-1.032;-8.9188;1.0;0.0;0.0;0.0;0.16927999999999999;-1.44236;-2.24701;0.0;0.0;0.0;647.851;650.0;845.0;1087.0;1024.0;224.0;1024.0;1024.0;1024.0;1.0;4.0;0.0;0.0166982;0.0;0.0;0.0;;1970-01-01 00:00:00.594
338.0;341.0;0.0;431.68;347.04;9.432310000000001;444.967;355.535;0.0;3.0;1.0;-0.045308;-1.7101400000000002;-1.56087;-0.0960148;-1.7372900000000002;-1.54329;0.0;0.0;0.0;0.0;0.0;0.0;403.0;225.0;8.207469999999999;397.467;230.333;0.0;39.0;1.0;0.122299;-1.34715;-2.2041;0.12871400000000002;-1.35094;-2.13414;0.204835;0.16228800000000002;-1.07984;-4.83863;-0.9622870000000001;-8.588410000000001;1.0;0.0;0.0;0.0;0.152698;-1.44715;-2.31022;0.0;0.0;0.0;647.851;650.0;845.0;1087.0;1024.0;224.0;1024.0;1024.0;1024.0;1.0;4.0;0.0;0.016697299999999998;0.0;0.0;0.0;;1970-01-01 00:00:00.605
339.0;342.0;0.0;424.8;343.04;9.38963;440.77;352.934;0.0;4.0;1.0;-0.00895126;-1.7002099999999998;-1.57972;-0.0698957;-1.72617;-1.5542200000000002;0.0;0.0;0.0;0.0;0.0;0.0;403.333;221.333;8.07809;398.24199999999996;226.83599999999998;0.0;40.0;1.0;0.122199;-1.34985;-2.2519299999999998;0.12675899999999998;-1.3506200000000002;-2.16948;0.13021300000000002;0.178839;-1.18458;-4.79396;-0.666875;-8.025160000000001;1.0;0.0;0.0;0.0;0.144814;-1.44985;-2.37115;0.0;0.0;0.0;647.851;650.0;1024.0;1024.0;1024.0;224.0;1024.0;1024.0;1024.0;1.0;4.0;0.0;0.0166982;0.0;0.0;0.0;;1970-01-01 00:00:00.616
339.0;342.0;0.0;424.8;343.04;9.38963;440.77;352.934;0.0;4.0;1.0;-0.00895126;-1.7002099999999998;-1.57972;-0.0698957;-1.72617;-1.5542200000000002;0.0;0.0;0.0;0.0;0.0;0.0;403.333;221.333;8.07809;398.24199999999996;226.83599999999998;0.0;40.0;1.0;0.122199;-1.34985;-2.2519299999999998;0.12675899999999998;-1.3506200000000002;-2.16948;0.13021300000000002;0.178839;-1.18458;-4.79396;-0.666875;-8.025160000000001;1.0;0.0;0.0;0.0;0.144814;-1.44985;-2.37115;0.0;0.0;0.0;647.851;650.0;1024.0;1024.0;1024.0;224.0;1024.0;1024.0;1024.0;1.0;4.0;0.0;0.0166982;0.0;0.0;0.0;;1970-01-01 00:00:00.627
340.0;343.0;0.0;417.778;338.963;9.41954;435.295;349.60699999999997;0.0;5.0;1.0;0.0282772;-1.67681;-1.58664;-0.0404438;-1.7113599999999998;-1.56395;0.0;0.0;0.0;0.0;0.0;0.0;404.8;218.4;8.057039999999999;399.315;223.396;0.0;41.0;1.0;0.113434;-1.3382399999999999;-2.2678599999999998;0.12276199999999998;-1.3469;-2.1989900000000002;0.051624800000000005;0.190375;-1.29506;-4.76147;-0.319125;-7.47023;1.0;0.0;0.0;0.0;0.128157;-1.43824;-2.40179;0.0;0.0;0.0;647.851;650.0;1362.0;1288.0;1024.0;224.0;1024.0;1024.0;1024.0;1.0;4.0;0.0;0.016697299999999998;0.0;0.0;0.0;;1970-01-01 00:00:00.638
341.0;344.0;0.0;410.667;334.667;9.45054;428.968;345.769;0.0;6.0;1.0;0.06573179999999999;-1.65241;-1.59398;-0.00859115;-1.6936799999999999;-1.5729600000000001;0.0;0.0;0.0;0.0;0.0;0.0;407.0;215.0;8.0137;400.834;219.854;0.0;42.0;1.0;0.10034900000000001;-1.32784;-2.29183;0.11603800000000002;-1.3411799999999998;-2.22684;-0.0311084;0.204459;-1.3986299999999998;-4.74442;0.06496299999999999;-6.89913;1.0;-0.114999;-0.265836;0.870873;0.10640799999999999;-1.42784;-2.4438299999999997;-2.19722;-4.83821;-2.19722;647.851;766.0;1063.0;1224.0;1024.0;224.0;1024.0;1024.0;1024.0;1.0;4.0;0.0;0.0166985;-0.344997;-0.37217;2.17718;;1970-01-01 00:00:00.649
341.0;344.0;0.0;410.667;334.667;9.45054;428.968;345.769;0.0;6.0;1.0;0.06573179999999999;-1.65241;-1.59398;-0.00859115;-1.6936799999999999;-1.5729600000000001;0.0;0.0;0.0;0.0;0.0;0.0;407.0;215.0;8.0137;400.834;219.854;0.0;42.0;1.0;0.10034900000000001;-1.32784;-2.29183;0.11603800000000002;-1.3411799999999998;-2.22684;-0.0311084;0.204459;-1.3986299999999998;-4.74442;0.06496299999999999;-6.89913;1.0;-0.114999;-0.265836;0.870873;0.10640799999999999;-1.42784;-2.4438299999999997;-2.19722;-4.83821;-2.19722;647.851;766.0;1063.0;1224.0;1024.0;224.0;1024.0;1024.0;1024.0;1.0;4.0;0.0;0.0166985;-0.344997;-0.37217;2.17718;;1970-01-01 00:00:00.660
342.0;345.0;0.0;403.037;330.815;9.41513;421.98699999999997;341.74;0.0;7.0;1.0;0.10641600000000001;-1.64162;-1.61127;0.025910900000000004;-1.6780599999999999;-1.58445;0.0;0.0;0.0;0.0;0.0;0.0;407.6;210.8;7.94905;402.166;215.989;0.0;43.0;1.0;0.09739860000000002;-1.31667;-2.32505;0.110446;-1.3338299999999998;-2.25631;-0.101664;0.214961;-1.52597;-4.6852;0.43909499999999996;-6.524780000000001;1.0;-0.06766160000000002;-0.261386;0.912624;0.0935725;-1.41667;-2.49707;-0.709244;-4.757219999999999;-0.709244;647.851;765.0;1086.0;1224.0;1024.0;224.0;1024.0;1024.0;1024.0;1.0;4.0;0.0;0.016697299999999998;-0.202985;-0.36594;2.28156;;1970-01-01 00:00:00.671
343.0;346.0;0.0;395.037;326.815;9.40576;414.49199999999996;337.583;0.0;8.0;1.0;0.148963;-1.6255700000000002;-1.62461;0.0628267;-1.66231;-1.5965;1.80236;0.864527;-0.606268;8.23767;3.01536;-2.72167;408.0;208.0;7.998189999999999;403.295;212.338;0.0;44.0;1.0;0.0943046;-1.29403;-2.32042;0.10560399999999999;-1.32189;-2.2755400000000003;-0.164243;0.251471;-1.5998299999999999;-4.604019999999999;0.714635;-6.332730000000001;1.0;-0.019960299999999997;-0.268286;0.896806;0.0827869;-1.3940299999999999;-2.4933;13.3471;6.35605;13.3471;647.851;581.0;1223.0;1224.0;1024.0;224.0;1024.0;1024.0;1024.0;1.0;4.0;0.0;0.0166982;-0.059880899999999994;-0.3756;2.24201;;1970-01-01 00:00:00.682
343.0;346.0;0.0;395.037;326.815;9.40576;414.49199999999996;337.583;0.0;8.0;1.0;0.148963;-1.6255700000000002;-1.62461;0.0628267;-1.66231;-1.5965;1.80236;0.864527;-0.606268;8.23767;3.01536;-2.72167;408.0;208.0;7.998189999999999;403.295;212.338;0.0;44.0;1.0;0.0943046;-1.29403;-2.32042;0.10560399999999999;-1.32189;-2.2755400000000003;-0.164243;0.251471;-1.5998299999999999;-4.604019999999999;0.714635;-6.332730000000001;1.0;-0.019960299999999997;-0.268286;0.896806;0.0827869;-1.3940299999999999;-2.4933;13.3471;6.35605;13.3471;647.851;581.0;1223.0;1224.0;1024.0;224.0;1024.0;1024.0;1024.0;1.0;4.0;0.0;0.0166982;-0.059880899999999994;-0.3756;2.24201;;1970-01-01 00:00:00.693
344.0;347.0;0.0;387.037;322.815;9.44139;406.652;333.356;0.0;9.0;1.0;0.190683;-1.60182;-1.6301700000000001;0.10118400000000001;-1.6441599999999998;-1.6066;1.86874;0.8905280000000001;-0.616521;7.20735;2.5827;-2.29331;409.333;204.667;7.94441;404.56800000000004;208.679;0.0;45.0;1.0;0.08656810000000001;-1.28534;-2.3477099999999997;0.099893;-1.31092;-2.29719;-0.213614;0.310657;-1.6108799999999999;-4.43309;1.02115;-5.91984;1.0;0.0337966;-0.258823;0.92795;0.06738689999999999;-1.38534;-2.53455;15.2862;6.866280000000001;15.2862;647.851;580.0;1223.0;1224.0;1024.0;224.0;1024.0;1024.0;1024.0;1.0;4.0;0.0;0.016697299999999998;0.10139;-0.362352;2.31988;;1970-01-01 00:00:00.704
345.0;348.0;0.0;379.034;318.552;9.43562;398.57300000000004;329.01599999999996;0.0;10.0;1.0;0.233121;-1.58402;-1.64363;0.140765;-1.62612;-1.61771;1.96232;0.9337540000000001;-0.623398;5.9139800000000005;2.61761;-1.25207;410.0;201.0;7.96232;405.731;204.91299999999998;0.0;46.0;1.0;0.0821955;-1.26331;-2.35514;0.09458369999999999;-1.29664;-2.31458;-0.256631;0.401898;-1.5458399999999999;-4.20434;1.50326;-4.9942400000000005;1.0;0.0833831;-0.262815;0.9245549999999999;0.057381600000000005;-1.36331;-2.5422599999999997;17.2837;7.355569999999999;17.2837;647.851;573.0;1223.0;1224.0;1024.0;224.0;1024.0;1024.0;1024.0;1.0;4.0;0.0;0.0166982;0.25014899999999995;-0.36794;2.3113900000000003;;1970-01-01 00:00:00.715
346.0;349.0;0.0;370.5;313.938;9.28876;390.171;324.493;0.0;11.0;1.0;0.282654;-1.58841;-1.6833200000000001;0.183332;-1.61481;-1.63739;2.07082;0.9457459999999999;-0.667279;4.77389;1.80615;-1.08938;411.0;199.0;7.85533;406.917;201.60299999999998;0.0;47.0;1.0;0.0769626;-1.26993;-2.39424;0.0892974;-1.28863;-2.33848;-0.287586;0.47381599999999996;-1.4843899999999999;-3.8769199999999997;2.03361;-3.75245;1.0;0.135812;-0.244881;0.934199;0.047519900000000004;-1.3699299999999999;-2.57159;19.3609;7.83787;19.3609;647.851;577.0;1224.0;1224.0;1024.0;224.0;1024.0;1024.0;1024.0;1.0;4.0;0.0;0.016697299999999998;0.407435;-0.342833;2.3355;;1970-01-01 00:00:00.726
346.0;349.0;0.0;370.5;313.938;9.28876;390.171;324.493;0.0;11.0;1.0;0.282654;-1.58841;-1.6833200000000001;0.183332;-1.61481;-1.63739;2.07082;0.9457459999999999;-0.667279;4.77389;1.80615;-1.08938;411.0;199.0;7.85533;406.917;201.60299999999998;0.0;47.0;1.0;0.0769626;-1.26993;-2.39424;0.0892974;-1.28863;-2.33848;-0.287586;0.47381599999999996;-1.4843899999999999;-3.8769199999999997;2.03361;-3.75245;1.0;0.135812;-0.244881;0.934199;0.047519900000000004;-1.3699299999999999;-2.57159;19.3609;7.83787;19.3609;647.851;577.0;1224.0;1224.0;1024.0;224.0;1024.0;1024.0;1024.0;1.0;4.0;0.0;0.016697299999999998;0.407435;-0.342833;2.3355;;1970-01-01 00:00:00.737
347.0;350.0;0.0;362.895;308.526;9.36379;381.793;319.606;0.0;12.0;1.0;0.320918;-1.55165;-1.6857799999999998;0.22460700000000003;-1.59586;-1.6519099999999998;2.17355;0.9579780000000001;-0.71559;3.92648;0.680172;-1.35607;411.0;197.0;7.871980000000001;407.798;198.628;0.0;48.0;1.0;0.07679989999999999;-1.25668;-2.3961900000000003;0.08554810000000002;-1.27904;-2.3557900000000003;-0.294284;0.532401;-1.40545;-3.3769;2.52949;-2.27871;1.0;0.180034;-0.239184;0.9106139999999999;0.04457390000000001;-1.3566799999999999;-2.56252;21.0555;8.10058;21.0555;647.851;588.0;1224.0;1224.0;1024.0;224.0;1024.0;1024.0;1024.0;1.0;4.0;0.0;0.0166982;0.540101;-0.334857;2.2765400000000002;;1970-01-01 00:00:00.748
348.0;351.0;0.0;354.889;303.66700000000003;9.30377;373.31300000000005;314.60400000000004;0.0;13.0;1.0;0.365927;-1.53995;-1.71107;0.26700300000000005;-1.5790899999999999;-1.66966;2.2667;0.969935;-0.769548;3.1558900000000003;0.546255;-1.13791;411.333;194.667;7.774430000000001;408.561;195.794;0.0;49.0;1.0;0.075624;-1.25997;-2.43454;0.08257089999999999;-1.27332;-2.37941;-0.28786300000000004;0.561036;-1.3347799999999999;-2.76955;2.89941;-0.603881;1.0;0.224343;-0.219119;0.9223120000000001;0.0426596;-1.3599700000000001;-2.59197;22.5932;8.621189999999999;22.5932;647.851;583.0;1225.0;1224.0;1024.0;224.0;1024.0;1024.0;1024.0;1.0;4.0;0.0;0.0166975;0.67303;-0.306766;2.30578;;1970-01-01 00:00:00.759
348.0;351.0;0.0;354.889;303.66700000000003;9.30377;373.31300000000005;314.60400000000004;0.0;13.0;1.0;0.365927;-1.53995;-1.71107;0.26700300000000005;-1.5790899999999999;-1.66966;2.2667;0.969935;-0.769548;3.1558900000000003;0.546255;-1.13791;411.333;194.667;7.774430000000001;408.561;195.794;0.0;49.0;1.0;0.075624;-1.25997;-2.43454;0.08257089999999999;-1.27332;-2.37941;-0.28786300000000004;0.561036;-1.3347799999999999;-2.76955;2.89941;-0.603881;1.0;0.224343;-0.219119;0.9223120000000001;0.0426596;-1.3599700000000001;-2.59197;22.5932;8.621189999999999;22.5932;647.851;583.0;1225.0;1224.0;1024.0;224.0;1024.0;1024.0;1024.0;1.0;4.0;0.0;0.0166975;0.67303;-0.306766;2.30578;;1970-01-01 00:00:00.770
349.0;352.0;0.0;347.059;298.824;9.25645;364.80300000000005;309.519;0.0;14.0;1.0;0.410008;-1.52607;-1.73425;0.309904;-1.56318;-1.68904;2.34649;0.9777469999999999;-0.8311959999999999;4.065980000000001;0.77979;-1.5807799999999999;412.667;192.667;7.94433;409.555;193.171;0.0;50.0;1.0;0.06563189999999999;-1.22255;-2.38942;0.0774892;-1.25809;-2.3824099999999997;-0.284966;0.591346;-1.22756;-2.14372;3.0966099999999996;1.124;1.0;0.27463200000000004;-0.240627;0.8411489999999999;0.0352729;-1.32255;-2.53019;24.1875;8.33131;24.1875;647.851;584.0;1226.0;1224.0;1024.0;224.0;1024.0;1024.0;1024.0;1.0;4.0;0.0;0.0166982;0.823895;-0.336877;2.1028700000000002;;1970-01-01 00:00:00.781
350.0;353.0;0.0;339.467;294.067;9.35223;356.338;304.395;0.0;15.0;1.0;0.446317;-1.48929;-1.73053;0.35082800000000003;-1.54101;-1.7014799999999999;2.40461;0.998484;-0.877555;4.57908;0.8988959999999999;-1.9906599999999999;413.0;192.0;7.98499;410.394;191.128;0.0;51.0;1.0;0.0632146;-1.21286;-2.37955;0.0732068;-1.24452;-2.38156;-0.277526;0.619933;-1.07336;-1.5414;3.0927700000000002;2.8205;1.0;0.31695100000000004;-0.228156;0.804447;0.033877;-1.3128600000000001;-2.5059299999999998;25.4309;8.827860000000001;25.4309;647.851;551.0;1226.0;1176.0;1024.0;224.0;1024.0;1024.0;1024.0;1.0;4.0;0.0;0.016697299999999998;0.9508540000000001;-0.319418;2.01112;;1970-01-01 00:00:00.792
350.0;353.0;0.0;339.467;294.067;9.35223;356.338;304.395;0.0;15.0;1.0;0.446317;-1.48929;-1.73053;0.35082800000000003;-1.54101;-1.7014799999999999;2.40461;0.998484;-0.877555;4.57908;0.8988959999999999;-1.9906599999999999;413.0;192.0;7.98499;410.394;191.128;0.0;51.0;1.0;0.0632146;-1.21286;-2.37955;0.0732068;-1.24452;-2.38156;-0.277526;0.619933;-1.07336;-1.5414;3.0927700000000002;2.8205;1.0;0.31695100000000004;-0.228156;0.804447;0.033877;-1.3128600000000001;-2.5059299999999998;25.4309;8.827860000000001;25.4309;647.851;551.0;1226.0;1176.0;1024.0;224.0;1024.0;1024.0;1024.0;1.0;4.0;0.0;0.016697299999999998;0.9508540000000001;-0.319418;2.01112;;1970-01-01 00:00:00.803
351.0;354.0;0.0;332.333;289.267;9.27103;348.036;299.22700000000003;0.0;16.0;1.0;0.48862;-1.48081;-1.75997;0.39216599999999996;-1.52295;-1.7190299999999998;2.4465;1.01099;-0.9310700000000001;4.68056;0.847721;-2.42279;413.0;191.0;7.70529;411.014;189.4;0.0;52.0;1.0;0.0655092;-1.25149;-2.4695099999999996;0.0708975;-1.24661;-2.40794;-0.26108400000000004;0.571703;-1.01678;-0.9426209999999999;2.53361;3.80459;1.0;0.356272;-0.171464;0.8650180000000001;0.035894300000000004;-1.3514899999999999;-2.58405;26.4348;10.0223;26.4348;647.851;536.0;1226.0;1158.0;1024.0;224.0;1024.0;1024.0;1024.0;1.0;4.0;0.0;0.0166982;1.06881;-0.24005;2.16255;;1970-01-01 00:00:00.814
352.0;355.0;0.0;325.407;284.593;9.2642;339.917;294.062;0.0;17.0;1.0;0.5262859999999999;-1.46092;-1.77519;0.43240200000000006;-1.50434;-1.7358799999999999;2.46232;1.04762;-0.9518540000000001;4.37142;0.9153819999999999;-2.58985;414.0;190.0;7.60498;411.791;187.90200000000002;0.0;53.0;1.0;0.059811800000000005;-1.26253;-2.5057099999999997;0.0675718;-1.25139;-2.4372700000000003;-0.243391;0.491703;-1.00452;-0.389119;1.59158;4.19866;1.0;0.40113200000000004;-0.141816;0.8809879999999999;0.031270099999999995;-1.36253;-2.61687;27.3638;11.0381;27.3638;647.851;522.0;1226.0;1149.0;1024.0;224.0;1024.0;1024.0;1024.0;1.0;4.0;0.0;0.016697299999999998;1.2034;-0.198542;2.20247;;1970-01-01 00:00:00.825
352.0;355.0;0.0;325.407;284.593;9.2642;339.917;294.062;0.0;17.0;1.0;0.5262859999999999;-1.46092;-1.77519;0.43240200000000006;-1.50434;-1.7358799999999999;2.46232;1.04762;-0.9518540000000001;4.37142;0.9153819999999999;-2.58985;414.0;190.0;7.60498;411.791;187.90200000000002;0.0;53.0;1.0;0.059811800000000005;-1.26253;-2.5057099999999997;0.0675718;-1.25139;-2.4372700000000003;-0.243391;0.491703;-1.00452;-0.389119;1.59158;4.19866;1.0;0.40113200000000004;-0.141816;0.8809879999999999;0.031270099999999995;-1.36253;-2.61687;27.3638;11.0381;27.3638;647.851;522.0;1226.0;1149.0;1024.0;224.0;1024.0;1024.0;1024.0;1.0;4.0;0.0;0.016697299999999998;1.2034;-0.198542;2.20247;;1970-01-01 00:00:00.836
353.0;356.0;0.0;318.88;280.4;9.21263;332.051;289.04400000000004;0.0;18.0;1.0;0.564587;-1.45018;-1.7976900000000002;0.472058;-1.48809;-1.75442;2.46535;1.05883;-0.980397;3.78787;0.951896;-2.61116;414.0;190.0;7.6928600000000005;412.36199999999997;186.89;0.0;54.0;1.0;0.059128499999999994;-1.24811;-2.47709;0.06503880000000001;-1.2504;-2.44922;-0.227919;0.40936500000000003;-0.975728;0.0314944;0.46372399999999997;4.23489;1.0;0.438871;-0.139989;0.829735;0.03318630000000001;-1.3481100000000001;-2.58416;28.0692;11.217;28.0692;647.851;519.0;1226.0;1129.0;1024.0;224.0;1024.0;1024.0;1024.0;1.0;4.0;0.0;0.0166982;1.31661;-0.195985;2.0743400000000003;;1970-01-01 00:00:00.847
354.0;357.0;0.0;313.91700000000003;276.25;9.23301;324.842;284.14799999999997;0.0;19.0;1.0;0.590166;-1.42829;-1.8061200000000002;0.50749;-1.47015;-1.76993;2.4393700000000003;1.0702200000000002;-0.9885879999999999;2.9620900000000003;0.97152;-2.44123;415.0;190.0;7.50893;413.1;186.229;0.0;55.0;1.0;0.05393150000000001;-1.2786799999999998;-2.53776;0.0617066;-1.25888;-2.47578;-0.22005300000000003;0.30325;-0.97019;0.289633;-0.750988;3.9965699999999997;1.0;0.47918999999999995;-0.0914773;0.877561;0.0283;-1.37868;-2.6474900000000003;28.6789;12.2479;28.6789;647.851;506.0;1226.0;1147.0;1024.0;224.0;1024.0;1024.0;1024.0;1.0;4.0;0.0;0.016697299999999998;1.43757;-0.12806800000000002;2.1939;;1970-01-01 00:00:00.858
354.0;357.0;0.0;313.91700000000003;276.25;9.23301;324.842;284.14799999999997;0.0;19.0;1.0;0.590166;-1.42829;-1.8061200000000002;0.50749;-1.47015;-1.76993;2.4393700000000003;1.0702200000000002;-0.9885879999999999;2.9620900000000003;0.97152;-2.44123;415.0;190.0;7.50893;413.1;186.229;0.0;55.0;1.0;0.05393150000000001;-1.2786799999999998;-2.53776;0.0617066;-1.25888;-2.47578;-0.22005300000000003;0.30325;-0.97019;0.289633;-0.750988;3.9965699999999997;1.0;0.47918999999999995;-0.0914773;0.877561;0.0283;-1.37868;-2.6474900000000003;28.6789;12.2479;28.6789;647.851;506.0;1226.0;1147.0;1024.0;224.0;1024.0;1024.0;1024.0;1.0;4.0;0.0;0.016697299999999998;1.43757;-0.12806800000000002;2.1939;;1970-01-01 00:00:00.869
355.0;358.0;0.0;308.60900000000004;272.60900000000004;9.24527;318.01599999999996;279.495;0.0;20.0;1.0;0.618032;-1.41002;-1.8145900000000001;0.5406529999999999;-1.45212;-1.7833299999999999;2.38489;1.08556;-0.969627;1.9305700000000001;1.01337;-2.01743;416.0;190.0;7.5953;413.958;185.822;0.0;56.0;1.0;0.0467484;-1.26414;-2.5089099999999998;0.0572192;-1.2604600000000001;-2.48572;-0.212961;0.172485;-0.9945620000000001;0.461266;-2.12291;3.32818;1.0;0.51854;-0.087978;0.834192;0.022112700000000002;-1.36414;-2.6175200000000003;29.0743;12.5111;29.0743;647.851;501.0;1226.0;1157.0;1024.0;224.0;1024.0;1024.0;1024.0;1.0;4.0;0.0;0.0166985;1.55562;-0.123169;2.08548;;1970-01-01 00:00:00.880
356.0;359.0;0.0;303.238;269.143;9.257060000000001;311.45599999999996;275.078;0.0;21.0;1.0;0.6461939999999999;-1.39266;-1.8226099999999998;0.572315;-1.43428;-1.79512;2.31523;1.07748;-0.9556030000000001;0.801485;0.923407;-1.52207;416.0;190.0;7.4863100000000005;414.583;185.597;0.0;57.0;1.0;0.047429;-1.28254;-2.54543;0.0542821;-1.26708;-2.50363;-0.203334;0.0134;-1.0841399999999999;0.572972;-3.69536;1.95387;1.0;0.5499350000000001;-0.05173730000000001;0.8672989999999999;0.0223804;-1.3825399999999999;-2.66241;29.1786;13.0656;29.1786;647.851;496.0;1226.0;1207.0;1024.0;224.0;1024.0;1024.0;1024.0;1.0;4.0;0.0;0.016697299999999998;1.6498;-0.0724322;2.16825;;1970-01-01 00:00:00.891
357.0;360.0;0.0;298.783;266.087;9.1562;305.372;270.96;0.0;22.0;1.0;0.6775939999999999;-1.3941299999999999;-1.8519;0.603899;-1.4222299999999999;-1.81215;2.23449;1.04861;-0.945149;-0.365553;0.70423;-0.9694510000000001;417.0;191.0;7.5163199999999994;415.355;185.82;0.0;58.0;1.0;0.040600800000000006;-1.28295;-2.5316;0.0501777;-1.2718399999999999;-2.51202;-0.204725;-0.09270969999999999;-1.06602;0.568797;-4.86991;0.975707;1.0;0.587643;-0.0392821;0.84925;0.0162555;-1.38295;-2.6614;29.415;12.917;29.415;647.851;526.0;1226.0;1224.0;1024.0;224.0;1024.0;1024.0;1024.0;1.0;4.0;0.0;0.0166982;1.7629299999999999;-0.054994900000000006;2.12312;;1970-01-01 00:00:00.902
357.0;360.0;0.0;298.783;266.087;9.1562;305.372;270.96;0.0;22.0;1.0;0.6775939999999999;-1.3941299999999999;-1.8519;0.603899;-1.4222299999999999;-1.81215;2.23449;1.04861;-0.945149;-0.365553;0.70423;-0.9694510000000001;417.0;191.0;7.5163199999999994;415.355;185.82;0.0;58.0;1.0;0.040600800000000006;-1.28295;-2.5316;0.0501777;-1.2718399999999999;-2.51202;-0.204725;-0.09270969999999999;-1.06602;0.568797;-4.86991;0.975707;1.0;0.587643;-0.0392821;0.84925;0.0162555;-1.38295;-2.6614;29.415;12.917;29.415;647.851;526.0;1226.0;1224.0;1024.0;224.0;1024.0;1024.0;1024.0;1.0;4.0;0.0;0.0166982;1.7629299999999999;-0.054994900000000006;2.12312;;1970-01-01 00:00:00.913
358.0;361.0;0.0;294.235;263.176;8.9035;299.615;267.10900000000004;0.0;23.0;1.0;0.7223109999999999;-1.4201;-1.9134799999999998;0.639422;-1.42159;-1.84255;2.16723;0.9595459999999999;-0.992977;-1.39749;0.0708863;-0.7458560000000001;417.0;191.0;7.5163199999999994;415.39099999999996;184.396;1.0;0.0;1.0;0.040600800000000006;-1.28295;-2.5316;0.0501777;-1.2718399999999999;-2.51202;-0.204725;-0.09270969999999999;-1.06602;0.568797;-4.86991;0.975707;1.0;0.623259;-0.0386431;0.816296;0.0161631;-1.38295;-2.65885;29.6922;11.7708;29.6922;647.851;523.0;1226.0;1216.0;1024.0;224.0;1024.0;1024.0;1024.0;1.0;4.0;0.0;0.016697299999999998;1.86978;-0.0541004;2.04074;;1970-01-01 00:00:00.924
359.0;362.0;0.0;290.235;261.176;8.85948;294.267;263.737;0.0;24.0;1.0;0.74843;-1.41777;-1.9292200000000002;0.672125;-1.42045;-1.86855;2.09912;0.845809;-1.05145;-2.3006900000000003;-0.8079770000000001;-0.731202;419.0;193.0;7.49127;416.81800000000004;186.28900000000002;0.0;1.0;1.0;0.027414400000000002;-1.29834;-2.5327;0.0433487;-1.27979;-2.51822;-0.20573000000000002;-0.152844;-0.916643;0.470158;-5.12769;0.8861530000000001;1.0;0.6698029999999999;-0.022106099999999997;0.794805;0.00232204;-1.39834;-2.66336;30.1998;10.5932;30.1998;647.851;550.0;1226.0;1190.0;1024.0;224.0;1024.0;1024.0;1024.0;1.0;4.0;0.0;0.0166982;2.00941;-0.0309485;1.98701;;1970-01-01 00:00:00.935
359.0;362.0;0.0;290.235;261.176;8.85948;294.267;263.737;0.0;24.0;1.0;0.74843;-1.41777;-1.9292200000000002;0.672125;-1.42045;-1.86855;2.09912;0.845809;-1.05145;-2.3006900000000003;-0.8079770000000001;-0.731202;419.0;193.0;7.49127;416.81800000000004;186.28900000000002;0.0;1.0;1.0;0.027414400000000002;-1.29834;-2.5327;0.0433487;-1.27979;-2.51822;-0.20573000000000002;-0.152844;-0.916643;0.470158;-5.12769;0.8861530000000001;1.0;0.6698029999999999;-0.022106099999999997;0.794805;0.00232204;-1.39834;-2.66336;30.1998;10.5932;30.1998;647.851;550.0;1226.0;1190.0;1024.0;224.0;1024.0;1024.0;1024.0;1.0;4.0;0.0;0.0166982;2.00941;-0.0309485;1.98701;;1970-01-01 00:00:00.946
360.0;363.0;0.0;287.111;258.556;8.69833;289.494;260.525;0.0;25.0;1.0;0.7802180000000001;-1.43151;-1.97327;0.704553;-1.42377;-1.8999700000000002;2.04625;0.692685;-1.15005;-2.9499400000000002;-1.9921;-1.08335;419.0;193.0;7.49127;416.914;185.00799999999998;1.0;0.0;1.0;0.027414400000000002;-1.29834;-2.5327;0.0433487;-1.27979;-2.51822;-0.20573000000000002;-0.152844;-0.916643;0.470158;-5.12769;0.8861530000000001;1.0;0.7017800000000001;-0.025425599999999996;0.7425229999999999;0.00277252;-1.39834;-2.64249;30.5013;8.54216;30.5013;647.851;592.0;1226.0;1161.0;1024.0;224.0;1024.0;1024.0;1024.0;1.0;4.0;0.0;0.016697299999999998;2.10534;-0.035595800000000004;1.85631;;1970-01-01 00:00:00.957
361.0;364.0;0.0;283.75;256.125;8.55775;285.072;257.493;0.0;26.0;1.0;0.8126329999999999;-1.4432200000000002;-2.01353;0.736977;-1.4296;-1.93403;2.01158;0.505491;-1.29172;-3.26041;-3.51122;-1.93599;421.0;195.0;7.45973;418.707;187.87599999999998;0.0;1.0;1.0;0.0141519;-1.31498;-2.5360099999999997;0.0345897;-1.29035;-2.52356;-0.214615;-0.211326;-0.772595;0.32193;-4.935219999999999;1.13996;1.0;0.747894;-0.014625799999999998;0.713667;-0.010917;-1.41498;-2.6477;31.2892;6.3051900000000005;31.2892;647.851;641.0;1226.0;1106.0;1024.0;224.0;1024.0;1024.0;1024.0;1.0;4.0;0.0;0.0166985;2.24368;-0.0204761;1.78417;;1970-01-01 00:00:00.968
361.0;364.0;0.0;283.75;256.125;8.55775;285.072;257.493;0.0;26.0;1.0;0.8126329999999999;-1.4432200000000002;-2.01353;0.736977;-1.4296;-1.93403;2.01158;0.505491;-1.29172;-3.26041;-3.51122;-1.93599;421.0;195.0;7.45973;418.707;187.87599999999998;0.0;1.0;1.0;0.0141519;-1.31498;-2.5360099999999997;0.0345897;-1.29035;-2.52356;-0.214615;-0.211326;-0.772595;0.32193;-4.935219999999999;1.13996;1.0;0.747894;-0.014625799999999998;0.713667;-0.010917;-1.41498;-2.6477;31.2892;6.3051900000000005;31.2892;647.851;641.0;1226.0;1106.0;1024.0;224.0;1024.0;1024.0;1024.0;1.0;4.0;0.0;0.0166985;2.24368;-0.0204761;1.78417;;1970-01-01 00:00:00.979
362.0;365.0;0.0;281.647;253.882;8.5138;281.29900000000004;254.65200000000002;0.0;27.0;1.0;0.8291540000000001;-1.43972;-2.03119;0.76463;-1.43264;-1.96318;1.97478;0.309845;-1.44605;-3.3155300000000003;-5.17154;-3.11971;422.0;195.0;7.243360000000001;420.079;189.377;0.0;2.0;1.0;0.00768562;-1.35426;-2.61176;0.0265185;-1.30952;-2.55002;-0.23413699999999998;-0.278426;-0.685858;0.15098599999999998;-4.7029;1.53538;1.0;0.7835989999999999;0.0216205;0.744533;-0.0189687;-1.45426;-2.70771;31.918000000000003;4.42148;31.918000000000003;647.851;688.0;1226.0;1064.0;1024.0;224.0;1024.0;1024.0;1024.0;1.0;4.0;0.0;0.016697299999999998;2.3508;0.030268700000000003;1.86133;;1970-01-01 00:00:00.990
363.0;366.0;0.0;279.33299999999997;251.467;8.46531;277.937;251.898;0.0;28.0;1.0;0.847542;-1.4361;-2.0507;0.789503;-1.4336799999999998;-1.98944;1.9259;0.140216;-1.57545;-3.22138;-6.72973;-4.388319999999999;423.0;196.0;7.03751;421.29699999999997;190.649;0.0;3.0;1.0;0.0008198869999999999;-1.39978;-2.68423;0.018808900000000003;-1.3366;-2.59028;-0.255498;-0.395047;-0.724626;-0.036782800000000004;-4.52116;1.72953;1.0;0.8186399999999999;0.066101;0.7825479999999999;-0.029136400000000003;-1.49978;-2.77198;32.4612;3.02584;32.4612;647.851;726.0;1226.0;1041.0;1024.0;224.0;1024.0;1024.0;1024.0;1.0;4.0;0.0;0.0166982;2.45592;0.0925413;1.9563700000000002;;1970-01-01 00:00:01.001
363.0;366.0;0.0;279.33299999999997;251.467;8.46531;277.937;251.898;0.0;28.0;1.0;0.847542;-1.4361;-2.0507;0.789503;-1.4336799999999998;-1.98944;1.9259;0.140216;-1.57545;-3.22138;-6.72973;-4.388319999999999;423.0;196.0;7.03751;421.29699999999997;190.649;0.0;3.0;1.0;0.0008198869999999999;-1.39978;-2.68423;0.018808900000000003;-1.3366;-2.59028;-0.255498;-0.395047;-0.724626;-0.036782800000000004;-4.52116;1.72953;1.0;0.8186399999999999;0.066101;0.7825479999999999;-0.029136400000000003;-1.49978;-2.77198;32.4612;3.02584;32.4612;647.851;726.0;1226.0;1041.0;1024.0;224.0;1024.0;1024.0;1024.0;1.0;4.0;0.0;0.0166982;2.45592;0.0925413;1.9563700000000002;;1970-01-01 00:00:01.012
364.0;367.0;0.0;278.0;250.571;8.378110000000001;275.184;249.68400000000003;0.0;29.0;1.0;0.8643040000000001;-1.44661;-2.07499;0.8119430000000001;-1.43756;-2.0151;1.84434;0.0204025;-1.63419;-3.222;-7.78741;-5.19308;423.333;195.333;7.00519;422.23199999999997;191.299;0.0;4.0;1.0;-0.00155082;-1.40228;-2.69924;0.012701;-1.3563;-2.62297;-0.27781;-0.5041859999999999;-0.792127;-0.24508000000000002;-4.26256;1.9121099999999998;1.0;0.846823;0.0647243;0.778666;-0.034879400000000005;-1.5022799999999998;-2.79377;32.6383;1.44321;32.6383;647.851;760.0;1226.0;1025.0;1024.0;224.0;1024.0;1024.0;1024.0;1.0;4.0;0.0;0.016697299999999998;2.54047;0.0906141;1.9466700000000001;;1970-01-01 00:00:01.023
365.0;368.0;0.0;276.57099999999997;249.0;8.3243;272.845;247.65400000000002;0.0;30.0;1.0;0.8784549999999999;-1.44811;-2.09361;0.8318969999999999;-1.44072;-2.0386599999999997;1.7445;-0.06870110000000001;-1.65967;-3.34902;-8.32367;-5.5442;424.0;195.0;6.98941;423.096;191.668;0.0;5.0;1.0;-0.0063138000000000005;-1.40346;-2.70665;0.00699654;-1.37045;-2.6480799999999998;-0.29598800000000003;-0.59778;-0.8826799999999999;-0.42032600000000003;-4.06993;1.6962700000000002;1.0;0.875374;0.06274099999999999;0.773964;-0.043477499999999995;-1.50346;-2.81262;32.6663;0.248772;32.6663;647.851;782.0;1226.0;1028.0;1024.0;224.0;1024.0;1024.0;1024.0;1.0;4.0;0.0;0.0166982;2.6261200000000002;0.0878375;1.93491;;1970-01-01 00:00:01.034
365.0;368.0;0.0;276.57099999999997;249.0;8.3243;272.845;247.65400000000002;0.0;30.0;1.0;0.8784549999999999;-1.44811;-2.09361;0.8318969999999999;-1.44072;-2.0386599999999997;1.7445;-0.06870110000000001;-1.65967;-3.34902;-8.32367;-5.5442;424.0;195.0;6.98941;423.096;191.668;0.0;5.0;1.0;-0.0063138000000000005;-1.40346;-2.70665;0.00699654;-1.37045;-2.6480799999999998;-0.29598800000000003;-0.59778;-0.8826799999999999;-0.42032600000000003;-4.06993;1.6962700000000002;1.0;0.875374;0.06274099999999999;0.773964;-0.043477499999999995;-1.50346;-2.81262;32.6663;0.248772;32.6663;647.851;782.0;1226.0;1028.0;1024.0;224.0;1024.0;1024.0;1024.0;1.0;4.0;0.0;0.0166982;2.6261200000000002;0.0878375;1.93491;;1970-01-01 00:00:01.045
366.0;369.0;0.0;275.0;247.429;8.04209;270.764;245.75900000000001;0.0;31.0;1.0;0.919032;-1.4908;-2.17247;0.858037;-1.45575;-2.0788;1.6594900000000001;-0.16889400000000002;-1.7098;-3.55355;-8.43409;-5.561380000000001;424.0;194.0;6.90338;423.70099999999996;191.638;0.0;6.0;1.0;-0.00639249;-1.41493;-2.74438;0.00297983;-1.3838;-2.6769700000000003;-0.315743;-0.714581;-1.0728600000000001;-0.62868;-4.364330000000001;0.483152;1.0;0.905285;0.059185400000000006;0.7874180000000001;-0.0472477;-1.5149299999999999;-2.86622;32.8377;-1.11845;32.8377;647.851;801.0;1226.0;1065.0;1024.0;224.0;1024.0;1024.0;1024.0;1.0;4.0;0.0;0.016697299999999998;2.7158599999999997;0.0828595;1.96855;;1970-01-01 00:00:01.056
367.0;370.0;0.0;274.462;246.769;7.90693;269.195;244.24900000000002;0.0;32.0;1.0;0.938139;-1.51282;-2.21191;0.8820680000000001;-1.4728700000000001;-2.11873;1.5749799999999998;-0.274068;-1.7633;-3.87529;-8.172880000000001;-5.21962;422.0;194.0;7.1618;423.48400000000004;191.646;0.0;7.0;1.0;0.00777315;-1.36388;-2.6453599999999997;0.00441783;-1.37782;-2.66748;-0.309908;-0.777978;-1.21835;-0.7576689999999999;-4.88098;-1.4898;1.0;0.91748;-0.00899136;0.673361;-0.03541180000000001;-1.4638799999999998;-2.79209;32.4613;-3.7265300000000003;32.4613;647.851;832.0;1226.0;1082.0;1024.0;224.0;1024.0;1024.0;1024.0;1.0;4.0;0.0;0.0166985;2.75244;-0.012587899999999999;1.6834;;1970-01-01 00:00:01.067
368.0;371.0;0.0;273.27299999999997;246.18200000000002;7.7282;267.79400000000004;243.042;0.0;33.0;1.0;0.967512;-1.54464;-2.26516;0.907701;-1.4944;-2.16266;1.51621;-0.411029;-1.8544200000000002;-4.15604;-7.78185;-4.76221;422.0;193.0;6.8154;423.31300000000005;191.363;0.0;8.0;1.0;0.00816822;-1.42709;-2.78386;0.00554294;-1.3926;-2.7024;-0.26969099999999996;-0.798488;-1.33938;-0.5965520000000001;-5.00496;-3.5031;1.0;0.945608;0.0326946;0.80233;-0.037906699999999995;-1.52709;-2.9649900000000002;32.359;-4.74833;32.359;647.851;840.0;1226.0;1157.0;1024.0;224.0;1024.0;1024.0;1024.0;1.0;4.0;0.0;0.016697299999999998;2.83682;0.0457724;2.00582;;1970-01-01 00:00:01.078
368.0;371.0;0.0;273.27299999999997;246.18200000000002;7.7282;267.79400000000004;243.042;0.0;33.0;1.0;0.967512;-1.54464;-2.26516;0.907701;-1.4944;-2.16266;1.51621;-0.411029;-1.8544200000000002;-4.15604;-7.78185;-4.76221;422.0;193.0;6.8154;423.31300000000005;191.363;0.0;8.0;1.0;0.00816822;-1.42709;-2.78386;0.00554294;-1.3926;-2.7024;-0.26969099999999996;-0.798488;-1.33938;-0.5965520000000001;-5.00496;-3.5031;1.0;0.945608;0.0326946;0.80233;-0.037906699999999995;-1.52709;-2.9649900000000002;32.359;-4.74833;32.359;647.851;840.0;1226.0;1157.0;1024.0;224.0;1024.0;1024.0;1024.0;1.0;4.0;0.0;0.016697299999999998;2.83682;0.0457724;2.00582;;1970-01-01 00:00:01.089
369.0;372.0;0.0;273.0;245.6;7.55963;266.801;242.05700000000002;0.0;34.0;1.0;0.990886;-1.57589;-2.3178;0.932657;-1.51885;-2.2092;1.48127;-0.586659;-1.99007;-4.26883;-7.57119;-4.51274;421.0;193.0;6.74984;422.858;191.188;0.0;9.0;1.0;0.0156403;-1.44096;-2.8109;0.00857215;-1.40711;-2.73495;-0.202685;-0.760605;-1.3812;-0.147073;-4.46248;-4.723269999999999;1.0;0.9580700000000001;0.0221107;0.805582;-0.025413099999999997;-1.54096;-3.01478;31.9071;-7.22416;31.9071;647.851;870.0;1226.0;1170.0;1024.0;224.0;1024.0;1024.0;1024.0;1.0;4.0;0.0;0.0166982;2.8742099999999997;0.030955;2.01396;;1970-01-01 00:00:01.100
370.0;373.0;0.0;273.0;245.0;7.51248;266.19;241.227;0.0;35.0;1.0;0.9971049999999999;-1.58246;-2.33455;0.951991;-1.53793;-2.24681;1.44791;-0.752744;-2.1191299999999997;-4.14406;-7.62953;-4.643759999999999;420.0;192.0;6.82688;422.19699999999995;190.773;0.0;10.0;1.0;0.0227731;-1.41861;-2.78322;0.012832399999999999;-1.41056;-2.74943;-0.12108599999999999;-0.672977;-1.3336;0.537482;-3.3514;-4.99584;1.0;0.9596620000000001;-0.0193243;0.743876;-0.00767106;-1.51861;-2.99068;31.1359;-10.1374;31.1359;647.851;908.0;1226.0;1138.0;1024.0;224.0;1024.0;1024.0;1024.0;1.0;4.0;0.0;0.016697299999999998;2.87899;-0.027054;1.85969;;1970-01-01 00:00:01.111
370.0;373.0;0.0;273.0;245.0;7.51248;266.19;241.227;0.0;35.0;1.0;0.9971049999999999;-1.58246;-2.33455;0.951991;-1.53793;-2.24681;1.44791;-0.752744;-2.1191299999999997;-4.14406;-7.62953;-4.643759999999999;420.0;192.0;6.82688;422.19699999999995;190.773;0.0;10.0;1.0;0.0227731;-1.41861;-2.78322;0.012832399999999999;-1.41056;-2.74943;-0.12108599999999999;-0.672977;-1.3336;0.537482;-3.3514;-4.99584;1.0;0.9596620000000001;-0.0193243;0.743876;-0.00767106;-1.51861;-2.99068;31.1359;-10.1374;31.1359;647.851;908.0;1226.0;1138.0;1024.0;224.0;1024.0;1024.0;1024.0;1.0;4.0;0.0;0.016697299999999998;2.87899;-0.027054;1.85969;;1970-01-01 00:00:01.122
371.0;374.0;0.0;274.0;244.0;7.48045;266.17;240.382;0.0;36.0;1.0;0.994704;-1.58368;-2.34823;0.9648049999999999;-1.55165;-2.27723;1.39939;-0.894547;-2.22401;-3.8643199999999998;-7.87495;-5.03939;418.0;192.0;6.753839999999999;421.07;190.50099999999998;0.0;11.0;1.0;0.0377961;-1.43395;-2.81332;0.0203215;-1.41757;-2.7686;-0.0194511;-0.5919300000000001;-1.28134;1.4265700000000001;-1.98748;-4.589169999999999;1.0;0.944693;-0.0177057;0.730859;0.0201115;-1.53395;-3.00809;29.7704;-11.9514;29.7704;647.851;934.0;1226.0;1106.0;1024.0;224.0;1024.0;1024.0;1024.0;1.0;4.0;0.0;0.0166982;2.8340799999999997;-0.024788;1.82715;;1970-01-01 00:00:01.133
372.0;375.0;0.0;274.72700000000003;243.81799999999998;7.422999999999999;266.48900000000003;239.78400000000002;0.0;37.0;1.0;0.9975139999999999;-1.59491;-2.36708;0.974618;-1.56463;-2.30419;1.30508;-0.971461;-2.23427;-3.7336;-7.92925;-5.11758;416.667;192.667;6.81457;419.81800000000004;190.546;0.0;12.0;1.0;0.0472227;-1.42524;-2.78555;0.028391900000000005;-1.41987;-2.77368;0.08978799999999999;-0.49920200000000003;-1.1549399999999999;2.4750400000000004;-0.332577;-3.0811900000000003;1.0;0.930147;-0.0393952;0.662676;0.044470300000000004;-1.52524;-2.96686;28.0402;-13.345999999999998;28.0402;647.851;954.0;1226.0;1050.0;1024.0;224.0;1024.0;1024.0;1024.0;1.0;4.0;0.0;0.016697299999999998;2.7904400000000003;-0.0551533;1.6566900000000002;;1970-01-01 00:00:01.144
372.0;375.0;0.0;274.72700000000003;243.81799999999998;7.422999999999999;266.48900000000003;239.78400000000002;0.0;37.0;1.0;0.9975139999999999;-1.59491;-2.36708;0.974618;-1.56463;-2.30419;1.30508;-0.971461;-2.23427;-3.7336;-7.92925;-5.11758;416.667;192.667;6.81457;419.81800000000004;190.546;0.0;12.0;1.0;0.0472227;-1.42524;-2.78555;0.028391900000000005;-1.41987;-2.77368;0.08978799999999999;-0.49920200000000003;-1.1549399999999999;2.4750400000000004;-0.332577;-3.0811900000000003;1.0;0.930147;-0.0393952;0.662676;0.044470300000000004;-1.52524;-2.96686;28.0402;-13.345999999999998;28.0402;647.851;954.0;1226.0;1050.0;1024.0;224.0;1024.0;1024.0;1024.0;1.0;4.0;0.0;0.016697299999999998;2.7904400000000003;-0.0551533;1.6566900000000002;;1970-01-01 00:00:01.155
373.0;376.0;0.0;277.0;243.0;7.29293;267.541;239.162;0.0;38.0;1.0;0.9997530000000001;-1.61869;-2.4123900000000003;0.982158;-1.58085;-2.33665;1.18267;-1.01401;-2.2106;-3.80649;-7.7118;-4.85642;415.0;193.0;6.74825;418.37300000000005;190.713;0.0;13.0;1.0;0.0600108;-1.4413;-2.81156;0.037877600000000004;-1.4263;-2.78505;0.18746300000000002;-0.49308500000000005;-1.1623299999999999;3.4708099999999997;0.9379040000000001;-1.62505;1.0;0.909917;-0.0395538;0.6322260000000001;0.0722409;-1.5413;-2.96888;26.0747;-13.902000000000001;26.0747;647.851;958.0;1226.0;1027.0;1024.0;224.0;1024.0;1024.0;1024.0;1.0;4.0;0.0;0.0166982;2.72975;-0.0553753;1.58056;;1970-01-01 00:00:01.166
374.0;377.0;0.0;278.0;242.0;7.19563;268.718;238.46400000000003;0.0;39.0;1.0;1.00634;-1.63481;-2.44885;0.9894120000000001;-1.59704;-2.37031;1.0358399999999999;-1.01819;-2.1554;-4.20179;-7.051189999999999;-4.11555;415.0;193.0;6.74825;418.398;190.13099999999997;1.0;0.0;1.0;0.0600108;-1.4413;-2.81156;0.037877600000000004;-1.4263;-2.78505;0.18746300000000002;-0.49308500000000005;-1.1623299999999999;3.4708099999999997;0.9379040000000001;-1.62505;1.0;-0.016925599999999996;0.0377685;0.0785406;1.00634;-1.63481;-2.44885;-0.35543800000000003;0.6873859999999999;-0.35543800000000003;647.851;726.0;954.0;981.0;1024.0;224.0;1024.0;1024.0;1024.0;1.0;4.0;0.0;0.0166975;-0.0507769;0.0528759;0.196351;;1970-01-01 00:00:01.177
374.0;377.0;0.0;278.0;242.0;7.19563;268.718;238.46400000000003;0.0;39.0;1.0;1.00634;-1.63481;-2.44885;0.9894120000000001;-1.59704;-2.37031;1.0358399999999999;-1.01819;-2.1554;-4.20179;-7.051189999999999;-4.11555;415.0;193.0;6.74825;418.398;190.13099999999997;1.0;0.0;1.0;0.0600108;-1.4413;-2.81156;0.037877600000000004;-1.4263;-2.78505;0.18746300000000002;-0.49308500000000005;-1.1623299999999999;3.4708099999999997;0.9379040000000001;-1.62505;1.0;-0.016925599999999996;0.0377685;0.0785406;1.00634;-1.63481;-2.44885;-0.35543800000000003;0.6873859999999999;-0.35543800000000003;647.851;726.0;954.0;981.0;1024.0;224.0;1024.0;1024.0;1024.0;1.0;4.0;0.0;0.0166975;-0.0507769;0.0528759;0.196351;;1970-01-01 00:00:01.188
375.0;378.0;0.0;280.0;242.0;7.0457399999999994;270.296;238.025;0.0;40.0;1.0;1.01358;-1.6695799999999998;-2.50095;0.996663;-1.6188;-2.4095;0.87705;-1.00999;-2.09294;-4.93345;-5.92086;-2.88003;413.0;194.0;7.225280000000001;416.34;191.042;0.0;1.0;1.0;0.0698613;-1.35189;-2.6221099999999997;0.0474727;-1.40398;-2.73617;0.255968;-0.334782;-0.812963;3.8813800000000005;2.14962;0.826457;1.0;-0.0169185;0.0507823;0.091445;1.01358;-1.6695799999999998;-2.50095;-0.35528899999999997;0.9242379999999999;-0.35528899999999997;647.851;709.0;942.0;1004.0;1024.0;224.0;1024.0;1024.0;1024.0;1.0;4.0;0.0;0.0166982;-0.0507556;0.0710953;0.22861199999999998;;1970-01-01 00:00:01.199
376.0;379.0;0.0;282.66700000000003;240.222;6.894539999999999;272.373;237.21;0.0;41.0;1.0;1.01651;-1.6954799999999999;-2.56291;1.00262;-1.6418;-2.45552;0.728356;-1.02071;-2.08908;-5.83291;-4.6224;-1.6080299999999998;411.333;194.667;6.73463;414.51099999999997;191.80200000000002;0.0;2.0;1.0;0.0873;-1.4545;-2.81042;0.059420900000000006;-1.41913;-2.7584400000000002;0.32759499999999997;-0.24202600000000002;-0.56818;4.14355;3.06445;3.2782;1.0;0.883598;-0.08730410000000001;0.455635;0.119019;-1.5545;-2.9111599999999997;21.3609;-14.8582;21.3609;647.851;921.0;1208.0;916.0;1024.0;224.0;1024.0;1024.0;1024.0;1.0;4.0;0.0;0.016697299999999998;2.65079;-0.122226;1.13909;;1970-01-01 00:00:01.210
376.0;379.0;0.0;282.66700000000003;240.222;6.894539999999999;272.373;237.21;0.0;41.0;1.0;1.01651;-1.6954799999999999;-2.56291;1.00262;-1.6418;-2.45552;0.728356;-1.02071;-2.08908;-5.83291;-4.6224;-1.6080299999999998;411.333;194.667;6.73463;414.51099999999997;191.80200000000002;0.0;2.0;1.0;0.0873;-1.4545;-2.81042;0.059420900000000006;-1.41913;-2.7584400000000002;0.32759499999999997;-0.24202600000000002;-0.56818;4.14355;3.06445;3.2782;1.0;0.883598;-0.08730410000000001;0.455635;0.119019;-1.5545;-2.9111599999999997;21.3609;-14.8582;21.3609;647.851;921.0;1208.0;916.0;1024.0;224.0;1024.0;1024.0;1024.0;1.0;4.0;0.0;0.016697299999999998;2.65079;-0.122226;1.13909;;1970-01-01 00:00:01.221
377.0;380.0;0.0;285.33299999999997;239.778;6.7533199999999995;274.80400000000003;236.542;0.0;42.0;1.0;1.01806;-1.7282;-2.61832;1.00725;-1.66772;-2.5043599999999997;0.60648;-1.07584;-2.16026;-6.66546;-3.49724;-0.710317;411.333;194.667;6.60705;413.30199999999996;192.30200000000002;0.0;3.0;1.0;0.0889857;-1.48259;-2.86468;0.0682903;-1.4381700000000002;-2.79031;0.386343;-0.239709;-0.480825;4.22264;3.3213800000000004;4.885269999999999;1.0;0.879239;-0.0851362;0.42801000000000006;0.128012;-1.58259;-2.93237;20.005;-15.5353;20.005;647.851;900.0;1171.0;886.0;1024.0;224.0;1024.0;1024.0;1024.0;1.0;4.0;0.0;0.0166982;2.6377200000000003;-0.119191;1.07002;;1970-01-01 00:00:01.232
378.0;381.0;0.0;288.222;238.667;6.72398;277.557;235.768;0.0;43.0;1.0;1.0010700000000001;-1.7288700000000001;-2.6343;1.0054;-1.6860700000000002;-2.54334;0.48677;-1.1303299999999998;-2.251;-7.266430000000001;-2.73264;-0.492979;411.0;195.0;6.695880000000001;412.361;192.765;0.0;4.0;1.0;0.09028939999999999;-1.46499;-2.82531;0.0748901;-1.44622;-2.80081;0.41855;-0.241839;-0.39874499999999996;4.03251;3.1909099999999997;5.95158;1.0;0.8707010000000001;-0.12107799999999999;0.337229;0.134694;-1.5649899999999999;-2.88057;18.7623;-16.8979;18.7623;647.851;946.0;1145.0;838.0;1024.0;224.0;1024.0;1024.0;1024.0;1.0;4.0;0.0;0.016697299999999998;2.6121;-0.169509;0.843073;;1970-01-01 00:00:01.243
379.0;382.0;0.0;291.0;238.0;6.58949;280.501;235.058;0.0;44.0;1.0;1.0004600000000001;-1.75995;-2.69086;1.0039200000000001;-1.70823;-2.5876;0.378927;-1.18676;-2.35252;-7.56882;-2.32932;-0.8624069999999999;411.0;195.0;6.6279699999999995;411.70099999999996;193.105;0.0;5.0;1.0;0.0912145;-1.48;-2.85426;0.0797874;-1.45635;-2.81685;0.42701400000000006;-0.269933;-0.386961;3.57355;2.6991400000000003;6.19909;1.0;0.865348;-0.12823199999999998;0.311771;0.138567;-1.58;-2.8993700000000002;17.8357;-17.7618;17.8357;647.851;963.0;1133.0;824.0;1024.0;224.0;1024.0;1024.0;1024.0;1.0;4.0;0.0;0.0166982;2.5960400000000003;-0.179524;0.7794270000000001;;1970-01-01 00:00:01.254
379.0;382.0;0.0;291.0;238.0;6.58949;280.501;235.058;0.0;44.0;1.0;1.0004600000000001;-1.75995;-2.69086;1.0039200000000001;-1.70823;-2.5876;0.378927;-1.18676;-2.35252;-7.56882;-2.32932;-0.8624069999999999;411.0;195.0;6.6279699999999995;411.70099999999996;193.105;0.0;5.0;1.0;0.0912145;-1.48;-2.85426;0.0797874;-1.45635;-2.81685;0.42701400000000006;-0.269933;-0.386961;3.57355;2.6991400000000003;6.19909;1.0;0.865348;-0.12823199999999998;0.311771;0.138567;-1.58;-2.8993700000000002;17.8357;-17.7618;17.8357;647.851;963.0;1133.0;824.0;1024.0;224.0;1024.0;1024.0;1024.0;1.0;4.0;0.0;0.0166982;2.5960400000000003;-0.179524;0.7794270000000001;;1970-01-01 00:00:01.265
380.0;383.0;0.0;294.0;237.0;6.49346;283.64599999999996;234.28599999999997;0.0;45.0;1.0;0.9922040000000001;-1.77957;-2.7349;1.0004;-1.72963;-2.63179;0.27123400000000003;-1.24145;-2.45549;-7.593999999999999;-2.28899;-1.71555;412.0;194.0;6.59305;411.559;193.041;0.0;6.0;1.0;0.08412910000000001;-1.48153;-2.87356;0.08108989999999999;-1.4639;-2.83386;0.404089;-0.290647;-0.399227;2.88547;2.3122700000000003;6.33094;1.0;0.8683489999999999;-0.148102;0.285197;0.132053;-1.5815299999999999;-2.91699;17.3053;-18.8343;17.3053;647.851;984.0;1135.0;825.0;1024.0;224.0;1024.0;1024.0;1024.0;1.0;4.0;0.0;0.016697299999999998;2.60505;-0.20734299999999997;0.7129909999999999;;1970-01-01 00:00:01.276
381.0;384.0;0.0;297.27299999999997;236.18200000000002;6.48701;287.017;233.525;0.0;46.0;1.0;0.968016;-1.7761;-2.7411;0.9906860000000001;-1.74357;-2.66458;0.138877;-1.24302;-2.49172;-7.503589999999999;-2.3038;-2.62149;412.0;194.0;6.54174;411.465;193.00900000000001;0.0;7.0;1.0;0.084789;-1.49315;-2.8961;0.08219960000000001;-1.47268;-2.85253;0.381102;-0.448676;-0.704128;2.23089;0.932635;4.23309;1.0;0.861859;-0.15042;0.275023;0.128827;-1.59315;-2.93961;16.4035;-18.8969;16.4035;647.851;985.0;1132.0;836.0;1024.0;224.0;1024.0;1024.0;1024.0;1.0;4.0;0.0;0.0166985;2.5855799999999998;-0.210588;0.687557;;1970-01-01 00:00:01.287
381.0;384.0;0.0;297.27299999999997;236.18200000000002;6.48701;287.017;233.525;0.0;46.0;1.0;0.968016;-1.7761;-2.7411;0.9906860000000001;-1.74357;-2.66458;0.138877;-1.24302;-2.49172;-7.503589999999999;-2.3038;-2.62149;412.0;194.0;6.54174;411.465;193.00900000000001;0.0;7.0;1.0;0.084789;-1.49315;-2.8961;0.08219960000000001;-1.47268;-2.85253;0.381102;-0.448676;-0.704128;2.23089;0.932635;4.23309;1.0;0.861859;-0.15042;0.275023;0.128827;-1.59315;-2.93961;16.4035;-18.8969;16.4035;647.851;985.0;1132.0;836.0;1024.0;224.0;1024.0;1024.0;1024.0;1.0;4.0;0.0;0.0166985;2.5855799999999998;-0.210588;0.687557;;1970-01-01 00:00:01.298
382.0;385.0;0.0;300.0;236.0;6.43741;290.37;232.975;0.0;47.0;1.0;0.954334;-1.7886099999999998;-2.763;0.9797809999999999;-1.75708;-2.69411;-0.00784958;-1.20607;-2.4476;-7.441489999999999;-2.1223;-3.00433;414.0;194.0;6.50329;412.04699999999997;193.0;0.0;8.0;1.0;0.0699442;-1.5019799999999999;-2.91322;0.078523;-1.48147;-2.87074;0.30492800000000003;-0.518075;-0.870825;1.24803;-0.54256;1.3315299999999999;1.0;0.866143;-0.155104;0.29983899999999997;0.11363800000000002;-1.60198;-2.99395;15.9996;-18.5017;15.9996;647.851;948.0;1142.0;897.0;1024.0;224.0;1024.0;1024.0;1024.0;1.0;4.0;0.0;0.016697299999999998;2.59843;-0.21714499999999998;0.749598;;1970-01-01 00:00:01.309
383.0;386.0;0.0;304.0;234.4;6.3493699999999995;294.107;232.125;0.0;48.0;1.0;0.936132;-1.80293;-2.8082700000000003;0.966686;-1.7708400000000002;-2.72836;-0.166666;-1.13533;-2.36288;-7.551710000000001;-1.5109299999999999;-2.61155;414.0;193.0;6.43144;412.477;192.688;0.0;9.0;1.0;0.07072569999999999;-1.5123;-2.9500599999999997;0.07618380000000001;-1.49072;-2.89453;0.21447199999999997;-0.5206390000000001;-0.9385969999999999;0.0626132;-1.44716;-1.0287600000000001;1.0;0.86054;-0.15854200000000002;0.322855;0.106146;-1.6123;-3.0512099999999998;15.4034;-17.6448;15.4034;647.851;918.0;1150.0;954.0;1024.0;224.0;1024.0;1024.0;1024.0;1.0;4.0;0.0;0.0166982;2.58162;-0.22195900000000002;0.807137;;1970-01-01 00:00:01.320
383.0;386.0;0.0;304.0;234.4;6.3493699999999995;294.107;232.125;0.0;48.0;1.0;0.936132;-1.80293;-2.8082700000000003;0.966686;-1.7708400000000002;-2.72836;-0.166666;-1.13533;-2.36288;-7.551710000000001;-1.5109299999999999;-2.61155;414.0;193.0;6.43144;412.477;192.688;0.0;9.0;1.0;0.07072569999999999;-1.5123;-2.9500599999999997;0.07618380000000001;-1.49072;-2.89453;0.21447199999999997;-0.5206390000000001;-0.9385969999999999;0.0626132;-1.44716;-1.0287600000000001;1.0;0.86054;-0.15854200000000002;0.322855;0.106146;-1.6123;-3.0512099999999998;15.4034;-17.6448;15.4034;647.851;918.0;1150.0;954.0;1024.0;224.0;1024.0;1024.0;1024.0;1.0;4.0;0.0;0.0166982;2.58162;-0.22195900000000002;0.807137;;1970-01-01 00:00:01.331
384.0;387.0;0.0;307.33299999999997;233.778;6.3651;297.903;231.36700000000002;0.0;49.0;1.0;0.9076850000000001;-1.7944099999999998;-2.80402;0.9489860000000001;-1.7779099999999999;-2.75106;-0.325218;-1.04789;-2.24703;-7.77292;-0.5774060000000001;-1.55111;415.0;193.0;6.50042;413.116;192.476;0.0;10.0;1.0;0.06229880000000001;-1.49625;-2.91875;0.0720183;-1.4923799999999998;-2.9018;0.117217;-0.49668;-0.966354;-1.1655200000000001;-1.8857599999999999;-2.88346;1.0;0.861915;-0.18166300000000002;0.276107;0.08707100000000001;-1.59625;-3.02716;15.0032;-16.9288;15.0032;647.851;907.0;1160.0;995.0;1024.0;224.0;1024.0;1024.0;1024.0;1.0;4.0;0.0;0.016697299999999998;2.58574;-0.254328;0.6902659999999999;;1970-01-01 00:00:01.342
385.0;388.0;0.0;310.0;233.0;6.2384900000000005;301.522;230.625;0.0;50.0;1.0;0.904777;-1.82565;-2.86437;0.935723;-1.79223;-2.78505;-0.467376;-0.96409;-2.13652;-8.04246;0.542543;-0.068313;415.0;193.0;6.50042;412.985;192.168;1.0;0.0;1.0;0.06229880000000001;-1.49625;-2.91875;0.0720183;-1.4923799999999998;-2.9018;0.117217;-0.49668;-0.966354;-1.1655200000000001;-1.8857599999999999;-2.88346;1.0;0.8597469999999999;-0.195983;0.246461;0.07597639999999999;-1.59625;-3.03151;13.9625;-16.1001;13.9625;647.851;884.0;1139.0;1018.0;1024.0;224.0;1024.0;1024.0;1024.0;1.0;4.0;0.0;0.0167041;2.57924;-0.274377;0.616153;;1970-01-01 00:00:01.353
385.0;388.0;0.0;310.0;233.0;6.2384900000000005;301.522;230.625;0.0;50.0;1.0;0.904777;-1.82565;-2.86437;0.935723;-1.79223;-2.78505;-0.467376;-0.96409;-2.13652;-8.04246;0.542543;-0.068313;415.0;193.0;6.50042;412.985;192.168;1.0;0.0;1.0;0.06229880000000001;-1.49625;-2.91875;0.0720183;-1.4923799999999998;-2.9018;0.117217;-0.49668;-0.966354;-1.1655200000000001;-1.8857599999999999;-2.88346;1.0;0.8597469999999999;-0.195983;0.246461;0.07597639999999999;-1.59625;-3.03151;13.9625;-16.1001;13.9625;647.851;884.0;1139.0;1018.0;1024.0;224.0;1024.0;1024.0;1024.0;1.0;4.0;0.0;0.0167041;2.57924;-0.274377;0.616153;;1970-01-01 00:00:01.364
386.0;389.0;0.0;313.6;232.0;6.21314;305.302;229.824;0.0;51.0;1.0;0.879555;-1.8264;-2.8805;0.9188729999999999;-1.8024799999999999;-2.8136900000000002;-0.605916;-0.869291;-2.0081;-8.32733;1.8113099999999998;1.7451299999999998;417.0;191.0;6.47641;414.404;191.41;0.0;1.0;1.0;0.04712;-1.48895;-2.9380900000000003;0.0645488;-1.49135;-2.91269;0.018183599999999998;-0.417775;-0.9077870000000001;-2.0983400000000003;-1.63737;-3.51235;1.0;0.858099;-0.21352800000000002;0.23696799999999998;0.060773400000000005;-1.58895;-3.05065;13.6514;-15.187000000000001;13.6514;647.851;864.0;1144.0;1053.0;1024.0;224.0;1024.0;1024.0;1024.0;1.0;4.0;0.0;0.016697299999999998;2.5743;-0.298939;0.59242;;1970-01-01 00:00:01.375
387.0;390.0;0.0;317.0;231.6;6.11749;309.127;229.169;0.0;52.0;1.0;0.865574;-1.85224;-2.92734;0.902883;-1.8174099999999997;-2.8477799999999998;-0.714086;-0.816358;-1.93625;-8.401689999999999;2.7901599999999998;3.26471;419.0;191.0;6.40765;415.96;190.938;0.0;2.0;1.0;0.0320506;-1.5049299999999999;-2.96962;0.0547993;-1.49542;-2.92977;-0.0790558;-0.358527;-0.872872;-2.9123200000000002;-1.21471;-3.72822;1.0;0.8687299999999999;-0.21247600000000003;0.226785;0.0341527;-1.60493;-3.07457;13.7981;-14.4797;13.7981;647.851;853.0;1158.0;1076.0;1024.0;224.0;1024.0;1024.0;1024.0;1.0;4.0;0.0;0.0166985;2.6061900000000002;-0.297467;0.566962;;1970-01-01 00:00:01.386
387.0;390.0;0.0;317.0;231.6;6.11749;309.127;229.169;0.0;52.0;1.0;0.865574;-1.85224;-2.92734;0.902883;-1.8174099999999997;-2.8477799999999998;-0.714086;-0.816358;-1.93625;-8.401689999999999;2.7901599999999998;3.26471;419.0;191.0;6.40765;415.96;190.938;0.0;2.0;1.0;0.0320506;-1.5049299999999999;-2.96962;0.0547993;-1.49542;-2.92977;-0.0790558;-0.358527;-0.872872;-2.9123200000000002;-1.21471;-3.72822;1.0;0.8687299999999999;-0.21247600000000003;0.226785;0.0341527;-1.60493;-3.07457;13.7981;-14.4797;13.7981;647.851;853.0;1158.0;1076.0;1024.0;224.0;1024.0;1024.0;1024.0;1.0;4.0;0.0;0.0166985;2.6061900000000002;-0.297467;0.566962;;1970-01-01 00:00:01.397
388.0;391.0;0.0;320.0;230.0;6.08554;312.851;228.238;0.0;53.0;1.0;0.84552;-1.8510400000000002;-2.94997;0.885674;-1.8275;-2.8784400000000003;-0.804153;-0.770933;-1.89765;-8.22011;3.41128;4.15442;419.0;191.0;6.40765;415.966;190.605;1.0;0.0;1.0;0.0320506;-1.5049299999999999;-2.96962;0.0547993;-1.49542;-2.92977;-0.0790558;-0.358527;-0.872872;-2.9123200000000002;-1.21471;-3.72822;1.0;0.862519;-0.22256399999999998;0.189399;0.0231554;-1.60493;-3.0678400000000003;13.0372;-14.0728;13.0372;647.851;843.0;1149.0;1082.0;1024.0;224.0;1024.0;1024.0;1024.0;1.0;4.0;0.0;0.016697299999999998;2.58756;-0.31159000000000003;0.473499;;1970-01-01 00:00:01.408
389.0;392.0;0.0;323.33299999999997;229.778;6.04836;316.601;227.545;0.0;54.0;1.0;0.823217;-1.8608900000000002;-2.9691099999999997;0.8669370000000001;-1.8375099999999998;-2.90564;-0.8807200000000001;-0.7287520000000001;-1.8463599999999998;-7.782789999999999;3.6699699999999997;4.55475;421.0;189.0;6.2681;417.99;189.628;0.0;1.0;1.0;0.0168423;-1.5251700000000001;-3.04454;0.0434122;-1.50435;-2.9642;-0.163574;-0.309944;-0.858089;-3.3783;-0.313421;-2.69793;1.0;0.858926;-0.212344;0.23640500000000003;0.00801109;-1.62517;-3.14205;13.0174;-13.3384;13.0174;647.851;840.0;1163.0;1087.0;1024.0;224.0;1024.0;1024.0;1024.0;1.0;4.0;0.0;0.0166982;2.57678;-0.297281;0.591012;;1970-01-01 00:00:01.419
390.0;393.0;0.0;326.222;228.667;6.0791699999999995;320.222;226.739;0.0;55.0;1.0;0.795331;-1.84385;-2.95911;0.845455;-1.83942;-2.92168;-0.941757;-0.682804;-1.7890000000000001;-7.1310899999999995;3.6595199999999997;4.56146;422.667;188.667;6.31848;419.76199999999994;188.922;0.0;2.0;1.0;0.00354575;-1.51082;-3.02172;0.031452299999999996;-1.50629;-2.9814599999999998;-0.239087;-0.260284;-0.846375;-3.65591;0.583845;-1.54555;1.0;0.859874;-0.22859899999999997;0.194279;-0.014418700000000001;-1.6108200000000001;-3.11596;13.1387;-13.037;13.1387;647.851;847.0;1180.0;1068.0;1024.0;224.0;1024.0;1024.0;1024.0;1.0;4.0;0.0;0.016697299999999998;2.5796200000000002;-0.32003899999999996;0.48569700000000005;;1970-01-01 00:00:01.430
390.0;393.0;0.0;326.222;228.667;6.0791699999999995;320.222;226.739;0.0;55.0;1.0;0.795331;-1.84385;-2.95911;0.845455;-1.83942;-2.92168;-0.941757;-0.682804;-1.7890000000000001;-7.1310899999999995;3.6595199999999997;4.56146;422.667;188.667;6.31848;419.76199999999994;188.922;0.0;2.0;1.0;0.00354575;-1.51082;-3.02172;0.031452299999999996;-1.50629;-2.9814599999999998;-0.239087;-0.260284;-0.846375;-3.65591;0.583845;-1.54555;1.0;0.859874;-0.22859899999999997;0.194279;-0.014418700000000001;-1.6108200000000001;-3.11596;13.1387;-13.037;13.1387;647.851;847.0;1180.0;1068.0;1024.0;224.0;1024.0;1024.0;1024.0;1.0;4.0;0.0;0.016697299999999998;2.5796200000000002;-0.32003899999999996;0.48569700000000005;;1970-01-01 00:00:01.441
391.0;394.0;0.0;329.333;227.778;5.96371;323.814;225.923;0.0;56.0;1.0;0.7846989999999999;-1.87336;-3.02051;0.8272280000000001;-1.8496;-2.95133;-0.998223;-0.638727;-1.73728;-6.39808;3.49473;4.33085;425.0;187.0;6.3769599999999995;421.702;187.895;0.0;3.0;1.0;-0.0147452;-1.48609;-3.00122;0.017593;-1.50023;-2.98739;-0.318889;-0.184658;-0.785846;-3.7905699999999998;1.35633;-0.469951;1.0;0.869057;-0.263504;0.145766;-0.041829000000000005;-1.58609;-3.0971;13.4949;-13.0992;13.4949;647.851;862.0;1200.0;1043.0;1024.0;224.0;1024.0;1024.0;1024.0;1.0;4.0;0.0;0.0166985;2.60717;-0.36890500000000004;0.364415;;1970-01-01 00:00:01.452
392.0;395.0;0.0;332.909;226.727;6.00994;327.526;225.046;0.0;57.0;1.0;0.748973;-1.85168;-3.0021;0.803752;-1.85022;-2.96656;-1.05856;-0.573843;-1.65273;-5.6460300000000005;3.27642;4.01731;427.0;186.0;6.2424;423.685;186.868;0.0;4.0;1.0;-0.031050400000000002;-1.51147;-3.0703400000000003;0.003;-1.5036;-3.01227;-0.397993;-0.14441099999999998;-0.80229;-3.81702;1.86858;0.209283;1.0;0.8693870000000001;-0.238752;0.189003;-0.065635;-1.6114700000000002;-3.15557;13.6332;-11.8053;13.6332;647.851;859.0;1214.0;1047.0;1024.0;224.0;1024.0;1024.0;1024.0;1.0;4.0;0.0;0.016697299999999998;2.60816;-0.334253;0.472509;;1970-01-01 00:00:01.463
392.0;395.0;0.0;332.909;226.727;6.00994;327.526;225.046;0.0;57.0;1.0;0.748973;-1.85168;-3.0021;0.803752;-1.85022;-2.96656;-1.05856;-0.573843;-1.65273;-5.6460300000000005;3.27642;4.01731;427.0;186.0;6.2424;423.685;186.868;0.0;4.0;1.0;-0.031050400000000002;-1.51147;-3.0703400000000003;0.003;-1.5036;-3.01227;-0.397993;-0.14441099999999998;-0.80229;-3.81702;1.86858;0.209283;1.0;0.8693870000000001;-0.238752;0.189003;-0.065635;-1.6114700000000002;-3.15557;13.6332;-11.8053;13.6332;647.851;859.0;1214.0;1047.0;1024.0;224.0;1024.0;1024.0;1024.0;1.0;4.0;0.0;0.016697299999999998;2.60816;-0.334253;0.472509;;1970-01-01 00:00:01.474
393.0;396.0;0.0;336.0;226.0;5.93917;331.167;224.22799999999998;0.0;58.0;1.0;0.731929;-1.86865;-3.04125;0.782205;-1.85575;-2.98897;-1.11695;-0.497388;-1.55534;-4.99606;3.23936;3.93119;428.667;185.333;6.2508;425.61400000000003;185.94099999999997;0.0;5.0;1.0;-0.0443135;-1.505;-3.06915;-0.011193999999999999;-1.5040200000000001;-3.0293400000000004;-0.498;-0.130018;-0.8805620000000001;-4.05668;2.1059;0.21873800000000002;1.0;0.870267;-0.250747;0.168373;-0.088062;-1.605;-3.15734;13.943;-11.0296;13.943;647.851;859.0;1226.0;1056.0;1024.0;224.0;1024.0;1024.0;1024.0;1.0;4.0;0.0;0.0166982;2.6108;-0.351046;0.420933;;1970-01-01 00:00:01.485
394.0;397.0;0.0;339.4;225.4;6.03565;334.848;223.493;0.0;59.0;1.0;0.69212;-1.83465;-2.99538;0.755179;-1.84942;-2.9908900000000003;-1.19117;-0.385963;-1.38218;-4.54283;3.4806199999999996;4.41672;431.0;184.0;6.04983;427.73;184.865;0.0;6.0;1.0;-0.0650313;-1.5458399999999999;-3.17719;-0.0273452;-1.51657;-3.07369;-0.579914;-0.150364;-1.0208700000000002;-4.14804;1.9759099999999998;-0.375233;1.0;0.874484;-0.203585;0.28226100000000004;-0.119304;-1.6458400000000002;-3.27315;14.0853;-8.722760000000001;14.0853;647.851;829.0;1226.0;1114.0;1024.0;224.0;1024.0;1024.0;1024.0;1.0;4.0;0.0;0.0166975;2.62345;-0.285019;0.7056520000000001;;1970-01-01 00:00:01.496
394.0;397.0;0.0;339.4;225.4;6.03565;334.848;223.493;0.0;59.0;1.0;0.69212;-1.83465;-2.99538;0.755179;-1.84942;-2.9908900000000003;-1.19117;-0.385963;-1.38218;-4.54283;3.4806199999999996;4.41672;431.0;184.0;6.04983;427.73;184.865;0.0;6.0;1.0;-0.0650313;-1.5458399999999999;-3.17719;-0.0273452;-1.51657;-3.07369;-0.579914;-0.150364;-1.0208700000000002;-4.14804;1.9759099999999998;-0.375233;1.0;0.874484;-0.203585;0.28226100000000004;-0.119304;-1.6458400000000002;-3.27315;14.0853;-8.722760000000001;14.0853;647.851;829.0;1226.0;1114.0;1024.0;224.0;1024.0;1024.0;1024.0;1.0;4.0;0.0;0.0166975;2.62345;-0.285019;0.7056520000000001;;1970-01-01 00:00:01.507
395.0;398.0;0.0;343.333;223.778;5.88624;338.724;222.49099999999999;0.0;60.0;1.0;0.676343;-1.8697599999999999;-3.07902;0.731528;-1.85552;-3.01733;-1.2553299999999998;-0.303477;-1.2752299999999999;-4.22133;3.7863;4.930280000000001;433.0;182.0;6.01006;429.876;183.46900000000002;0.0;7.0;1.0;-0.0820671;-1.54223;-3.2074;-0.043761800000000003;-1.52427;-3.1138;-0.6959930000000001;-0.169742;-1.2098200000000001;-4.61453;1.7453;-1.62944;1.0;0.879358;-0.21329099999999998;0.305836;-0.14783;-1.6422299999999999;-3.3231699999999997;14.5512;-7.8271;14.5512;647.851;814.0;1226.0;1159.0;1024.0;224.0;1024.0;1024.0;1024.0;1.0;4.0;0.0;0.0166982;2.63807;-0.298608;0.7645890000000001;;1970-01-01 00:00:01.518
396.0;399.0;0.0;346.909;222.727;5.84891;342.62199999999996;221.47799999999998;0.0;61.0;1.0;0.650154;-1.8742299999999998;-3.10363;0.707116;-1.86113;-3.0432200000000003;-1.30552;-0.26879400000000003;-1.25039;-3.9851400000000003;3.9247300000000003;5.10861;435.0;181.0;6.06696;432.046;182.162;0.0;8.0;1.0;-0.097747;-1.52091;-3.18186;-0.0599573;-1.52326;-3.13422;-0.782552;-0.169605;-1.33582;-4.93852;1.4092200000000001;-2.93177;1.0;0.887407;-0.240221;0.282127;-0.180291;-1.62091;-3.32535;14.9748;-7.8663300000000005;14.9748;647.851;816.0;1226.0;1181.0;1024.0;224.0;1024.0;1024.0;1024.0;1.0;4.0;0.0;0.016697299999999998;2.66222;-0.336309;0.705317;;1970-01-01 00:00:01.529
396.0;399.0;0.0;346.909;222.727;5.84891;342.62199999999996;221.47799999999998;0.0;61.0;1.0;0.650154;-1.8742299999999998;-3.10363;0.707116;-1.86113;-3.0432200000000003;-1.30552;-0.26879400000000003;-1.25039;-3.9851400000000003;3.9247300000000003;5.10861;435.0;181.0;6.06696;432.046;182.162;0.0;8.0;1.0;-0.097747;-1.52091;-3.18186;-0.0599573;-1.52326;-3.13422;-0.782552;-0.169605;-1.33582;-4.93852;1.4092200000000001;-2.93177;1.0;0.887407;-0.240221;0.282127;-0.180291;-1.62091;-3.32535;14.9748;-7.8663300000000005;14.9748;647.851;816.0;1226.0;1181.0;1024.0;224.0;1024.0;1024.0;1024.0;1.0;4.0;0.0;0.016697299999999998;2.66222;-0.336309;0.705317;;1970-01-01 00:00:01.540
397.0;400.0;0.0;350.727;221.81799999999998;5.76841;346.608;220.50099999999998;0.0;62.0;1.0;0.6261979999999999;-1.89383;-3.15129;0.68284;-1.87094;-3.07564;-1.35979;-0.24649200000000002;-1.24654;-3.8346400000000003;3.92085;5.0244599999999995;437.0;179.0;5.9831;434.231;180.6;0.0;9.0;1.0;-0.115797;-1.52833;-3.23569;-0.07670930000000001;-1.52478;-3.16466;-0.846037;-0.199786;-1.5092700000000001;-5.06776;0.785136;-4.64735;1.0;0.89517;-0.24260900000000002;0.324827;-0.21233000000000002;-1.6283299999999998;-3.40047;15.2023;-7.61988;15.2023;647.851;813.0;1226.0;1217.0;1024.0;224.0;1024.0;1024.0;1024.0;1.0;4.0;0.0;0.0166985;2.68551;-0.33965300000000004;0.8120689999999999;;1970-01-01 00:00:01.551
398.0;401.0;0.0;354.667;220.222;5.7865;350.69199999999995;219.332;0.0;63.0;1.0;0.590268;-1.87644;-3.1490400000000003;0.655069;-1.8725900000000002;-3.09766;-1.40949;-0.23720300000000002;-1.27134;-3.70191;3.69655;4.5374099999999995;439.0;177.0;5.79162;436.425;178.855;0.0;10.0;1.0;-0.136857;-1.5645;-3.3521900000000002;-0.0947538;-1.5367;-3.22092;-0.897907;-0.25200900000000004;-1.7386;-5.036580000000001;0.0414944;-6.52666;1.0;0.89979;-0.208087;0.44695100000000004;-0.244721;-1.6645;-3.54461;15.3145;-6.870839999999999;15.3145;647.851;831.0;1226.0;1235.0;1024.0;224.0;1024.0;1024.0;1024.0;1.0;4.0;0.0;0.016697299999999998;2.69937;-0.29132199999999997;1.1173799999999998;;1970-01-01 00:00:01.562
398.0;401.0;0.0;354.667;220.222;5.7865;350.69199999999995;219.332;0.0;63.0;1.0;0.590268;-1.87644;-3.1490400000000003;0.655069;-1.8725900000000002;-3.09766;-1.40949;-0.23720300000000002;-1.27134;-3.70191;3.69655;4.5374099999999995;439.0;177.0;5.79162;436.425;178.855;0.0;10.0;1.0;-0.136857;-1.5645;-3.3521900000000002;-0.0947538;-1.5367;-3.22092;-0.897907;-0.25200900000000004;-1.7386;-5.036580000000001;0.0414944;-6.52666;1.0;0.89979;-0.208087;0.44695100000000004;-0.244721;-1.6645;-3.54461;15.3145;-6.870839999999999;15.3145;647.851;831.0;1226.0;1235.0;1024.0;224.0;1024.0;1024.0;1024.0;1.0;4.0;0.0;0.016697299999999998;2.69937;-0.29132199999999997;1.1173799999999998;;1970-01-01 00:00:01.573
399.0;402.0;0.0;359.0;219.0;5.6302900000000005;354.967;218.141;0.0;64.0;1.0;0.56824;-1.9194799999999999;-3.2424;0.62902;-1.8866599999999998;-3.14108;-1.45729;-0.265714;-1.37012;-3.57999;3.1429;3.46191;440.0;175.0;6.04115;438.30400000000003;176.97799999999998;0.0;11.0;1.0;-0.139465;-1.48612;-3.22286;-0.10816700000000001;-1.52152;-3.2215;-0.9259120000000001;-0.221081;-1.8103900000000002;-4.7304;-0.338674;-7.62838;1.0;0.89271;-0.300539;0.322315;-0.26369000000000004;-1.58612;-3.4634;15.0272;-8.92409;15.0272;647.851;865.0;1226.0;1235.0;1024.0;224.0;1024.0;1024.0;1024.0;1.0;4.0;0.0;0.0166982;2.67813;-0.420754;0.805787;;1970-01-01 00:00:01.584
400.0;403.0;0.0;363.333;217.778;5.74828;359.376;216.93599999999998;0.0;65.0;1.0;0.5189590000000001;-1.8712400000000002;-3.18172;0.596002;-1.8820299999999999;-3.15327;-1.5099;-0.289624;-1.47038;-3.4205099999999997;2.27037;1.72501;440.0;175.0;6.04115;439.093;176.278;1.0;0.0;1.0;-0.139465;-1.48612;-3.22286;-0.10816700000000001;-1.52152;-3.2215;-0.9259120000000001;-0.221081;-1.8103900000000002;-4.7304;-0.338674;-7.62838;1.0;0.85603;-0.295912;0.305324;-0.26002800000000004;-1.58612;-3.4586;13.8887;-9.15072;13.8887;647.851;854.0;1226.0;1207.0;1024.0;224.0;1024.0;1024.0;1024.0;1.0;4.0;0.0;0.0166975;2.56809;-0.41427700000000006;0.76331;;1970-01-01 00:00:01.595
401.0;404.0;0.0;368.0;216.0;5.5951;363.98400000000004;215.544;0.0;66.0;1.0;0.491547;-1.90926;-3.27759;0.564665;-1.8902;-3.19057;-1.5721399999999999;-0.31222;-1.57389;-3.3172;1.32732;-0.157381;444.0;172.0;5.8966;441.775;173.926;0.0;1.0;1.0;-0.176733;-1.5014;-3.3159099999999997;-0.128737;-1.51549;-3.24982;-0.902526;-0.12895;-1.6889900000000002;-3.9422699999999997;-0.129921;-6.86345;1.0;0.864733;-0.288802;0.36649;-0.300068;-1.6014;-3.55706;13.4721;-9.31504;13.4721;647.851;868.0;1226.0;1171.0;1024.0;224.0;1024.0;1024.0;1024.0;1.0;4.0;0.0;0.0166982;2.5942;-0.40432199999999996;0.916226;;1970-01-01 00:00:01.606
401.0;404.0;0.0;368.0;216.0;5.5951;363.98400000000004;215.544;0.0;66.0;1.0;0.491547;-1.90926;-3.27759;0.564665;-1.8902;-3.19057;-1.5721399999999999;-0.31222;-1.57389;-3.3172;1.32732;-0.157381;444.0;172.0;5.8966;441.775;173.926;0.0;1.0;1.0;-0.176733;-1.5014;-3.3159099999999997;-0.128737;-1.51549;-3.24982;-0.902526;-0.12895;-1.6889900000000002;-3.9422699999999997;-0.129921;-6.86345;1.0;0.864733;-0.288802;0.36649;-0.300068;-1.6014;-3.55706;13.4721;-9.31504;13.4721;647.851;868.0;1226.0;1171.0;1024.0;224.0;1024.0;1024.0;1024.0;1.0;4.0;0.0;0.0166982;2.5942;-0.40432199999999996;0.916226;;1970-01-01 00:00:01.617
402.0;405.0;0.0;373.0;214.0;5.59009;368.836;213.94400000000002;0.0;67.0;1.0;0.44735600000000003;-1.89609;-3.2904;0.529472;-1.8919700000000002;-3.22052;-1.6525299999999998;-0.310434;-1.65221;-3.3757800000000002;0.6301399999999999;-1.69871;445.0;170.0;6.01284;443.782;171.771;0.0;2.0;1.0;-0.181615;-1.45854;-3.26098;-0.1446;-1.4984;-3.25317;-0.8866040000000001;0.0111398;-1.49034;-3.01767;0.5410590000000001;-5.0780400000000006;1.0;0.824202;-0.333426;0.252144;-0.29473;-1.55854;-3.47266;11.9467;-10.104;11.9467;647.851;885.0;1211.0;1099.0;1024.0;224.0;1024.0;1024.0;1024.0;1.0;4.0;0.0;0.016697299999999998;2.47261;-0.466796;0.63036;;1970-01-01 00:00:01.628
403.0;406.0;0.0;378.0;212.0;5.65275;373.861;212.196;0.0;68.0;1.0;0.39825900000000003;-1.8603599999999998;-3.26369;0.490108;-1.8824900000000002;-3.23347;-1.76101;-0.23234899999999997;-1.62147;-3.6273699999999995;0.43455200000000005;-2.51614;447.0;169.0;5.87381;445.782;170.00900000000001;0.0;3.0;1.0;-0.202905;-1.48599;-3.3428699999999996;-0.162092;-1.49468;-3.2800800000000003;-0.881482;0.104496;-1.39335;-2.14915;1.26265;-3.24373;1.0;0.790995;-0.296498;0.2741;-0.300886;-1.58599;-3.50757;10.4542;-8.4168;10.4542;647.851;854.0;1169.0;1072.0;1024.0;224.0;1024.0;1024.0;1024.0;1.0;4.0;0.0;0.0166985;2.37298;-0.41509700000000005;0.68525;;1970-01-01 00:00:01.639
403.0;406.0;0.0;378.0;212.0;5.65275;373.861;212.196;0.0;68.0;1.0;0.39825900000000003;-1.8603599999999998;-3.26369;0.490108;-1.8824900000000002;-3.23347;-1.76101;-0.23234899999999997;-1.62147;-3.6273699999999995;0.43455200000000005;-2.51614;447.0;169.0;5.87381;445.782;170.00900000000001;0.0;3.0;1.0;-0.202905;-1.48599;-3.3428699999999996;-0.162092;-1.49468;-3.2800800000000003;-0.881482;0.104496;-1.39335;-2.14915;1.26265;-3.24373;1.0;0.790995;-0.296498;0.2741;-0.300886;-1.58599;-3.50757;10.4542;-8.4168;10.4542;647.851;854.0;1169.0;1072.0;1024.0;224.0;1024.0;1024.0;1024.0;1.0;4.0;0.0;0.0166985;2.37298;-0.41509700000000005;0.68525;;1970-01-01 00:00:01.650
404.0;407.0;0.0;383.273;210.18200000000002;5.5924;376.091;211.04;1.0;0.0;1.0;0.39825900000000003;-1.8603599999999998;-3.26369;0.490108;-1.8824900000000002;-3.23347;-1.76101;-0.23234899999999997;-1.62147;-3.6273699999999995;0.43455200000000005;-2.51614;447.0;169.0;5.87381;446.74800000000005;169.138;1.0;0.0;1.0;-0.202905;-1.48599;-3.3428699999999996;-0.162092;-1.49468;-3.2800800000000003;-0.881482;0.104496;-1.39335;-2.14915;1.26265;-3.24373;1.0;0.7882060000000001;-0.296498;0.259868;-0.298097;-1.58599;-3.4933400000000003;10.3956;-8.4168;10.3956;647.851;858.0;1168.0;1071.0;1024.0;224.0;1024.0;1024.0;1024.0;1.0;4.0;0.0;0.0166985;2.36462;-0.41509700000000005;0.649671;;1970-01-01 00:00:01.661
405.0;408.0;0.0;388.6;208.6;5.5463;378.32099999999997;209.885;2.0;0.0;1.0;0.39825900000000003;-1.8603599999999998;-3.26369;0.490108;-1.8824900000000002;-3.23347;-1.76101;-0.23234899999999997;-1.62147;-3.6273699999999995;0.43455200000000005;-2.51614;449.0;167.0;5.97526;448.6;167.425;0.0;1.0;1.0;-0.216162;-1.44684;-3.29535;-0.178313;-1.48033;-3.2846599999999997;-0.833131;0.19581300000000001;-1.19534;-1.25085;1.9421700000000002;-1.00621;1.0;0.805234;-0.335644;0.218309;-0.315126;-1.54684;-3.4517800000000003;10.4148;-9.12925;10.4148;647.851;866.0;1154.0;1031.0;1024.0;224.0;1024.0;1024.0;1024.0;1.0;4.0;0.0;0.0166985;2.4157;-0.469901;0.545773;;1970-01-01 00:00:01.672
405.0;408.0;0.0;388.6;208.6;5.5463;378.32099999999997;209.885;2.0;0.0;1.0;0.39825900000000003;-1.8603599999999998;-3.26369;0.490108;-1.8824900000000002;-3.23347;-1.76101;-0.23234899999999997;-1.62147;-3.6273699999999995;0.43455200000000005;-2.51614;449.0;167.0;5.97526;448.6;167.425;0.0;1.0;1.0;-0.216162;-1.44684;-3.29535;-0.178313;-1.48033;-3.2846599999999997;-0.833131;0.19581300000000001;-1.19534;-1.25085;1.9421700000000002;-1.00621;1.0;0.805234;-0.335644;0.218309;-0.315126;-1.54684;-3.4517800000000003;10.4148;-9.12925;10.4148;647.851;866.0;1154.0;1031.0;1024.0;224.0;1024.0;1024.0;1024.0;1.0;4.0;0.0;0.0166985;2.4157;-0.469901;0.545773;;1970-01-01 00:00:01.683
406.0;409.0;0.0;393.333;207.0;5.54341;380.55;208.729;3.0;0.0;1.0;0.39825900000000003;-1.8603599999999998;-3.26369;0.490108;-1.8824900000000002;-3.23347;-1.76101;-0.23234899999999997;-1.62147;-3.6273699999999995;0.43455200000000005;-2.51614;449.0;167.0;5.97526;449.60400000000004;166.518;1.0;0.0;1.0;-0.216162;-1.44684;-3.29535;-0.178313;-1.48033;-3.2846599999999997;-0.833131;0.19581300000000001;-1.19534;-1.25085;1.9421700000000002;-1.00621;1.0;0.795319;-0.335644;0.189641;-0.305211;-1.54684;-3.42311;10.2065;-9.12925;10.2065;647.851;868.0;1151.0;1027.0;1024.0;224.0;1024.0;1024.0;1024.0;1.0;4.0;0.0;0.0166985;2.38596;-0.469901;0.474102;;1970-01-01 00:00:01.694
407.0;410.0;0.0;399.091;205.273;5.53126;392.039;205.84799999999998;0.0;1.0;1.0;0.21673699999999999;-1.8506599999999997;-3.3689400000000003;0.408097;-1.87294;-3.27411;-1.71397;-0.14033299999999999;-1.4425299999999999;-2.98683;0.518569;-1.96534;449.0;167.0;5.97526;450.60699999999997;165.61;2.0;0.0;1.0;-0.216162;-1.44684;-3.29535;-0.178313;-1.48033;-3.2846599999999997;-0.833131;0.19581300000000001;-1.19534;-1.25085;1.9421700000000002;-1.00621;1.0;0.696673;-0.32609699999999997;0.125134;-0.288576;-1.54684;-3.39925;8.46429;-7.759289999999999;8.46429;647.851;849.0;1133.0;1034.0;1024.0;224.0;1024.0;1024.0;1024.0;1.0;4.0;0.0;0.0667913;2.09002;-0.456535;0.312836;;1970-01-01 00:00:01.705
407.0;410.0;0.0;399.091;205.273;5.53126;392.039;205.84799999999998;0.0;1.0;1.0;0.21673699999999999;-1.8506599999999997;-3.3689400000000003;0.408097;-1.87294;-3.27411;-1.71397;-0.14033299999999999;-1.4425299999999999;-2.98683;0.518569;-1.96534;449.0;167.0;5.97526;450.60699999999997;165.61;2.0;0.0;1.0;-0.216162;-1.44684;-3.29535;-0.178313;-1.48033;-3.2846599999999997;-0.833131;0.19581300000000001;-1.19534;-1.25085;1.9421700000000002;-1.00621;1.0;0.696673;-0.32609699999999997;0.125134;-0.288576;-1.54684;-3.39925;8.46429;-7.759289999999999;8.46429;647.851;849.0;1133.0;1034.0;1024.0;224.0;1024.0;1024.0;1024.0;1.0;4.0;0.0;0.0667913;2.09002;-0.456535;0.312836;;1970-01-01 00:00:01.716
408.0;411.0;0.0;404.727;203.81799999999998;5.5019;399.755;203.804;0.0;2.0;1.0;0.166774;-1.8495400000000002;-3.3942099999999997;0.3357;-1.86592;-3.31014;-1.8091099999999998;-0.0290048;-1.31549;-2.72852;0.94119;-1.0338;453.0;166.0;5.96039;452.74699999999996;164.888;0.0;1.0;1.0;-0.250189;-1.4434799999999999;-3.3082;-0.199876;-1.46927;-3.2917199999999998;-0.7517;0.27901;-0.886812;-0.40026799999999996;2.43737;1.43675;1.0;0.6574180000000001;-0.322444;0.10068400000000001;-0.321718;-1.54348;-3.4108199999999997;6.40391;-6.24555;6.40391;647.851;821.0;1091.0;1005.0;1024.0;224.0;1024.0;1024.0;1024.0;1.0;4.0;0.0;0.016697299999999998;1.97225;-0.45142200000000005;0.251711;;1970-01-01 00:00:01.727
409.0;412.0;0.0;409.6;202.0;5.51492;406.12;201.895;0.0;3.0;1.0;0.12229100000000001;-1.8314700000000002;-3.39529;0.271677;-1.85559;-3.33569;-1.94871;0.05298630000000001;-1.27482;-2.8051;1.4766299999999999;-0.0997557;454.0;166.0;6.0366599999999995;454.289;164.424;0.0;2.0;1.0;-0.255294;-1.42524;-3.2664;-0.21650100000000003;-1.4560600000000001;-3.28413;-0.710536;0.324223;-0.6821010000000001;0.275775;2.76871;3.56489;1.0;0.585448;-0.330347;-0.000298262;-0.313771;-1.52524;-3.3353900000000003;3.62718;-5.3235;3.62718;647.851;808.0;1034.0;969.0;1024.0;224.0;1024.0;1024.0;1024.0;1.0;4.0;0.0;0.0166985;1.7563400000000002;-0.46248599999999995;-0.0007456539999999999;;1970-01-01 00:00:01.738
409.0;412.0;0.0;409.6;202.0;5.51492;406.12;201.895;0.0;3.0;1.0;0.12229100000000001;-1.8314700000000002;-3.39529;0.271677;-1.85559;-3.33569;-1.94871;0.05298630000000001;-1.27482;-2.8051;1.4766299999999999;-0.0997557;454.0;166.0;6.0366599999999995;454.289;164.424;0.0;2.0;1.0;-0.255294;-1.42524;-3.2664;-0.21650100000000003;-1.4560600000000001;-3.28413;-0.710536;0.324223;-0.6821010000000001;0.275775;2.76871;3.56489;1.0;0.585448;-0.330347;-0.000298262;-0.313771;-1.52524;-3.3353900000000003;3.62718;-5.3235;3.62718;647.851;808.0;1034.0;969.0;1024.0;224.0;1024.0;1024.0;1024.0;1.0;4.0;0.0;0.0166985;1.7563400000000002;-0.46248599999999995;-0.0007456539999999999;;1970-01-01 00:00:01.749
410.0;413.0;0.0;415.273;200.18200000000002;5.50156;412.19800000000004;200.02599999999998;0.0;4.0;1.0;0.07113589999999999;-1.82218;-3.41266;0.211515;-1.8455599999999999;-3.3587800000000003;-2.10921;0.150597;-1.21261;-3.1125599999999998;2.11786;0.90175;454.0;166.0;6.0366599999999995;455.361;163.543;1.0;0.0;1.0;-0.255294;-1.42524;-3.2664;-0.21650100000000003;-1.4560600000000001;-3.28413;-0.710536;0.324223;-0.6821010000000001;0.275775;2.76871;3.56489;1.0;0.516835;-0.320325;-0.044353;-0.30532;-1.52524;-3.3144199999999997;1.06284;-3.87216;1.06284;647.851;783.0;989.0;977.0;1024.0;224.0;1024.0;1024.0;1024.0;1.0;4.0;0.0;0.016697299999999998;1.5505;-0.448455;-0.110883;;1970-01-01 00:00:01.760
411.0;414.0;0.0;421.0;198.4;5.49828;418.199;198.178;0.0;5.0;1.0;0.019200400000000003;-1.8097900000000002;-3.42363;0.153821;-1.83483;-3.3782300000000003;-2.26539;0.242434;-1.14735;-3.49875;2.74227;1.8848;454.0;166.0;6.0366599999999995;456.43300000000005;162.661;2.0;0.0;1.0;-0.255294;-1.42524;-3.2664;-0.21650100000000003;-1.4560600000000001;-3.28413;-0.710536;0.324223;-0.6821010000000001;0.275775;2.76871;3.56489;1.0;0.45551099999999994;-0.309593;-0.06729389999999999;-0.301691;-1.52524;-3.31094;-1.31823;-2.48295;-1.31823;647.851;760.0;945.0;987.0;1024.0;224.0;1024.0;1024.0;1024.0;1.0;4.0;0.0;0.0166982;1.36653;-0.43343100000000007;-0.168235;;1970-01-01 00:00:01.771
412.0;415.0;0.0;426.667;197.0;5.49814;424.17;196.46099999999998;0.0;6.0;1.0;-0.0322282;-1.79925;-3.43075;0.098006;-1.8241599999999998;-3.39399;-2.40289;0.300714;-1.11566;-3.80775;3.06422;2.4771799999999997;459.0;166.0;5.94062;458.72;163.36;0.0;1.0;1.0;-0.30141999999999997;-1.44828;-3.31921;-0.241977;-1.45373;-3.29465;-0.67293;0.32903000000000004;-0.5068779999999999;0.665466;2.6585900000000002;4.71329;1.0;0.44160299999999997;-0.275879;-0.034294099999999994;-0.343597;-1.5482799999999999;-3.35969;-2.83608;-1.11171;-2.83608;647.851;746.0;910.0;978.0;1024.0;224.0;1024.0;1024.0;1024.0;1.0;4.0;0.0;0.016697299999999998;1.32481;-0.38623;-0.0857353;;1970-01-01 00:00:01.782
412.0;415.0;0.0;426.667;197.0;5.49814;424.17;196.46099999999998;0.0;6.0;1.0;-0.0322282;-1.79925;-3.43075;0.098006;-1.8241599999999998;-3.39399;-2.40289;0.300714;-1.11566;-3.80775;3.06422;2.4771799999999997;459.0;166.0;5.94062;458.72;163.36;0.0;1.0;1.0;-0.30141999999999997;-1.44828;-3.31921;-0.241977;-1.45373;-3.29465;-0.67293;0.32903000000000004;-0.5068779999999999;0.665466;2.6585900000000002;4.71329;1.0;0.44160299999999997;-0.275879;-0.034294099999999994;-0.343597;-1.5482799999999999;-3.35969;-2.83608;-1.11171;-2.83608;647.851;746.0;910.0;978.0;1024.0;224.0;1024.0;1024.0;1024.0;1.0;4.0;0.0;0.016697299999999998;1.32481;-0.38623;-0.0857353;;1970-01-01 00:00:01.793
413.0;416.0;0.0;432.222;195.55599999999998;5.47595;430.105;194.81799999999998;0.0;7.0;1.0;-0.0829842;-1.79558;-3.4519300000000004;0.0437089;-1.81558;-3.41137;-2.89657;0.40942199999999995;-1.2174200000000002;-7.00623;4.03345;2.38509;462.0;166.0;5.73339;461.124;163.576;0.0;2.0;1.0;-0.338425;-1.50063;-3.4391800000000003;-0.270911;-1.4678;-3.3380099999999997;-0.67883;0.264069;-0.488879;0.851757;2.14597;5.00889;1.0;0.412788;-0.214956;0.0508976;-0.369079;-1.60063;-3.4622699999999997;-6.85561;1.41029;-6.85561;647.851;723.0;826.0;981.0;1024.0;224.0;1024.0;1024.0;1024.0;1.0;4.0;0.0;0.0166985;1.2383600000000001;-0.300938;0.127244;;1970-01-01 00:00:01.804
414.0;417.0;0.0;437.333;193.778;5.419;435.87699999999995;193.12;0.0;8.0;1.0;-0.130921;-1.8008099999999998;-3.49726;-0.00868002;-1.81115;-3.4371400000000003;-3.11289;0.46432700000000005;-1.23749;-9.409130000000001;4.38971;1.74248;463.333;166.667;5.81768;463.08099999999996;163.89700000000002;0.0;3.0;1.0;-0.344958;-1.48365;-3.38619;-0.293125;-1.47255;-3.3524599999999998;-0.692657;0.206625;-0.450957;0.922269;1.50999;5.05764;1.0;0.366053;-0.2275;-0.029505700000000003;-0.374733;-1.58365;-3.40763;-9.25452;1.89575;-9.25452;647.851;711.0;826.0;960.0;1024.0;224.0;1024.0;1024.0;1024.0;1.0;4.0;0.0;0.016697299999999998;1.09816;-0.3185;-0.0737643;;1970-01-01 00:00:01.815
414.0;417.0;0.0;437.333;193.778;5.419;435.87699999999995;193.12;0.0;8.0;1.0;-0.130921;-1.8008099999999998;-3.49726;-0.00868002;-1.81115;-3.4371400000000003;-3.11289;0.46432700000000005;-1.23749;-9.409130000000001;4.38971;1.74248;463.333;166.667;5.81768;463.08099999999996;163.89700000000002;0.0;3.0;1.0;-0.344958;-1.48365;-3.38619;-0.293125;-1.47255;-3.3524599999999998;-0.692657;0.206625;-0.450957;0.922269;1.50999;5.05764;1.0;0.366053;-0.2275;-0.029505700000000003;-0.374733;-1.58365;-3.40763;-9.25452;1.89575;-9.25452;647.851;711.0;826.0;960.0;1024.0;224.0;1024.0;1024.0;1024.0;1.0;4.0;0.0;0.016697299999999998;1.09816;-0.3185;-0.0737643;;1970-01-01 00:00:01.826
415.0;418.0;0.0;443.333;191.778;5.31406;441.81800000000004;191.312;0.0;9.0;1.0;-0.18984700000000002;-1.8207200000000001;-3.57671;-0.06303009999999999;-1.81402;-3.4790099999999997;-3.20407;0.44454399999999994;-1.31472;-10.6575;4.19714;0.886193;465.0;167.0;5.8285599999999995;464.934;164.21200000000002;0.0;4.0;1.0;-0.358583;-1.48326;-3.3782900000000002;-0.312762;-1.47576;-3.36021;-0.737671;0.134906;-0.451553;0.782038;0.760091;4.81634;1.0;0.32721500000000003;-0.23076300000000002;-0.0801072;-0.390245;-1.5832600000000001;-3.3989;-10.3933;1.57918;-10.3933;647.851;718.0;826.0;946.0;1024.0;224.0;1024.0;1024.0;1024.0;1.0;4.0;0.0;0.0166982;0.9816440000000001;-0.323069;-0.200268;;1970-01-01 00:00:01.837
416.0;419.0;0.0;449.152;189.273;5.31029;447.82099999999997;189.264;0.0;10.0;1.0;-0.24465399999999998;-1.8024;-3.59226;-0.11751700000000001;-1.81053;-3.5129900000000003;-3.23611;0.40658;-1.4045100000000001;-10.8937;3.54031;-0.234452;466.0;166.0;5.88676;466.51800000000003;164.114;0.0;5.0;1.0;-0.363514;-1.46153;-3.3495699999999995;-0.327988;-1.47149;-3.35702;-0.8262209999999999;0.0742908;-0.46645600000000004;0.24607800000000002;-0.15695599999999998;4.1485199999999995;1.0;0.28016199999999997;-0.24900500000000003;-0.142498;-0.397679;-1.5615299999999999;-3.37049;-10.9859;0.753644;-10.9859;647.851;765.0;760.0;932.0;1024.0;224.0;1024.0;1024.0;1024.0;1.0;4.0;0.0;0.0166975;0.840485;-0.348607;-0.356246;;1970-01-01 00:00:01.848
416.0;419.0;0.0;449.152;189.273;5.31029;447.82099999999997;189.264;0.0;10.0;1.0;-0.24465399999999998;-1.8024;-3.59226;-0.11751700000000001;-1.81053;-3.5129900000000003;-3.23611;0.40658;-1.4045100000000001;-10.8937;3.54031;-0.234452;466.0;166.0;5.88676;466.51800000000003;164.114;0.0;5.0;1.0;-0.363514;-1.46153;-3.3495699999999995;-0.327988;-1.47149;-3.35702;-0.8262209999999999;0.0742908;-0.46645600000000004;0.24607800000000002;-0.15695599999999998;4.1485199999999995;1.0;0.28016199999999997;-0.24900500000000003;-0.142498;-0.397679;-1.5615299999999999;-3.37049;-10.9859;0.753644;-10.9859;647.851;765.0;760.0;932.0;1024.0;224.0;1024.0;1024.0;1024.0;1.0;4.0;0.0;0.0166975;0.840485;-0.348607;-0.356246;;1970-01-01 00:00:01.859
417.0;420.0;0.0;454.25199999999995;187.195;5.32981;453.63800000000003;187.178;0.0;11.0;1.0;-0.291507;-1.7795900000000002;-3.58986;-0.169714;-1.80125;-3.53605;-3.23339;0.378019;-1.47279;-10.401;2.66551;-1.43997;468.0;167.0;5.59066;468.246;164.387;0.0;6.0;1.0;-0.400618;-1.54637;-3.52205;-0.349777;-1.49396;-3.4065300000000005;-0.8948139999999999;-0.0689022;-0.646392;-0.40415500000000004;-1.27135;2.5960400000000003;1.0;0.258131;-0.15487599999999999;0.00136948;-0.427845;-1.6463700000000001;-3.5374199999999996;-10.9493;2.09551;-10.9493;647.851;758.0;761.0;961.0;1024.0;224.0;1024.0;1024.0;1024.0;1.0;4.0;0.0;0.0166982;0.774393;-0.21682600000000002;0.00342369;;1970-01-01 00:00:01.870
418.0;421.0;0.0;459.74800000000005;184.805;5.3362300000000005;459.441;184.96599999999998;0.0;12.0;1.0;-0.342558;-1.75883;-3.5979;-0.22156700000000001;-1.78852;-3.5546;-3.2159400000000002;0.369079;-1.52494;-9.48674;1.8722599999999998;-2.49801;471.0;167.0;5.70136;470.4;164.607;0.0;7.0;1.0;-0.419096;-1.51635;-3.4536599999999997;-0.370573;-1.50068;-3.42067;-1.05031;-0.22878400000000002;-0.890961;-1.7492;-2.9899;0.0241607;1.0;0.197529;-0.272175;-0.10094700000000001;-0.419096;-1.51635;-3.4536599999999997;-13.2212;-8.78185;-13.2212;647.851;923.0;762.0;927.0;1024.0;224.0;1024.0;1024.0;1024.0;1.0;4.0;0.0;0.016697299999999998;0.592587;-0.38104499999999997;-0.252368;;1970-01-01 00:00:01.881
418.0;421.0;0.0;459.74800000000005;184.805;5.3362300000000005;459.441;184.96599999999998;0.0;12.0;1.0;-0.342558;-1.75883;-3.5979;-0.22156700000000001;-1.78852;-3.5546;-3.2159400000000002;0.369079;-1.52494;-9.48674;1.8722599999999998;-2.49801;471.0;167.0;5.70136;470.4;164.607;0.0;7.0;1.0;-0.419096;-1.51635;-3.4536599999999997;-0.370573;-1.50068;-3.42067;-1.05031;-0.22878400000000002;-0.890961;-1.7492;-2.9899;0.0241607;1.0;0.197529;-0.272175;-0.10094700000000001;-0.419096;-1.51635;-3.4536599999999997;-13.2212;-8.78185;-13.2212;647.851;923.0;762.0;927.0;1024.0;224.0;1024.0;1024.0;1024.0;1.0;4.0;0.0;0.016697299999999998;0.592587;-0.38104499999999997;-0.252368;;1970-01-01 00:00:01.892
419.0;422.0;0.0;464.551;183.0;5.250380000000001;465.01099999999997;182.851;0.0;13.0;1.0;-0.393806;-1.7733;-3.6662199999999996;-0.273239;-1.7839599999999998;-3.5880900000000002;-3.19499;0.347722;-1.6205100000000001;-6.8835;0.8770129999999999;-3.10819;472.444;166.0;5.84961;472.36300000000006;164.47;0.0;8.0;1.0;-0.42079700000000003;-1.47081;-3.37085;-0.38564;-1.4917200000000002;-3.4057199999999996;-1.08825;-0.232769;-0.804922;-2.68412;-3.7775800000000004;-1.2473100000000001;1.0;0.147558;-0.313143;-0.21724000000000002;-0.42079700000000003;-1.47081;-3.37085;-15.1006;-8.60454;-15.1006;647.851;939.0;762.0;903.0;1024.0;224.0;1024.0;1024.0;1024.0;1.0;4.0;0.0;0.0166985;0.442675;-0.4384;-0.5431;;1970-01-01 00:00:01.903
420.0;423.0;0.0;469.836;180.40900000000002;5.24215;470.56;180.55700000000002;0.0;14.0;1.0;-0.44473100000000004;-1.75553;-3.68561;-0.324687;-1.7754299999999998;-3.61735;-3.17866;0.35125100000000004;-1.6918;-4.3927;0.07474789999999999;-3.67876;475.0;166.0;5.65608;474.542;164.396;0.0;9.0;1.0;-0.457741;-1.52114;-3.48619;-0.40726999999999997;-1.50054;-3.4298599999999997;-1.10867;-0.25141199999999997;-0.7919689999999999;-3.27144;-4.095280000000001;-2.10989;1.0;0.133054;-0.254291;-0.131161;-0.457741;-1.52114;-3.48619;-15.3396;-7.97571;-15.3396;647.851;943.0;766.0;915.0;1024.0;224.0;1024.0;1024.0;1024.0;1.0;4.0;0.0;0.016697299999999998;0.399163;-0.356007;-0.32790199999999997;;1970-01-01 00:00:01.914
420.0;423.0;0.0;469.836;180.40900000000002;5.24215;470.56;180.55700000000002;0.0;14.0;1.0;-0.44473100000000004;-1.75553;-3.68561;-0.324687;-1.7754299999999998;-3.61735;-3.17866;0.35125100000000004;-1.6918;-4.3927;0.07474789999999999;-3.67876;475.0;166.0;5.65608;474.542;164.396;0.0;9.0;1.0;-0.457741;-1.52114;-3.48619;-0.40726999999999997;-1.50054;-3.4298599999999997;-1.10867;-0.25141199999999997;-0.7919689999999999;-3.27144;-4.095280000000001;-2.10989;1.0;0.133054;-0.254291;-0.131161;-0.457741;-1.52114;-3.48619;-15.3396;-7.97571;-15.3396;647.851;943.0;766.0;915.0;1024.0;224.0;1024.0;1024.0;1024.0;1.0;4.0;0.0;0.016697299999999998;0.399163;-0.356007;-0.32790199999999997;;1970-01-01 00:00:01.925
421.0;424.0;0.0;474.208;178.875;5.23669;475.80199999999996;178.47099999999998;0.0;15.0;1.0;-0.48685600000000007;-1.74518;-3.69754;-0.373337;-1.76635;-3.64141;-3.1461099999999997;0.401061;-1.66346;-2.40421;-0.128762;-3.5996;477.0;167.0;5.73069;476.7;164.685;0.0;10.0;1.0;-0.469196;-1.5085899999999999;-3.4359800000000003;-0.42584799999999995;-1.50296;-3.4317;-1.1167;-0.259414;-0.7605970000000001;-3.47615;-4.0315;-2.4998;1.0;0.0958587;-0.257765;-0.205422;-0.469196;-1.5085899999999999;-3.4359800000000003;-16.3813;-6.4454;-16.3813;647.851;914.0;785.0;908.0;1024.0;224.0;1024.0;1024.0;1024.0;1.0;4.0;0.0;0.0166982;0.287576;-0.36087199999999997;-0.513556;;1970-01-01 00:00:01.936
422.0;425.0;0.0;478.28;174.96;5.33927;480.721;175.778;0.0;16.0;1.0;-0.515556;-1.68117;-3.6467400000000003;-0.41600299999999996;-1.7408;-3.6430000000000002;-3.07938;0.519062;-1.51718;-0.816753;0.37183;-2.6095900000000003;478.28;174.96;5.33927;478.10699999999997;164.179;1.0;0.0;1.0;-0.469196;-1.5085899999999999;-3.4359800000000003;-0.42584799999999995;-1.50296;-3.4317;-1.1167;-0.259414;-0.7605970000000001;-3.47615;-4.0315;-2.4998;1.0;0.0995527;-0.059631100000000006;0.00373244;-0.515556;-1.68117;-3.6467400000000003;2.09061;-1.0852899999999999;2.09061;647.851;776.0;1049.0;1017.0;1024.0;224.0;1024.0;1024.0;1024.0;1.0;4.0;0.0;0.0166975;0.298658;-0.0834836;0.00933111;;1970-01-01 00:00:01.947
423.0;426.0;0.0;481.792;173.958;5.38595;485.225;173.576;0.0;17.0;1.0;-0.543622;-1.6588599999999998;-3.62026;-0.45428900000000005;-1.71622;-3.6361800000000004;-2.9838;0.650935;-1.3101;0.506452;1.31272;-0.916223;481.792;173.958;5.38595;479.515;163.674;2.0;0.0;1.0;-0.469196;-1.5085899999999999;-3.4359800000000003;-0.42584799999999995;-1.50296;-3.4317;-1.1167;-0.259414;-0.7605970000000001;-3.47615;-4.0315;-2.4998;1.0;0.014907499999999999;-0.207629;-0.200199;-0.469196;-1.5085899999999999;-3.4359800000000003;-18.3378;-1.5892;-18.3378;647.851;823.0;800.0;946.0;1024.0;224.0;1024.0;1024.0;1024.0;1.0;4.0;0.0;0.0166982;0.044722500000000005;-0.29068;-0.500498;;1970-01-01 00:00:01.958
423.0;426.0;0.0;481.792;173.958;5.38595;485.225;173.576;0.0;17.0;1.0;-0.543622;-1.6588599999999998;-3.62026;-0.45428900000000005;-1.71622;-3.6361800000000004;-2.9838;0.650935;-1.3101;0.506452;1.31272;-0.916223;481.792;173.958;5.38595;479.515;163.674;2.0;0.0;1.0;-0.469196;-1.5085899999999999;-3.4359800000000003;-0.42584799999999995;-1.50296;-3.4317;-1.1167;-0.259414;-0.7605970000000001;-3.47615;-4.0315;-2.4998;1.0;0.014907499999999999;-0.207629;-0.200199;-0.469196;-1.5085899999999999;-3.4359800000000003;-18.3378;-1.5892;-18.3378;647.851;823.0;800.0;946.0;1024.0;224.0;1024.0;1024.0;1024.0;1.0;4.0;0.0;0.0166982;0.044722500000000005;-0.29068;-0.500498;;1970-01-01 00:00:01.969
424.0;427.0;0.0;485.36400000000003;173.18200000000002;5.2981300000000005;489.44699999999995;171.804;0.0;18.0;1.0;-0.586275;-1.6802700000000002;-3.68431;-0.493884;-1.70543;-3.6506199999999995;-2.87752;0.722308;-1.16941;1.65505;2.19791;0.869715;485.36400000000003;173.18200000000002;5.2981300000000005;480.923;163.168;3.0;0.0;1.0;-0.469196;-1.5085899999999999;-3.4359800000000003;-0.42584799999999995;-1.50296;-3.4317;-1.1167;-0.259414;-0.7605970000000001;-3.47615;-4.0315;-2.4998;1.0;0.0923904;-0.025166400000000002;0.033690899999999996;-0.586275;-1.6802700000000002;-3.68431;1.9402;-0.458028;1.9402;647.851;750.0;1087.0;1045.0;1024.0;224.0;1024.0;1024.0;1024.0;1.0;4.0;0.0;0.016697299999999998;0.277171;-0.035233;0.0842273;;1970-01-01 00:00:01.980
425.0;428.0;0.0;487.69599999999997;171.65200000000002;5.22339;493.06800000000004;170.10299999999998;0.0;19.0;1.0;-0.616942;-1.69213;-3.74511;-0.530802;-1.70144;-3.6789699999999996;-2.75484;0.762821;-1.0644799999999999;2.75035;2.97605;2.7418;487.69599999999997;171.65200000000002;5.22339;482.33;162.662;4.0;0.0;1.0;-0.469196;-1.5085899999999999;-3.4359800000000003;-0.42584799999999995;-1.50296;-3.4317;-1.1167;-0.259414;-0.7605970000000001;-3.47615;-4.0315;-2.4998;1.0;0.08614010000000001;-0.00930929;0.066143;-0.616942;-1.69213;-3.74511;1.8089400000000002;-0.169429;1.8089400000000002;647.851;739.0;1102.0;1064.0;1024.0;224.0;1024.0;1024.0;1024.0;1.0;4.0;0.0;0.0166985;0.25842;-0.013033000000000001;0.165358;;1970-01-01 00:00:01.991
425.0;428.0;0.0;487.69599999999997;171.65200000000002;5.22339;493.06800000000004;170.10299999999998;0.0;19.0;1.0;-0.616942;-1.69213;-3.74511;-0.530802;-1.70144;-3.6789699999999996;-2.75484;0.762821;-1.0644799999999999;2.75035;2.97605;2.7418;487.69599999999997;171.65200000000002;5.22339;482.33;162.662;4.0;0.0;1.0;-0.469196;-1.5085899999999999;-3.4359800000000003;-0.42584799999999995;-1.50296;-3.4317;-1.1167;-0.259414;-0.7605970000000001;-3.47615;-4.0315;-2.4998;1.0;0.08614010000000001;-0.00930929;0.066143;-0.616942;-1.69213;-3.74511;1.8089400000000002;-0.169429;1.8089400000000002;647.851;739.0;1102.0;1064.0;1024.0;224.0;1024.0;1024.0;1024.0;1.0;4.0;0.0;0.0166985;0.25842;-0.013033000000000001;0.165358;;1970-01-01 00:00:02.002
426.0;429.0;0.0;490.267;170.97799999999998;5.22893;496.329;168.72799999999998;0.0;20.0;1.0;-0.6408229999999999;-1.68498;-3.7447;-0.563808;-1.6965;-3.69869;-2.6076;0.772806;-0.963448;3.9301699999999995;3.4687;4.553059999999999;490.267;170.97799999999998;5.22893;483.73800000000006;162.157;5.0;0.0;1.0;-0.469196;-1.5085899999999999;-3.4359800000000003;-0.42584799999999995;-1.50296;-3.4317;-1.1167;-0.259414;-0.7605970000000001;-3.47615;-4.0315;-2.4998;1.0;0.07701519999999999;-0.0115249;0.046014099999999995;-0.6408229999999999;-1.68498;-3.7447;1.61732;-0.20975300000000002;1.61732;647.851;736.0;1118.0;1075.0;1024.0;224.0;1024.0;1024.0;1024.0;1.0;4.0;0.0;0.016697299999999998;0.231046;-0.0161349;0.11503499999999998;;1970-01-01 00:00:02.013
427.0;430.0;0.0;491.833;170.417;5.32163;499.01099999999997;167.62400000000002;0.0;21.0;1.0;-0.64435;-1.65124;-3.68238;-0.587971;-1.68292;-3.6938;-2.4214900000000004;0.796779;-0.787239;5.25115;3.66114;6.23016;491.833;170.417;5.32163;485.14599999999996;161.651;6.0;0.0;1.0;-0.469196;-1.5085899999999999;-3.4359800000000003;-0.42584799999999995;-1.50296;-3.4317;-1.1167;-0.259414;-0.7605970000000001;-3.47615;-4.0315;-2.4998;1.0;-0.0663585;-0.07433580000000001;-0.222111;-0.521612;-1.60859;-3.47168;-10.5271;9.00521;-10.5271;647.851;614.0;1002.0;1071.0;1024.0;224.0;1024.0;1024.0;1024.0;1.0;4.0;0.0;0.0166982;-0.199076;-0.10407000000000001;-0.555279;;1970-01-01 00:00:02.024
427.0;430.0;0.0;491.833;170.417;5.32163;499.01099999999997;167.62400000000002;0.0;21.0;1.0;-0.64435;-1.65124;-3.68238;-0.587971;-1.68292;-3.6938;-2.4214900000000004;0.796779;-0.787239;5.25115;3.66114;6.23016;491.833;170.417;5.32163;485.14599999999996;161.651;6.0;0.0;1.0;-0.469196;-1.5085899999999999;-3.4359800000000003;-0.42584799999999995;-1.50296;-3.4317;-1.1167;-0.259414;-0.7605970000000001;-3.47615;-4.0315;-2.4998;1.0;-0.0663585;-0.07433580000000001;-0.222111;-0.521612;-1.60859;-3.47168;-10.5271;9.00521;-10.5271;647.851;614.0;1002.0;1071.0;1024.0;224.0;1024.0;1024.0;1024.0;1.0;4.0;0.0;0.0166982;-0.199076;-0.10407000000000001;-0.555279;;1970-01-01 00:00:02.035
428.0;431.0;0.0;495.586;169.207;5.24144;501.972;166.51;0.0;22.0;1.0;-0.689937;-1.66691;-3.7450900000000003;-0.6185609999999999;-1.67812;-3.7091800000000004;-2.26162;0.7283109999999999;-0.736563;6.41564;3.03212;6.85474;484.0;174.0;5.6993599999999995;485.833;168.91099999999997;0.0;1.0;1.0;-0.533062;-1.56794;-3.42098;-0.458012;-1.52245;-3.4284800000000004;-0.929585;-0.257377;-0.599017;-2.29203;-3.0810000000000004;-1.7645099999999998;1.0;-0.0258497;-0.010175100000000001;-0.247577;-0.592711;-1.6679400000000002;-3.46161;-9.86706;9.28285;-9.86706;647.851;614.0;1012.0;1061.0;1024.0;224.0;1024.0;1024.0;1024.0;1.0;4.0;0.0;0.0166975;-0.07754910000000001;-0.0142452;-0.618943;;1970-01-01 00:00:02.046
429.0;432.0;0.0;497.085;168.458;5.22967;504.41900000000004;165.535;0.0;23.0;1.0;-0.705791;-1.6647;-3.7574699999999996;-0.64473;-1.6741;-3.72367;-2.11731;0.60516;-0.791237;7.308860000000001;1.63652;6.18441;483.333;175.333;5.709169999999999;486.088;171.6;0.0;2.0;1.0;-0.52632;-1.5749600000000001;-3.40866;-0.478505;-1.53821;-3.42253;-0.814725;-0.242756;-0.391365;-1.2153399999999999;-2.1956599999999997;-0.549604;1.0;-0.0520188;-0.0061506;-0.26206399999999996;-0.592711;-1.6679400000000002;-3.46161;-9.40649;7.75515;-9.40649;647.851;646.0;1033.0;1051.0;1024.0;224.0;1024.0;1024.0;1024.0;1.0;4.0;0.0;0.0166982;-0.156056;-0.00861084;-0.655161;;1970-01-01 00:00:02.057
429.0;432.0;0.0;497.085;168.458;5.22967;504.41900000000004;165.535;0.0;23.0;1.0;-0.705791;-1.6647;-3.7574699999999996;-0.64473;-1.6741;-3.72367;-2.11731;0.60516;-0.791237;7.308860000000001;1.63652;6.18441;483.333;175.333;5.709169999999999;486.088;171.6;0.0;2.0;1.0;-0.52632;-1.5749600000000001;-3.40866;-0.478505;-1.53821;-3.42253;-0.814725;-0.242756;-0.391365;-1.2153399999999999;-2.1956599999999997;-0.549604;1.0;-0.0520188;-0.0061506;-0.26206399999999996;-0.592711;-1.6679400000000002;-3.46161;-9.40649;7.75515;-9.40649;647.851;646.0;1033.0;1051.0;1024.0;224.0;1024.0;1024.0;1024.0;1.0;4.0;0.0;0.0166982;-0.156056;-0.00861084;-0.655161;;1970-01-01 00:00:02.068
430.0;433.0;0.0;498.805;167.748;5.09704;506.566;164.672;0.0;24.0;1.0;-0.740995;-1.7022400000000002;-3.8590800000000005;-0.673609;-1.6825400000000001;-3.7642900000000004;-1.98795;0.454502;-0.928585;7.936960000000001;-0.08731699999999999;4.67215;484.0;176.0;5.745369999999999;486.63;173.18599999999998;0.0;3.0;1.0;-0.528794;-1.56986;-3.38398;-0.493591;-1.5477;-3.41097;-0.734413;-0.239533;-0.215459;-0.0985875;-1.33885;1.01872;1.0;-0.08743510000000002;-0.0126758;-0.352752;-0.586174;-1.66986;-3.41154;-10.6109;5.67783;-10.6109;647.851;694.0;988.0;987.0;1024.0;224.0;1024.0;1024.0;1024.0;1.0;4.0;0.0;0.016697299999999998;-0.262305;-0.017746099999999997;-0.8818790000000001;;1970-01-01 00:00:02.079
431.0;434.0;0.0;499.63;167.21;5.12783;508.213;163.94299999999998;0.0;25.0;1.0;-0.74457;-1.68765;-3.83881;-0.6948979999999999;-1.6840700000000002;-3.78665;-1.8479299999999999;0.342057;-0.9870639999999999;8.38305;-1.7323099999999998;3.11239;483.333;178.667;5.91539;486.785;175.077;0.0;4.0;1.0;-0.507972;-1.54348;-3.27428;-0.49790500000000004;-1.54644;-3.36996;-0.66476;-0.252956;-0.0578878;0.786237;-0.8436100000000001;2.1025099999999997;1.0;-0.128114;-0.0405869;-0.495116;-0.566783;-1.6434799999999998;-3.2915300000000003;-10.9726;3.7080599999999997;-10.9726;647.851;746.0;975.0;943.0;1024.0;224.0;1024.0;1024.0;1024.0;1.0;4.0;0.0;0.0166985;-0.384343;-0.056821699999999996;-1.23779;;1970-01-01 00:00:02.090
431.0;434.0;0.0;499.63;167.21;5.12783;508.213;163.94299999999998;0.0;25.0;1.0;-0.74457;-1.68765;-3.83881;-0.6948979999999999;-1.6840700000000002;-3.78665;-1.8479299999999999;0.342057;-0.9870639999999999;8.38305;-1.7323099999999998;3.11239;483.333;178.667;5.91539;486.785;175.077;0.0;4.0;1.0;-0.507972;-1.54348;-3.27428;-0.49790500000000004;-1.54644;-3.36996;-0.66476;-0.252956;-0.0578878;0.786237;-0.8436100000000001;2.1025099999999997;1.0;-0.128114;-0.0405869;-0.495116;-0.566783;-1.6434799999999998;-3.2915300000000003;-10.9726;3.7080599999999997;-10.9726;647.851;746.0;975.0;943.0;1024.0;224.0;1024.0;1024.0;1024.0;1.0;4.0;0.0;0.0166985;-0.384343;-0.056821699999999996;-1.23779;;1970-01-01 00:00:02.101
