ID;RS_ID;insect_log;imLx_drone;imLy_drone;disparity_drone;imLx_pred_drone;imLy_pred_drone;n_frames_lost_drone;n_frames_tracking_drone;foundL_drone;posX_drone;posY_drone;posZ_drone;sposX_drone;sposY_drone;sposZ_drone;svelX_drone;svelY_drone;svelZ_drone;saccX_drone;saccY_drone;saccZ_drone;dtrkr_state;imLx_insect;imLy_insect;disparity_insect;imLx_pred_insect;imLy_pred_insect;n_frames_lost_insect;n_frames_tracking_insect;foundL_insect;posX_insect;posY_insect;posZ_insect;sposX_insect;sposY_insect;sposZ_insect;svelX_insect;svelY_insect;svelZ_insect;saccX_insect;saccY_insect;saccZ_insect;trkrs_state;interceptor_state;hunt_vol_check;nav_state;valid;flight_mode;target_pos_x;target_pos_y;target_pos_z;hoverthrottle;autoThrottle;autoRoll;autoPitch;autoYaw;joyThrottle;joyRoll;joyPitch;joyYaw;joyArmSwitch;joyModeSwitch;joyTakeoffSwitch;dt;heading;Sheading;Unnamed: 69;time
2641.0;2644.0;0.0;-1.0;-1.0;-1.0;-1.0;-1.0;100.0;0.0;0.0;0.0;0.0;0.0;0.0;0.0;0.0;0.0;0.0;0.0;0.0;0.0;0.0;1.0;350.0;74.0;5.397130000000001;350.0;74.0;0.0;1.0;1.0;0.685709;-0.016206;-4.1181;0.685709;-0.016206;-4.1181;0.0;0.0;0.0;0.0;0.0;0.0;2.0;4.0;5.0;5.0;0.0;3.0;0.0;0.0;0.0;675.0;304.0;1024.0;1024.0;1024.0;224.0;1024.0;1024.0;1024.0;1824.0;3.0;0.0;0.0;0.00022151900000000002;0.0;;1970-01-01 00:00:00.000
2642.0;2645.0;0.0;-1.0;-1.0;-1.0;-1.0;-1.0;100.0;0.0;0.0;0.0;0.0;0.0;0.0;0.0;0.0;0.0;0.0;0.0;0.0;0.0;0.0;1.0;349.0;73.0;5.10939;349.909;73.9091;0.0;2.0;1.0;0.734103;-0.06265;-4.35569;0.700227;-0.030139999999999997;-4.18938;0.0;0.0;0.0;0.0;0.0;0.0;2.0;4.0;5.0;5.0;0.0;3.0;0.0;0.0;0.0;675.0;304.0;1024.0;1024.0;1024.0;224.0;1024.0;1024.0;1024.0;1824.0;3.0;0.0;0.0;0.00022151900000000002;0.0;;1970-01-01 00:00:00.011
2643.0;2646.0;0.0;-1.0;-1.0;-1.0;-1.0;-1.0;100.0;0.0;0.0;0.0;0.0;0.0;0.0;0.0;0.0;0.0;0.0;0.0;0.0;0.0;0.0;1.0;347.0;71.0;4.98147;349.909;73.9091;1.0;0.0;1.0;0.734103;-0.06265;-4.35569;0.700227;-0.030139999999999997;-4.18938;0.0;0.0;0.0;0.0;0.0;0.0;2.0;4.0;5.0;5.0;0.0;3.0;0.0;0.0;0.0;675.0;304.0;1024.0;1024.0;1024.0;224.0;1024.0;1024.0;1024.0;1824.0;3.0;0.0;0.0;0.00022151900000000002;0.0;;1970-01-01 00:00:00.022
2643.0;2646.0;0.0;-1.0;-1.0;-1.0;-1.0;-1.0;100.0;0.0;0.0;0.0;0.0;0.0;0.0;0.0;0.0;0.0;0.0;0.0;0.0;0.0;0.0;1.0;347.0;71.0;4.98147;349.909;73.9091;1.0;0.0;1.0;0.734103;-0.06265;-4.35569;0.700227;-0.030139999999999997;-4.18938;0.0;0.0;0.0;0.0;0.0;0.0;2.0;4.0;5.0;5.0;0.0;3.0;0.0;0.0;0.0;675.0;304.0;1024.0;1024.0;1024.0;224.0;1024.0;1024.0;1024.0;1824.0;3.0;0.0;0.0;0.00022151900000000002;0.0;;1970-01-01 00:00:00.033
2644.0;2647.0;0.0;-1.0;-1.0;-1.0;-1.0;-1.0;100.0;0.0;0.0;0.0;0.0;0.0;0.0;0.0;0.0;0.0;0.0;0.0;0.0;0.0;0.0;1.0;346.0;69.0;5.20913;349.022;72.7955;0.0;1.0;1.0;0.748817;-0.012;-4.2945199999999994;0.714804;-0.024697999999999998;-4.22092;0.0;0.0;0.0;0.0;0.0;0.0;2.0;4.0;5.0;5.0;0.0;3.0;0.0;0.0;0.0;675.0;304.0;1024.0;1024.0;1024.0;224.0;1024.0;1024.0;1024.0;1824.0;3.0;0.0;0.0;0.00022151900000000002;0.0;;1970-01-01 00:00:00.044
2645.0;2648.0;0.0;-1.0;-1.0;-1.0;-1.0;-1.0;100.0;0.0;0.0;0.0;0.0;0.0;0.0;0.0;0.0;0.0;0.0;0.0;0.0;0.0;0.0;1.0;343.6;67.2;5.33964;347.67400000000004;71.4031;0.0;2.0;1.0;0.752969;0.025236;-4.19931;0.7262529999999999;-0.009718000000000001;-4.21444;0.0;0.0;0.0;0.0;0.0;0.0;2.0;4.0;5.0;5.0;0.0;3.0;0.0;0.0;0.0;675.0;304.0;1024.0;1024.0;1024.0;224.0;1024.0;1024.0;1024.0;1824.0;3.0;0.0;0.0;0.00022151900000000002;0.0;;1970-01-01 00:00:00.055
2645.0;2648.0;0.0;-1.0;-1.0;-1.0;-1.0;-1.0;100.0;0.0;0.0;0.0;0.0;0.0;0.0;0.0;0.0;0.0;0.0;0.0;0.0;0.0;0.0;1.0;343.6;67.2;5.33964;347.67400000000004;71.4031;0.0;2.0;1.0;0.752969;0.025236;-4.19931;0.7262529999999999;-0.009718000000000001;-4.21444;0.0;0.0;0.0;0.0;0.0;0.0;2.0;4.0;5.0;5.0;0.0;3.0;0.0;0.0;0.0;675.0;304.0;1024.0;1024.0;1024.0;224.0;1024.0;1024.0;1024.0;1824.0;3.0;0.0;0.0;0.00022151900000000002;0.0;;1970-01-01 00:00:00.066
2646.0;2649.0;0.0;-1.0;-1.0;-1.0;-1.0;-1.0;100.0;0.0;0.0;0.0;0.0;0.0;0.0;0.0;0.0;0.0;0.0;0.0;0.0;0.0;0.0;1.0;342.0;65.4286;5.3996;346.18300000000005;69.8332;0.0;3.0;1.0;0.75941;0.048861;-4.16218;0.736201;0.007856;-4.19876;0.0;0.0;0.0;0.0;0.0;0.0;2.0;4.0;5.0;5.0;0.0;3.0;0.0;0.0;0.0;675.0;304.0;1024.0;1024.0;1024.0;224.0;1024.0;1024.0;1024.0;1824.0;3.0;0.0;0.0;0.00022151900000000002;0.0;;1970-01-01 00:00:00.077
2647.0;2650.0;0.0;-1.0;-1.0;-1.0;-1.0;-1.0;100.0;0.0;0.0;0.0;0.0;0.0;0.0;0.0;0.0;0.0;0.0;0.0;0.0;0.0;0.0;1.0;341.0;63.0;5.30804;344.77;67.9743;0.0;4.0;1.0;0.781922;0.051942999999999996;-4.2472199999999996;0.7499170000000001;0.021082;-4.2133;0.0;0.0;0.0;0.0;0.0;0.0;2.0;4.0;5.0;5.0;0.0;3.0;0.0;0.0;0.0;675.0;304.0;1024.0;1024.0;1024.0;224.0;1024.0;1024.0;1024.0;1824.0;3.0;0.0;0.0;0.00022151900000000002;0.0;;1970-01-01 00:00:00.088
2647.0;2650.0;0.0;-1.0;-1.0;-1.0;-1.0;-1.0;100.0;0.0;0.0;0.0;0.0;0.0;0.0;0.0;0.0;0.0;0.0;0.0;0.0;0.0;0.0;1.0;341.0;63.0;5.30804;344.77;67.9743;0.0;4.0;1.0;0.781922;0.051942999999999996;-4.2472199999999996;0.7499170000000001;0.021082;-4.2133;0.0;0.0;0.0;0.0;0.0;0.0;2.0;4.0;5.0;5.0;0.0;3.0;0.0;0.0;0.0;675.0;304.0;1024.0;1024.0;1024.0;224.0;1024.0;1024.0;1024.0;1824.0;3.0;0.0;0.0;0.00022151900000000002;0.0;;1970-01-01 00:00:00.099
2648.0;2651.0;0.0;-1.0;-1.0;-1.0;-1.0;-1.0;100.0;0.0;0.0;0.0;0.0;0.0;0.0;0.0;0.0;0.0;0.0;0.0;0.0;0.0;0.0;1.0;339.0;62.0;5.41596;343.156;66.2995;0.0;5.0;1.0;0.7847890000000001;0.077355;-4.16794;0.760379;0.037964;-4.19969;0.0;0.0;0.0;0.0;0.0;0.0;2.0;4.0;5.0;5.0;0.0;3.0;0.0;0.0;0.0;675.0;304.0;1024.0;1024.0;1024.0;224.0;1024.0;1024.0;1024.0;1824.0;3.0;0.0;0.0;0.00022151900000000002;0.0;;1970-01-01 00:00:00.110
2649.0;2652.0;0.0;-1.0;-1.0;-1.0;-1.0;-1.0;100.0;0.0;0.0;0.0;0.0;0.0;0.0;0.0;0.0;0.0;0.0;0.0;0.0;0.0;0.0;1.0;337.333;60.6667;5.477069999999999;341.48900000000003;64.6796;0.0;6.0;1.0;0.791234;0.097002;-4.128480000000001;0.7696350000000001;0.055675;-4.17833;0.59385;0.734221;0.0945401;-2.35834;13.4216;37.3306;2.0;4.0;5.0;5.0;0.0;3.0;0.0;0.0;0.0;675.0;304.0;1024.0;1024.0;1024.0;224.0;1024.0;1024.0;1024.0;1824.0;3.0;0.0;0.0;0.00022151900000000002;0.0;;1970-01-01 00:00:00.121
2649.0;2652.0;0.0;-1.0;-1.0;-1.0;-1.0;-1.0;100.0;0.0;0.0;0.0;0.0;0.0;0.0;0.0;0.0;0.0;0.0;0.0;0.0;0.0;0.0;1.0;337.333;60.6667;5.477069999999999;341.48900000000003;64.6796;0.0;6.0;1.0;0.791234;0.097002;-4.128480000000001;0.7696350000000001;0.055675;-4.17833;0.59385;0.734221;0.0945401;-2.35834;13.4216;37.3306;2.0;4.0;5.0;5.0;0.0;3.0;0.0;0.0;0.0;675.0;304.0;1024.0;1024.0;1024.0;224.0;1024.0;1024.0;1024.0;1824.0;3.0;0.0;0.0;0.00022151900000000002;0.0;;1970-01-01 00:00:00.132
2650.0;2653.0;0.0;-1.0;-1.0;-1.0;-1.0;-1.0;100.0;0.0;0.0;0.0;0.0;0.0;0.0;0.0;0.0;0.0;0.0;0.0;0.0;0.0;0.0;1.0;336.0;59.0;5.48949;339.87699999999995;63.0095;0.0;7.0;1.0;0.801579;0.111292;-4.12793;0.7792180000000001;0.07236000000000001;-4.163209999999999;0.613498;0.828058;0.287143;-0.7083729999999999;10.7085;27.3161;2.0;4.0;5.0;5.0;0.0;3.0;0.0;0.0;0.0;675.0;304.0;1024.0;1024.0;1024.0;224.0;1024.0;1024.0;1024.0;1824.0;3.0;0.0;0.0;0.00022151900000000002;0.0;;1970-01-01 00:00:00.143
2651.0;2654.0;0.0;-1.0;-1.0;-1.0;-1.0;-1.0;100.0;0.0;0.0;0.0;0.0;0.0;0.0;0.0;0.0;0.0;0.0;0.0;0.0;0.0;0.0;1.0;336.0;59.0;5.48949;339.789;62.9155;1.0;0.0;1.0;0.801579;0.111292;-4.12793;0.7792180000000001;0.07236000000000001;-4.163209999999999;0.613498;0.828058;0.287143;-0.7083729999999999;10.7085;27.3161;2.0;4.0;5.0;5.0;0.0;3.0;0.0;0.0;0.0;675.0;304.0;1024.0;1024.0;1024.0;224.0;1024.0;1024.0;1024.0;1824.0;3.0;0.0;0.0;0.00022151900000000002;0.0;;1970-01-01 00:00:00.154
2651.0;2654.0;0.0;-1.0;-1.0;-1.0;-1.0;-1.0;100.0;0.0;0.0;0.0;0.0;0.0;0.0;0.0;0.0;0.0;0.0;0.0;0.0;0.0;0.0;1.0;336.0;59.0;5.48949;339.789;62.9155;1.0;0.0;1.0;0.801579;0.111292;-4.12793;0.7792180000000001;0.07236000000000001;-4.163209999999999;0.613498;0.828058;0.287143;-0.7083729999999999;10.7085;27.3161;2.0;4.0;5.0;5.0;0.0;3.0;0.0;0.0;0.0;675.0;304.0;1024.0;1024.0;1024.0;224.0;1024.0;1024.0;1024.0;1824.0;3.0;0.0;0.0;0.00022151900000000002;0.0;;1970-01-01 00:00:00.165
2652.0;2655.0;0.0;-1.0;-1.0;-1.0;-1.0;-1.0;100.0;0.0;0.0;0.0;0.0;0.0;0.0;0.0;0.0;0.0;0.0;0.0;0.0;0.0;0.0;1.0;332.8;56.4;5.635;337.316;60.5984;0.0;1.0;1.0;0.80925;0.15173299999999998;-4.0347;0.7882279999999999;0.09617200000000001;-4.1246599999999995;0.580195;0.859224;0.47954600000000003;-0.786241;6.29514;16.7023;2.0;4.0;5.0;5.0;0.0;3.0;0.0;0.0;0.0;675.0;304.0;1024.0;1024.0;1024.0;224.0;1024.0;1024.0;1024.0;1824.0;3.0;0.0;0.0;0.00022151900000000002;0.0;;1970-01-01 00:00:00.176
2653.0;2656.0;0.0;-1.0;-1.0;-1.0;-1.0;-1.0;100.0;0.0;0.0;0.0;0.0;0.0;0.0;0.0;0.0;0.0;0.0;0.0;0.0;0.0;0.0;1.0;332.0;56.0;5.42145;337.185;60.4644;1.0;0.0;1.0;0.80925;0.15173299999999998;-4.0347;0.7882279999999999;0.09617200000000001;-4.1246599999999995;0.580195;0.859224;0.47954600000000003;-0.786241;6.29514;16.7023;2.0;4.0;5.0;5.0;0.0;3.0;0.0;0.0;0.0;675.0;304.0;1024.0;1024.0;1024.0;224.0;1024.0;1024.0;1024.0;1824.0;3.0;0.0;0.0;0.00022151900000000002;0.0;;1970-01-01 00:00:00.187
2654.0;2657.0;0.0;-1.0;-1.0;-1.0;-1.0;-1.0;100.0;0.0;0.0;0.0;0.0;0.0;0.0;0.0;0.0;0.0;0.0;0.0;0.0;0.0;0.0;1.0;332.0;56.0;5.42145;337.05400000000003;60.3303;2.0;0.0;1.0;0.80925;0.15173299999999998;-4.0347;0.7882279999999999;0.09617200000000001;-4.1246599999999995;0.580195;0.859224;0.47954600000000003;-0.786241;6.29514;16.7023;2.0;4.0;5.0;5.0;0.0;3.0;0.0;0.0;0.0;675.0;304.0;1024.0;1024.0;1024.0;224.0;1024.0;1024.0;1024.0;1824.0;3.0;0.0;0.0;0.00022151900000000002;0.0;;1970-01-01 00:00:00.198
2654.0;2657.0;0.0;-1.0;-1.0;-1.0;-1.0;-1.0;100.0;0.0;0.0;0.0;0.0;0.0;0.0;0.0;0.0;0.0;0.0;0.0;0.0;0.0;0.0;1.0;332.0;56.0;5.42145;337.05400000000003;60.3303;2.0;0.0;1.0;0.80925;0.15173299999999998;-4.0347;0.7882279999999999;0.09617200000000001;-4.1246599999999995;0.580195;0.859224;0.47954600000000003;-0.786241;6.29514;16.7023;2.0;4.0;5.0;5.0;0.0;3.0;0.0;0.0;0.0;675.0;304.0;1024.0;1024.0;1024.0;224.0;1024.0;1024.0;1024.0;1824.0;3.0;0.0;0.0;0.00022151900000000002;0.0;;1970-01-01 00:00:00.209
2655.0;2658.0;0.0;-1.0;-1.0;-1.0;-1.0;-1.0;100.0;0.0;0.0;0.0;0.0;0.0;0.0;0.0;0.0;0.0;0.0;0.0;0.0;0.0;0.0;1.0;329.0;52.0;5.27161;336.92199999999997;60.1962;3.0;0.0;1.0;0.80925;0.15173299999999998;-4.0347;0.7882279999999999;0.09617200000000001;-4.1246599999999995;0.580195;0.859224;0.47954600000000003;-0.786241;6.29514;16.7023;2.0;4.0;5.0;5.0;0.0;3.0;0.0;0.0;0.0;675.0;304.0;1024.0;1024.0;1024.0;224.0;1024.0;1024.0;1024.0;1824.0;3.0;0.0;0.0;0.00022151900000000002;0.0;;1970-01-01 00:00:00.220
2656.0;2659.0;0.0;-1.0;-1.0;-1.0;-1.0;-1.0;100.0;0.0;0.0;0.0;0.0;0.0;0.0;0.0;0.0;0.0;0.0;0.0;0.0;0.0;0.0;1.0;328.0;51.0;5.52424;332.635;55.7785;0.0;1.0;1.0;0.8688819999999999;0.175523;-4.1439;0.8124239999999999;0.119978;-4.1304300000000005;0.53072;0.7841359999999999;0.451425;-0.627472;3.13424;8.85345;2.0;4.0;5.0;5.0;0.0;3.0;0.0;0.0;0.0;675.0;304.0;1024.0;1024.0;1024.0;224.0;1024.0;1024.0;1024.0;1824.0;3.0;0.0;0.0;0.00022151900000000002;0.0;;1970-01-01 00:00:00.231
2656.0;2659.0;0.0;-1.0;-1.0;-1.0;-1.0;-1.0;100.0;0.0;0.0;0.0;0.0;0.0;0.0;0.0;0.0;0.0;0.0;0.0;0.0;0.0;0.0;1.0;328.0;51.0;5.52424;332.635;55.7785;0.0;1.0;1.0;0.8688819999999999;0.175523;-4.1439;0.8124239999999999;0.119978;-4.1304300000000005;0.53072;0.7841359999999999;0.451425;-0.627472;3.13424;8.85345;2.0;4.0;5.0;5.0;0.0;3.0;0.0;0.0;0.0;675.0;304.0;1024.0;1024.0;1024.0;224.0;1024.0;1024.0;1024.0;1824.0;3.0;0.0;0.0;0.00022151900000000002;0.0;;1970-01-01 00:00:00.242
2657.0;2660.0;0.0;-1.0;-1.0;-1.0;-1.0;-1.0;100.0;0.0;0.0;0.0;0.0;0.0;0.0;0.0;0.0;0.0;0.0;0.0;0.0;0.0;0.0;1.0;327.33299999999997;49.3333;5.48631;330.413;53.12;0.0;2.0;1.0;0.8809600000000001;0.182536;-4.1813400000000005;0.8329850000000001;0.138745;-4.1457;0.517432;0.752359;0.432792;-1.10495;1.7852400000000002;8.43498;2.0;4.0;5.0;5.0;0.0;3.0;0.0;0.0;0.0;675.0;304.0;1024.0;1024.0;1024.0;224.0;1024.0;1024.0;1024.0;1824.0;3.0;0.0;0.0;0.00022151900000000002;0.0;;1970-01-01 00:00:00.253
2658.0;2661.0;0.0;-1.0;-1.0;-1.0;-1.0;-1.0;100.0;0.0;0.0;0.0;0.0;0.0;0.0;0.0;0.0;0.0;0.0;0.0;0.0;0.0;0.0;1.0;326.0;48.0;5.33876;330.13699999999994;52.8284;1.0;0.0;1.0;0.8809600000000001;0.182536;-4.1813400000000005;0.8329850000000001;0.138745;-4.1457;0.517432;0.752359;0.432792;-1.10495;1.7852400000000002;8.43498;2.0;4.0;5.0;5.0;0.0;3.0;0.0;0.0;0.0;675.0;304.0;1024.0;1024.0;1024.0;224.0;1024.0;1024.0;1024.0;1824.0;3.0;0.0;0.0;0.00022151900000000002;0.0;;1970-01-01 00:00:00.264
2658.0;2661.0;0.0;-1.0;-1.0;-1.0;-1.0;-1.0;100.0;0.0;0.0;0.0;0.0;0.0;0.0;0.0;0.0;0.0;0.0;0.0;0.0;0.0;0.0;1.0;326.0;48.0;5.33876;330.13699999999994;52.8284;1.0;0.0;1.0;0.8809600000000001;0.182536;-4.1813400000000005;0.8329850000000001;0.138745;-4.1457;0.517432;0.752359;0.432792;-1.10495;1.7852400000000002;8.43498;2.0;4.0;5.0;5.0;0.0;3.0;0.0;0.0;0.0;675.0;304.0;1024.0;1024.0;1024.0;224.0;1024.0;1024.0;1024.0;1824.0;3.0;0.0;0.0;0.00022151900000000002;0.0;;1970-01-01 00:00:00.275
2659.0;2662.0;0.0;-1.0;-1.0;-1.0;-1.0;-1.0;100.0;0.0;0.0;0.0;0.0;0.0;0.0;0.0;0.0;0.0;0.0;0.0;0.0;0.0;0.0;1.0;325.0;47.0;5.43202;329.86199999999997;52.5368;2.0;0.0;1.0;0.8809600000000001;0.182536;-4.1813400000000005;0.8329850000000001;0.138745;-4.1457;0.517432;0.752359;0.432792;-1.10495;1.7852400000000002;8.43498;2.0;4.0;5.0;5.0;0.0;3.0;0.0;0.0;0.0;675.0;304.0;1024.0;1024.0;1024.0;224.0;1024.0;1024.0;1024.0;1824.0;3.0;0.0;0.0;0.00022151900000000002;0.0;;1970-01-01 00:00:00.286
2660.0;2663.0;0.0;-1.0;-1.0;-1.0;-1.0;-1.0;100.0;0.0;0.0;0.0;0.0;0.0;0.0;0.0;0.0;0.0;0.0;0.0;0.0;0.0;0.0;1.0;324.0;46.0;5.38815;329.587;52.2452;3.0;0.0;1.0;0.8809600000000001;0.182536;-4.1813400000000005;0.8329850000000001;0.138745;-4.1457;0.517432;0.752359;0.432792;-1.10495;1.7852400000000002;8.43498;2.0;4.0;5.0;5.0;0.0;3.0;0.0;0.0;0.0;675.0;304.0;1024.0;1024.0;1024.0;224.0;1024.0;1024.0;1024.0;1824.0;3.0;0.0;0.0;0.00022151900000000002;0.0;;1970-01-01 00:00:00.297
2660.0;2663.0;0.0;-1.0;-1.0;-1.0;-1.0;-1.0;100.0;0.0;0.0;0.0;0.0;0.0;0.0;0.0;0.0;0.0;0.0;0.0;0.0;0.0;0.0;1.0;324.0;46.0;5.38815;329.587;52.2452;3.0;0.0;1.0;0.8809600000000001;0.182536;-4.1813400000000005;0.8329850000000001;0.138745;-4.1457;0.517432;0.752359;0.432792;-1.10495;1.7852400000000002;8.43498;2.0;4.0;5.0;5.0;0.0;3.0;0.0;0.0;0.0;675.0;304.0;1024.0;1024.0;1024.0;224.0;1024.0;1024.0;1024.0;1824.0;3.0;0.0;0.0;0.00022151900000000002;0.0;;1970-01-01 00:00:00.308
2661.0;2664.0;0.0;-1.0;-1.0;-1.0;-1.0;-1.0;100.0;0.0;0.0;0.0;0.0;0.0;0.0;0.0;0.0;0.0;0.0;0.0;0.0;0.0;0.0;1.0;323.0;44.0;5.50207;326.08299999999997;47.9122;0.0;1.0;1.0;0.917783;0.224196;-4.19744;0.858424;0.164381;-4.16122;0.491138;0.684376;0.330565;-0.912467;0.469192;4.16829;2.0;4.0;5.0;5.0;0.0;3.0;0.0;0.0;0.0;675.0;304.0;1024.0;1024.0;1024.0;224.0;1024.0;1024.0;1024.0;1824.0;3.0;0.0;0.0;0.00022151900000000002;0.0;;1970-01-01 00:00:00.319
2662.0;2665.0;0.0;-1.0;-1.0;-1.0;-1.0;-1.0;100.0;0.0;0.0;0.0;0.0;0.0;0.0;0.0;0.0;0.0;0.0;0.0;0.0;0.0;0.0;1.0;323.0;43.0;5.47993;324.512;45.5877;0.0;2.0;1.0;0.9214889999999999;0.228694;-4.21967;0.877344;0.183674;-4.17876;0.49315699999999996;0.64649;0.197548;-0.7330270000000001;0.119853;2.6907900000000002;2.0;4.0;5.0;5.0;0.0;3.0;0.0;0.0;0.0;675.0;304.0;1024.0;1024.0;1024.0;224.0;1024.0;1024.0;1024.0;1824.0;3.0;0.0;0.0;0.00022151900000000002;0.0;;1970-01-01 00:00:00.330
2662.0;2665.0;0.0;-1.0;-1.0;-1.0;-1.0;-1.0;100.0;0.0;0.0;0.0;0.0;0.0;0.0;0.0;0.0;0.0;0.0;0.0;0.0;0.0;0.0;1.0;323.0;43.0;5.47993;324.512;45.5877;0.0;2.0;1.0;0.9214889999999999;0.228694;-4.21967;0.877344;0.183674;-4.17876;0.49315699999999996;0.64649;0.197548;-0.7330270000000001;0.119853;2.6907900000000002;2.0;4.0;5.0;5.0;0.0;3.0;0.0;0.0;0.0;675.0;304.0;1024.0;1024.0;1024.0;224.0;1024.0;1024.0;1024.0;1824.0;3.0;0.0;0.0;0.00022151900000000002;0.0;;1970-01-01 00:00:00.341
2663.0;2666.0;0.0;-1.0;-1.0;-1.0;-1.0;-1.0;100.0;0.0;0.0;0.0;0.0;0.0;0.0;0.0;0.0;0.0;0.0;0.0;0.0;0.0;0.0;1.0;322.0;42.0;5.43912;323.236;43.8769;0.0;3.0;1.0;0.9375879999999999;0.230767;-4.25665;0.895417;0.197802;-4.20213;0.510015;0.619047;0.0468168;-0.630506;-0.313235;1.17162;2.0;4.0;5.0;5.0;0.0;3.0;0.0;0.0;0.0;675.0;304.0;1024.0;1024.0;1024.0;224.0;1024.0;1024.0;1024.0;1824.0;3.0;0.0;0.0;0.00022151900000000002;0.0;;1970-01-01 00:00:00.352
2664.0;2667.0;0.0;-1.0;-1.0;-1.0;-1.0;-1.0;100.0;0.0;0.0;0.0;0.0;0.0;0.0;0.0;0.0;0.0;0.0;0.0;0.0;0.0;0.0;1.0;322.0;40.0;5.43476;322.4;42.1036;0.0;4.0;1.0;0.938341;0.24516999999999997;-4.27073;0.908294;0.212013;-4.22271;0.545692;0.602676;-0.16764400000000002;-0.447179;-0.7000770000000001;-0.588983;2.0;4.0;5.0;5.0;0.0;3.0;0.0;0.0;0.0;675.0;304.0;1024.0;1024.0;1024.0;224.0;1024.0;1024.0;1024.0;1824.0;3.0;0.0;0.0;0.00022151900000000002;0.0;;1970-01-01 00:00:00.363
2665.0;2668.0;0.0;-1.0;-1.0;-1.0;-1.0;-1.0;100.0;0.0;0.0;0.0;0.0;0.0;0.0;0.0;0.0;0.0;0.0;0.0;0.0;0.0;0.0;1.0;321.0;39.0;5.54831;321.509;40.5703;0.0;5.0;1.0;0.928142;0.266933;-4.18855;0.914248;0.228489;-4.21246;0.598435;0.650423;-0.318922;-0.0880735;-0.775943;-2.40378;2.0;4.0;5.0;5.0;0.0;3.0;0.0;0.0;0.0;675.0;304.0;1024.0;1024.0;1024.0;224.0;1024.0;1024.0;1024.0;1824.0;3.0;0.0;0.0;0.00022151900000000002;0.0;;1970-01-01 00:00:00.374
2665.0;2668.0;0.0;-1.0;-1.0;-1.0;-1.0;-1.0;100.0;0.0;0.0;0.0;0.0;0.0;0.0;0.0;0.0;0.0;0.0;0.0;0.0;0.0;0.0;1.0;321.0;39.0;5.54831;321.509;40.5703;0.0;5.0;1.0;0.928142;0.266933;-4.18855;0.914248;0.228489;-4.21246;0.598435;0.650423;-0.318922;-0.0880735;-0.775943;-2.40378;2.0;4.0;5.0;5.0;0.0;3.0;0.0;0.0;0.0;675.0;304.0;1024.0;1024.0;1024.0;224.0;1024.0;1024.0;1024.0;1824.0;3.0;0.0;0.0;0.00022151900000000002;0.0;;1970-01-01 00:00:00.385
2666.0;2669.0;0.0;-1.0;-1.0;-1.0;-1.0;-1.0;100.0;0.0;0.0;0.0;0.0;0.0;0.0;0.0;0.0;0.0;0.0;0.0;0.0;0.0;0.0;1.0;320.0;38.0;5.74881;320.575;39.1831;0.0;6.0;1.0;0.9044610000000001;0.297838;-4.0475;0.9113120000000001;0.249293;-4.16297;0.567539;0.684491;-0.237314;0.0805212;-0.646205;-3.2258400000000003;2.0;4.0;5.0;5.0;0.0;3.0;0.0;0.0;0.0;675.0;304.0;1024.0;1024.0;1024.0;224.0;1024.0;1024.0;1024.0;1824.0;3.0;0.0;0.0;0.00022151900000000002;0.0;;1970-01-01 00:00:00.396
2667.0;2670.0;0.0;-1.0;-1.0;-1.0;-1.0;-1.0;100.0;0.0;0.0;0.0;0.0;0.0;0.0;0.0;0.0;0.0;0.0;0.0;0.0;0.0;0.0;1.0;319.0;36.0;5.4288099999999995;319.606;37.5799;0.0;7.0;1.0;0.966975;0.274395;-4.29674;0.928011;0.256824;-4.2031;0.6183350000000001;0.779756;-0.309583;0.5561229999999999;-0.00693804;-4.49116;2.0;4.0;5.0;5.0;0.0;3.0;0.0;0.0;0.0;675.0;304.0;1024.0;1024.0;1024.0;224.0;1024.0;1024.0;1024.0;1824.0;3.0;0.0;0.0;0.00022151900000000002;0.0;;1970-01-01 00:00:00.407
2667.0;2670.0;0.0;-1.0;-1.0;-1.0;-1.0;-1.0;100.0;0.0;0.0;0.0;0.0;0.0;0.0;0.0;0.0;0.0;0.0;0.0;0.0;0.0;0.0;1.0;319.0;36.0;5.4288099999999995;319.606;37.5799;0.0;7.0;1.0;0.966975;0.274395;-4.29674;0.928011;0.256824;-4.2031;0.6183350000000001;0.779756;-0.309583;0.5561229999999999;-0.00693804;-4.49116;2.0;4.0;5.0;5.0;0.0;3.0;0.0;0.0;0.0;675.0;304.0;1024.0;1024.0;1024.0;224.0;1024.0;1024.0;1024.0;1824.0;3.0;0.0;0.0;0.00022151900000000002;0.0;;1970-01-01 00:00:00.418
2668.0;2671.0;0.0;-1.0;-1.0;-1.0;-1.0;-1.0;100.0;0.0;0.0;0.0;0.0;0.0;0.0;0.0;0.0;0.0;0.0;0.0;0.0;0.0;0.0;1.0;318.66700000000003;34.6667;5.57214;318.818;36.0254;0.0;8.0;1.0;0.945091;0.301514;-4.19315;0.933135;0.270231;-4.20012;0.5937600000000001;0.813449;-0.27102600000000004;0.735354;0.662456;-4.565580000000001;2.0;4.0;5.0;5.0;0.0;3.0;0.0;0.0;0.0;675.0;304.0;1024.0;1024.0;1024.0;224.0;1024.0;1024.0;1024.0;1824.0;3.0;0.0;0.0;0.00022151900000000002;0.0;;1970-01-01 00:00:00.429
2669.0;2672.0;0.0;-1.0;-1.0;-1.0;-1.0;-1.0;100.0;0.0;0.0;0.0;0.0;0.0;0.0;0.0;0.0;0.0;0.0;0.0;0.0;0.0;0.0;1.0;318.66700000000003;34.6667;5.57214;318.311;35.3456;1.0;0.0;1.0;0.945091;0.301514;-4.19315;0.933135;0.270231;-4.20012;0.5937600000000001;0.813449;-0.27102600000000004;0.735354;0.662456;-4.565580000000001;2.0;4.0;5.0;5.0;0.0;3.0;0.0;0.0;0.0;675.0;304.0;1024.0;1024.0;1024.0;224.0;1024.0;1024.0;1024.0;1824.0;3.0;0.0;0.0;0.00022151900000000002;0.0;;1970-01-01 00:00:00.440
2669.0;2672.0;0.0;-1.0;-1.0;-1.0;-1.0;-1.0;100.0;0.0;0.0;0.0;0.0;0.0;0.0;0.0;0.0;0.0;0.0;0.0;0.0;0.0;0.0;1.0;318.66700000000003;34.6667;5.57214;318.311;35.3456;1.0;0.0;1.0;0.945091;0.301514;-4.19315;0.933135;0.270231;-4.20012;0.5937600000000001;0.813449;-0.27102600000000004;0.735354;0.662456;-4.565580000000001;2.0;4.0;5.0;5.0;0.0;3.0;0.0;0.0;0.0;675.0;304.0;1024.0;1024.0;1024.0;224.0;1024.0;1024.0;1024.0;1824.0;3.0;0.0;0.0;0.00022151900000000002;0.0;;1970-01-01 00:00:00.451
2670.0;2673.0;0.0;-1.0;-1.0;-1.0;-1.0;-1.0;100.0;0.0;0.0;0.0;0.0;0.0;0.0;0.0;0.0;0.0;0.0;0.0;0.0;0.0;0.0;1.0;317.0;33.0;5.78308;317.311;33.7812;0.0;1.0;1.0;0.925017;0.3369;-4.04855;0.9307;0.290232;-4.1546400000000006;0.477005;0.804392;-0.00011886700000000001;0.328241;1.03178;-2.89998;2.0;4.0;5.0;5.0;0.0;3.0;0.0;0.0;0.0;675.0;304.0;1024.0;1024.0;1024.0;224.0;1024.0;1024.0;1024.0;1824.0;3.0;0.0;0.0;0.00022151900000000002;0.0;;1970-01-01 00:00:00.462
2671.0;2674.0;0.0;-1.0;-1.0;-1.0;-1.0;-1.0;100.0;0.0;0.0;0.0;0.0;0.0;0.0;0.0;0.0;0.0;0.0;0.0;0.0;0.0;0.0;1.0;316.33299999999997;32.3333;5.5456199999999995;316.448;32.5671;0.0;2.0;1.0;0.9706299999999999;0.315542;-4.22538;0.942679;0.297825;-4.17587;0.403879;0.7763140000000001;0.160235;-0.288389;1.2133200000000002;-0.6178739999999999;2.0;4.0;5.0;5.0;0.0;3.0;0.0;0.0;0.0;675.0;304.0;1024.0;1024.0;1024.0;224.0;1024.0;1024.0;1024.0;1824.0;3.0;0.0;0.0;0.00022151900000000002;0.0;;1970-01-01 00:00:00.473
2671.0;2674.0;0.0;-1.0;-1.0;-1.0;-1.0;-1.0;100.0;0.0;0.0;0.0;0.0;0.0;0.0;0.0;0.0;0.0;0.0;0.0;0.0;0.0;0.0;1.0;316.33299999999997;32.3333;5.5456199999999995;316.448;32.5671;0.0;2.0;1.0;0.9706299999999999;0.315542;-4.22538;0.942679;0.297825;-4.17587;0.403879;0.7763140000000001;0.160235;-0.288389;1.2133200000000002;-0.6178739999999999;2.0;4.0;5.0;5.0;0.0;3.0;0.0;0.0;0.0;675.0;304.0;1024.0;1024.0;1024.0;224.0;1024.0;1024.0;1024.0;1824.0;3.0;0.0;0.0;0.00022151900000000002;0.0;;1970-01-01 00:00:00.484
2672.0;2675.0;0.0;-1.0;-1.0;-1.0;-1.0;-1.0;100.0;0.0;0.0;0.0;0.0;0.0;0.0;0.0;0.0;0.0;0.0;0.0;0.0;0.0;0.0;1.0;316.57099999999997;32.0;6.45878;315.95;31.6465;0.0;3.0;1.0;0.831558;0.40734499999999996;-3.6294800000000005;0.831558;0.40734499999999996;-3.6294800000000005;0.0;0.0;0.0;0.0;0.0;0.0;2.0;4.0;5.0;5.0;0.0;3.0;0.0;0.0;0.0;675.0;304.0;1024.0;1024.0;1024.0;224.0;1024.0;1024.0;1024.0;1824.0;3.0;0.0;0.0;0.00022151900000000002;0.0;;1970-01-01 00:00:00.495
2673.0;2676.0;0.0;-1.0;-1.0;-1.0;-1.0;-1.0;100.0;0.0;0.0;0.0;0.0;0.0;0.0;0.0;0.0;0.0;0.0;0.0;0.0;0.0;0.0;1.0;316.0;32.0;5.47095;315.42900000000003;31.02;0.0;4.0;1.0;0.9869209999999999;0.309364;-4.28481;0.9869209999999999;0.309364;-4.28481;0.0;0.0;0.0;0.0;0.0;0.0;2.0;4.0;5.0;5.0;0.0;3.0;0.0;0.0;0.0;675.0;304.0;1024.0;1024.0;1024.0;224.0;1024.0;1024.0;1024.0;1824.0;3.0;0.0;0.0;0.00022151900000000002;0.0;;1970-01-01 00:00:00.506
2673.0;2676.0;0.0;-1.0;-1.0;-1.0;-1.0;-1.0;100.0;0.0;0.0;0.0;0.0;0.0;0.0;0.0;0.0;0.0;0.0;0.0;0.0;0.0;0.0;1.0;316.0;32.0;5.47095;315.42900000000003;31.02;0.0;4.0;1.0;0.9869209999999999;0.309364;-4.28481;0.9869209999999999;0.309364;-4.28481;0.0;0.0;0.0;0.0;0.0;0.0;2.0;4.0;5.0;5.0;0.0;3.0;0.0;0.0;0.0;675.0;304.0;1024.0;1024.0;1024.0;224.0;1024.0;1024.0;1024.0;1824.0;3.0;0.0;0.0;0.00022151900000000002;0.0;;1970-01-01 00:00:00.517
2674.0;2677.0;0.0;-1.0;-1.0;-1.0;-1.0;-1.0;100.0;0.0;0.0;0.0;0.0;0.0;0.0;0.0;0.0;0.0;0.0;0.0;0.0;0.0;0.0;1.0;316.0;32.0;5.47095;314.893;30.2838;1.0;0.0;1.0;0.9869209999999999;0.309364;-4.28481;0.9869209999999999;0.309364;-4.28481;0.0;0.0;0.0;0.0;0.0;0.0;2.0;4.0;5.0;5.0;0.0;3.0;0.0;0.0;0.0;675.0;304.0;1024.0;1024.0;1024.0;224.0;1024.0;1024.0;1024.0;1824.0;3.0;0.0;0.0;0.00022151900000000002;0.0;;1970-01-01 00:00:00.528
2675.0;2678.0;0.0;-1.0;-1.0;-1.0;-1.0;-1.0;100.0;0.0;0.0;0.0;0.0;0.0;0.0;0.0;0.0;0.0;0.0;0.0;0.0;0.0;0.0;1.0;315.0;33.0;5.60363;314.39799999999997;30.5915;0.0;1.0;1.0;0.972469;0.317266;-4.1782;0.9825860000000001;0.311734;-4.25283;0.0;0.0;0.0;0.0;0.0;0.0;2.0;4.0;5.0;5.0;0.0;3.0;0.0;0.0;0.0;675.0;304.0;1024.0;1024.0;1024.0;224.0;1024.0;1024.0;1024.0;1824.0;3.0;0.0;0.0;0.00022151900000000002;0.0;;1970-01-01 00:00:00.539
2676.0;2679.0;0.0;-1.0;-1.0;-1.0;-1.0;-1.0;100.0;0.0;0.0;0.0;0.0;0.0;0.0;0.0;0.0;0.0;0.0;0.0;0.0;0.0;0.0;1.0;313.0;34.0;5.7935300000000005;313.374;31.0903;0.0;2.0;1.0;0.957839;0.33098;-4.03624;0.9751620000000001;0.317508;-4.18785;0.0;0.0;0.0;0.0;0.0;0.0;2.0;4.0;5.0;5.0;0.0;3.0;0.0;0.0;0.0;675.0;304.0;1024.0;1024.0;1024.0;224.0;1024.0;1024.0;1024.0;1824.0;3.0;0.0;0.0;0.00022151900000000002;0.0;;1970-01-01 00:00:00.550
2676.0;2679.0;0.0;-1.0;-1.0;-1.0;-1.0;-1.0;100.0;0.0;0.0;0.0;0.0;0.0;0.0;0.0;0.0;0.0;0.0;0.0;0.0;0.0;0.0;1.0;313.0;34.0;5.7935300000000005;313.374;31.0903;0.0;2.0;1.0;0.957839;0.33098;-4.03624;0.9751620000000001;0.317508;-4.18785;0.0;0.0;0.0;0.0;0.0;0.0;2.0;4.0;5.0;5.0;0.0;3.0;0.0;0.0;0.0;675.0;304.0;1024.0;1024.0;1024.0;224.0;1024.0;1024.0;1024.0;1824.0;3.0;0.0;0.0;0.00022151900000000002;0.0;;1970-01-01 00:00:00.561
2677.0;2680.0;0.0;-1.0;-1.0;-1.0;-1.0;-1.0;100.0;0.0;0.0;0.0;0.0;0.0;0.0;0.0;0.0;0.0;0.0;0.0;0.0;0.0;0.0;1.0;313.0;35.0;5.33;312.695;31.7478;0.0;3.0;1.0;1.04114;0.269507;-4.38183;0.9949549999999999;0.303108;-4.24605;0.0;0.0;0.0;0.0;0.0;0.0;2.0;4.0;5.0;5.0;0.0;3.0;0.0;0.0;0.0;675.0;304.0;1024.0;1024.0;1024.0;224.0;1024.0;1024.0;1024.0;1824.0;3.0;0.0;0.0;0.00022151900000000002;0.0;;1970-01-01 00:00:00.572
2678.0;2681.0;0.0;-1.0;-1.0;-1.0;-1.0;-1.0;100.0;0.0;0.0;0.0;0.0;0.0;0.0;0.0;0.0;0.0;0.0;0.0;0.0;0.0;0.0;1.0;312.0;36.0;5.57636;311.91;32.5374;0.0;4.0;1.0;1.0041;0.292271;-4.18305;0.997699;0.29985700000000004;-4.22715;0.0;0.0;0.0;0.0;0.0;0.0;2.0;4.0;5.0;5.0;0.0;3.0;0.0;0.0;0.0;675.0;304.0;1024.0;1024.0;1024.0;224.0;1024.0;1024.0;1024.0;1824.0;3.0;0.0;0.0;0.00022151900000000002;0.0;;1970-01-01 00:00:00.583
2678.0;2681.0;0.0;-1.0;-1.0;-1.0;-1.0;-1.0;100.0;0.0;0.0;0.0;0.0;0.0;0.0;0.0;0.0;0.0;0.0;0.0;0.0;0.0;0.0;1.0;312.0;36.0;5.57636;311.91;32.5374;0.0;4.0;1.0;1.0041;0.292271;-4.18305;0.997699;0.29985700000000004;-4.22715;0.0;0.0;0.0;0.0;0.0;0.0;2.0;4.0;5.0;5.0;0.0;3.0;0.0;0.0;0.0;675.0;304.0;1024.0;1024.0;1024.0;224.0;1024.0;1024.0;1024.0;1824.0;3.0;0.0;0.0;0.00022151900000000002;0.0;;1970-01-01 00:00:00.594
2679.0;2682.0;0.0;-1.0;-1.0;-1.0;-1.0;-1.0;100.0;0.0;0.0;0.0;0.0;0.0;0.0;0.0;0.0;0.0;0.0;0.0;0.0;0.0;0.0;1.0;312.0;36.0;5.57636;311.341;32.0018;1.0;0.0;1.0;1.0041;0.292271;-4.18305;0.997699;0.29985700000000004;-4.22715;0.0;0.0;0.0;0.0;0.0;0.0;2.0;4.0;5.0;5.0;0.0;3.0;0.0;0.0;0.0;675.0;304.0;1024.0;1024.0;1024.0;224.0;1024.0;1024.0;1024.0;1824.0;3.0;0.0;0.0;0.00022151900000000002;0.0;;1970-01-01 00:00:00.605
2680.0;2683.0;0.0;-1.0;-1.0;-1.0;-1.0;-1.0;100.0;0.0;0.0;0.0;0.0;0.0;0.0;0.0;0.0;0.0;0.0;0.0;0.0;0.0;0.0;1.0;312.0;36.0;5.57636;310.772;31.4662;2.0;0.0;1.0;1.0041;0.292271;-4.18305;0.997699;0.29985700000000004;-4.22715;0.0;0.0;0.0;0.0;0.0;0.0;2.0;4.0;5.0;5.0;0.0;3.0;0.0;0.0;0.0;675.0;304.0;1024.0;1024.0;1024.0;224.0;1024.0;1024.0;1024.0;1824.0;3.0;0.0;0.0;0.00022151900000000002;0.0;;1970-01-01 00:00:00.616
2680.0;2683.0;0.0;-1.0;-1.0;-1.0;-1.0;-1.0;100.0;0.0;0.0;0.0;0.0;0.0;0.0;0.0;0.0;0.0;0.0;0.0;0.0;0.0;0.0;1.0;312.0;36.0;5.57636;310.772;31.4662;2.0;0.0;1.0;1.0041;0.292271;-4.18305;0.997699;0.29985700000000004;-4.22715;0.0;0.0;0.0;0.0;0.0;0.0;2.0;4.0;5.0;5.0;0.0;3.0;0.0;0.0;0.0;675.0;304.0;1024.0;1024.0;1024.0;224.0;1024.0;1024.0;1024.0;1824.0;3.0;0.0;0.0;0.00022151900000000002;0.0;;1970-01-01 00:00:00.627
2681.0;2684.0;0.0;-1.0;-1.0;-1.0;-1.0;-1.0;100.0;0.0;0.0;0.0;0.0;0.0;0.0;0.0;0.0;0.0;0.0;0.0;0.0;0.0;0.0;1.0;312.0;36.0;5.57636;310.204;30.9306;3.0;0.0;1.0;1.0041;0.292271;-4.18305;0.997699;0.29985700000000004;-4.22715;0.0;0.0;0.0;0.0;0.0;0.0;2.0;4.0;5.0;5.0;0.0;3.0;0.0;0.0;0.0;675.0;304.0;1024.0;1024.0;1024.0;224.0;1024.0;1024.0;1024.0;1824.0;3.0;0.0;0.0;0.00022151900000000002;0.0;;1970-01-01 00:00:00.638
2682.0;2685.0;0.0;-1.0;-1.0;-1.0;-1.0;-1.0;100.0;0.0;0.0;0.0;0.0;0.0;0.0;0.0;0.0;0.0;0.0;0.0;0.0;0.0;0.0;1.0;309.0;37.0;5.53308;309.035;33.4193;0.0;1.0;1.0;1.03904;0.27976799999999996;-4.21054;1.0101;0.29383000000000004;-4.222169999999999;0.0;0.0;0.0;0.0;0.0;0.0;2.0;4.0;5.0;5.0;0.0;3.0;0.0;0.0;0.0;675.0;304.0;1024.0;1024.0;1024.0;224.0;1024.0;1024.0;1024.0;1824.0;3.0;0.0;0.0;0.00022151900000000002;0.0;;1970-01-01 00:00:00.649
2682.0;2685.0;0.0;-1.0;-1.0;-1.0;-1.0;-1.0;100.0;0.0;0.0;0.0;0.0;0.0;0.0;0.0;0.0;0.0;0.0;0.0;0.0;0.0;0.0;1.0;309.0;37.0;5.53308;309.035;33.4193;0.0;1.0;1.0;1.03904;0.27976799999999996;-4.21054;1.0101;0.29383000000000004;-4.222169999999999;0.0;0.0;0.0;0.0;0.0;0.0;2.0;4.0;5.0;5.0;0.0;3.0;0.0;0.0;0.0;675.0;304.0;1024.0;1024.0;1024.0;224.0;1024.0;1024.0;1024.0;1824.0;3.0;0.0;0.0;0.00022151900000000002;0.0;;1970-01-01 00:00:00.660
2683.0;2686.0;0.0;-1.0;-1.0;-1.0;-1.0;-1.0;100.0;0.0;0.0;0.0;0.0;0.0;0.0;0.0;0.0;0.0;0.0;0.0;0.0;0.0;0.0;1.0;308.0;38.0;6.02976;308.027;34.8409;0.0;2.0;1.0;0.9617389999999999;0.328225;-3.85891;0.9955930000000001;0.30414800000000003;-4.11319;0.0;0.0;0.0;0.0;0.0;0.0;2.0;4.0;5.0;5.0;0.0;3.0;0.0;0.0;0.0;675.0;304.0;1024.0;1024.0;1024.0;224.0;1024.0;1024.0;1024.0;1824.0;3.0;0.0;0.0;0.00022151900000000002;0.0;;1970-01-01 00:00:00.671
2684.0;2687.0;0.0;-1.0;-1.0;-1.0;-1.0;-1.0;100.0;0.0;0.0;0.0;0.0;0.0;0.0;0.0;0.0;0.0;0.0;0.0;0.0;0.0;0.0;1.0;308.0;38.0;6.02976;307.418;34.5014;1.0;0.0;1.0;0.9617389999999999;0.328225;-3.85891;0.9955930000000001;0.30414800000000003;-4.11319;0.0;0.0;0.0;0.0;0.0;0.0;2.0;4.0;5.0;5.0;0.0;3.0;0.0;0.0;0.0;675.0;304.0;1024.0;1024.0;1024.0;224.0;1024.0;1024.0;1024.0;1824.0;3.0;0.0;0.0;0.00022151900000000002;0.0;;1970-01-01 00:00:00.682
2684.0;2687.0;0.0;-1.0;-1.0;-1.0;-1.0;-1.0;100.0;0.0;0.0;0.0;0.0;0.0;0.0;0.0;0.0;0.0;0.0;0.0;0.0;0.0;0.0;1.0;308.0;38.0;6.02976;307.418;34.5014;1.0;0.0;1.0;0.9617389999999999;0.328225;-3.85891;0.9955930000000001;0.30414800000000003;-4.11319;0.0;0.0;0.0;0.0;0.0;0.0;2.0;4.0;5.0;5.0;0.0;3.0;0.0;0.0;0.0;675.0;304.0;1024.0;1024.0;1024.0;224.0;1024.0;1024.0;1024.0;1824.0;3.0;0.0;0.0;0.00022151900000000002;0.0;;1970-01-01 00:00:00.693
2685.0;2688.0;0.0;-1.0;-1.0;-1.0;-1.0;-1.0;100.0;0.0;0.0;0.0;0.0;0.0;0.0;0.0;0.0;0.0;0.0;0.0;0.0;0.0;0.0;1.0;306.4;39.2;5.71511;306.381;36.1334;0.0;1.0;1.0;1.02867;0.28544400000000003;-4.0652800000000004;1.00552;0.298537;-4.09882;0.13734000000000002;-0.07903860000000001;0.9223879999999999;1.6001;-0.898566;-0.212171;2.0;4.0;5.0;5.0;0.0;3.0;0.0;0.0;0.0;675.0;304.0;1024.0;1024.0;1024.0;224.0;1024.0;1024.0;1024.0;1824.0;3.0;0.0;0.0;0.00022151900000000002;0.0;;1970-01-01 00:00:00.704
2686.0;2689.0;0.0;-1.0;-1.0;-1.0;-1.0;-1.0;100.0;0.0;0.0;0.0;0.0;0.0;0.0;0.0;0.0;0.0;0.0;0.0;0.0;0.0;0.0;1.0;305.0;39.0;5.78843;305.247;36.9258;0.0;2.0;1.0;1.02773;0.295268;-4.0147900000000005;1.0121799999999999;0.297557;-4.0736099999999995;0.17108800000000002;-0.0952194;0.827118;2.43505;-1.59558;-7.467860000000001;2.0;4.0;5.0;5.0;0.0;3.0;0.0;0.0;0.0;675.0;304.0;1024.0;1024.0;1024.0;224.0;1024.0;1024.0;1024.0;1824.0;3.0;0.0;0.0;0.00022151900000000002;0.0;;1970-01-01 00:00:00.715
2687.0;2690.0;0.0;-1.0;-1.0;-1.0;-1.0;-1.0;100.0;0.0;0.0;0.0;0.0;0.0;0.0;0.0;0.0;0.0;0.0;0.0;0.0;0.0;0.0;1.0;304.0;39.0;5.6775199999999995;304.173;37.4192;0.0;3.0;1.0;1.0566;0.282479;-4.09322;1.0255100000000001;0.293033;-4.07949;0.175844;-0.08126610000000001;0.895277;-0.957693;0.9141229999999999;6.01377;2.0;4.0;5.0;5.0;0.0;3.0;0.0;0.0;0.0;675.0;304.0;1024.0;1024.0;1024.0;224.0;1024.0;1024.0;1024.0;1824.0;3.0;0.0;0.0;0.00022151900000000002;0.0;;1970-01-01 00:00:00.726
2687.0;2690.0;0.0;-1.0;-1.0;-1.0;-1.0;-1.0;100.0;0.0;0.0;0.0;0.0;0.0;0.0;0.0;0.0;0.0;0.0;0.0;0.0;0.0;0.0;1.0;304.0;39.0;5.6775199999999995;304.173;37.4192;0.0;3.0;1.0;1.0566;0.282479;-4.09322;1.0255100000000001;0.293033;-4.07949;0.175844;-0.08126610000000001;0.895277;-0.957693;0.9141229999999999;6.01377;2.0;4.0;5.0;5.0;0.0;3.0;0.0;0.0;0.0;675.0;304.0;1024.0;1024.0;1024.0;224.0;1024.0;1024.0;1024.0;1824.0;3.0;0.0;0.0;0.00022151900000000002;0.0;;1970-01-01 00:00:00.737
2688.0;2691.0;0.0;-1.0;-1.0;-1.0;-1.0;-1.0;100.0;0.0;0.0;0.0;0.0;0.0;0.0;0.0;0.0;0.0;0.0;0.0;0.0;0.0;0.0;1.0;304.0;39.4286;5.623880000000001;303.45;37.8955;0.0;4.0;1.0;1.0666799999999999;0.27301;-4.13005;1.03786;0.287026;-4.09466;0.201716;-0.0794965;0.85456;-0.48501000000000005;0.8244600000000001;2.94393;2.0;4.0;5.0;5.0;0.0;3.0;0.0;0.0;0.0;675.0;304.0;1024.0;1024.0;1024.0;224.0;1024.0;1024.0;1024.0;1824.0;3.0;0.0;0.0;0.00022151900000000002;0.0;;1970-01-01 00:00:00.748
2689.0;2692.0;0.0;-1.0;-1.0;-1.0;-1.0;-1.0;100.0;0.0;0.0;0.0;0.0;0.0;0.0;0.0;0.0;0.0;0.0;0.0;0.0;0.0;0.0;1.0;304.0;39.4286;5.623880000000001;302.782;37.7365;1.0;0.0;1.0;1.0666799999999999;0.27301;-4.13005;1.03786;0.287026;-4.09466;0.201716;-0.0794965;0.85456;-0.48501000000000005;0.8244600000000001;2.94393;2.0;4.0;5.0;5.0;0.0;3.0;0.0;0.0;0.0;675.0;304.0;1024.0;1024.0;1024.0;224.0;1024.0;1024.0;1024.0;1824.0;3.0;0.0;0.0;0.00022151900000000002;0.0;;1970-01-01 00:00:00.759
2689.0;2692.0;0.0;-1.0;-1.0;-1.0;-1.0;-1.0;100.0;0.0;0.0;0.0;0.0;0.0;0.0;0.0;0.0;0.0;0.0;0.0;0.0;0.0;0.0;1.0;304.0;39.4286;5.623880000000001;302.782;37.7365;1.0;0.0;1.0;1.0666799999999999;0.27301;-4.13005;1.03786;0.287026;-4.09466;0.201716;-0.0794965;0.85456;-0.48501000000000005;0.8244600000000001;2.94393;2.0;4.0;5.0;5.0;0.0;3.0;0.0;0.0;0.0;675.0;304.0;1024.0;1024.0;1024.0;224.0;1024.0;1024.0;1024.0;1824.0;3.0;0.0;0.0;0.00022151900000000002;0.0;;1970-01-01 00:00:00.770
2690.0;2693.0;0.0;-1.0;-1.0;-1.0;-1.0;-1.0;100.0;0.0;0.0;0.0;0.0;0.0;0.0;0.0;0.0;0.0;0.0;0.0;0.0;0.0;0.0;1.0;301.0;41.0;6.03471;301.42;38.8495;0.0;1.0;1.0;1.0189;0.30849699999999997;-3.84135;1.03217;0.29346700000000003;-4.018669999999999;0.187116;-0.048783999999999994;1.12212;-0.28678400000000004;0.6188020000000001;4.903230000000001;2.0;4.0;5.0;5.0;0.0;3.0;0.0;0.0;0.0;675.0;304.0;1024.0;1024.0;1024.0;224.0;1024.0;1024.0;1024.0;1824.0;3.0;0.0;0.0;0.00022151900000000002;0.0;;1970-01-01 00:00:00.781
2691.0;2694.0;0.0;-1.0;-1.0;-1.0;-1.0;-1.0;100.0;0.0;0.0;0.0;0.0;0.0;0.0;0.0;0.0;0.0;0.0;0.0;0.0;0.0;0.0;1.0;299.0;41.0;5.741619999999999;299.867;39.5046;0.0;2.0;1.0;1.08831;0.27575;-4.03744;1.04901;0.288152;-4.0243;0.27223800000000004;-0.07717230000000001;0.939464;3.24531;-1.71043;-13.79;2.0;4.0;5.0;5.0;0.0;3.0;0.0;0.0;0.0;675.0;304.0;1024.0;1024.0;1024.0;224.0;1024.0;1024.0;1024.0;1824.0;3.0;0.0;0.0;0.00022151900000000002;0.0;;1970-01-01 00:00:00.792
2691.0;2694.0;0.0;-1.0;-1.0;-1.0;-1.0;-1.0;100.0;0.0;0.0;0.0;0.0;0.0;0.0;0.0;0.0;0.0;0.0;0.0;0.0;0.0;0.0;1.0;299.0;41.0;5.741619999999999;299.867;39.5046;0.0;2.0;1.0;1.08831;0.27575;-4.03744;1.04901;0.288152;-4.0243;0.27223800000000004;-0.07717230000000001;0.939464;3.24531;-1.71043;-13.79;2.0;4.0;5.0;5.0;0.0;3.0;0.0;0.0;0.0;675.0;304.0;1024.0;1024.0;1024.0;224.0;1024.0;1024.0;1024.0;1824.0;3.0;0.0;0.0;0.00022151900000000002;0.0;;1970-01-01 00:00:00.803
2692.0;2695.0;0.0;-1.0;-1.0;-1.0;-1.0;-1.0;100.0;0.0;0.0;0.0;0.0;0.0;0.0;0.0;0.0;0.0;0.0;0.0;0.0;0.0;0.0;1.0;297.0;42.0;5.95814;298.17;40.2701;0.0;3.0;1.0;1.0655299999999999;0.293419;-3.8858599999999996;1.05397;0.289732;-3.98276;0.329158;-0.0764367;0.960844;2.60365;-1.01735;-8.142389999999999;2.0;4.0;5.0;5.0;0.0;3.0;0.0;0.0;0.0;675.0;304.0;1024.0;1024.0;1024.0;224.0;1024.0;1024.0;1024.0;1824.0;3.0;0.0;0.0;0.00022151900000000002;0.0;;1970-01-01 00:00:00.814
2693.0;2696.0;0.0;-1.0;-1.0;-1.0;-1.0;-1.0;100.0;0.0;0.0;0.0;0.0;0.0;0.0;0.0;0.0;0.0;0.0;0.0;0.0;0.0;0.0;1.0;296.0;43.0;6.1592199999999995;296.685;41.126000000000005;0.0;4.0;1.0;1.0388600000000001;0.308246;-3.75429;1.0494299999999999;0.295286;-3.91422;0.32499;-0.053631500000000006;1.12198;2.0889;-0.468084;-3.8763099999999997;2.0;4.0;5.0;5.0;0.0;3.0;0.0;0.0;0.0;675.0;304.0;1024.0;1024.0;1024.0;224.0;1024.0;1024.0;1024.0;1824.0;3.0;0.0;0.0;0.00022151900000000002;0.0;;1970-01-01 00:00:00.825
2693.0;2696.0;0.0;-1.0;-1.0;-1.0;-1.0;-1.0;100.0;0.0;0.0;0.0;0.0;0.0;0.0;0.0;0.0;0.0;0.0;0.0;0.0;0.0;0.0;1.0;296.0;43.0;6.1592199999999995;296.685;41.126000000000005;0.0;4.0;1.0;1.0388600000000001;0.308246;-3.75429;1.0494299999999999;0.295286;-3.91422;0.32499;-0.053631500000000006;1.12198;2.0889;-0.468084;-3.8763099999999997;2.0;4.0;5.0;5.0;0.0;3.0;0.0;0.0;0.0;675.0;304.0;1024.0;1024.0;1024.0;224.0;1024.0;1024.0;1024.0;1824.0;3.0;0.0;0.0;0.00022151900000000002;0.0;;1970-01-01 00:00:00.836
2694.0;2697.0;0.0;-1.0;-1.0;-1.0;-1.0;-1.0;100.0;0.0;0.0;0.0;0.0;0.0;0.0;0.0;0.0;0.0;0.0;0.0;0.0;0.0;0.0;1.0;295.0;43.0;5.69674;295.337;41.7315;0.0;5.0;1.0;1.13196;0.25614499999999996;-4.059080000000001;1.07419;0.283544;-3.9576800000000003;0.361613;-0.06465449999999999;1.09007;1.8891;-0.22399999999999998;-1.65915;2.0;4.0;5.0;5.0;0.0;3.0;0.0;0.0;0.0;675.0;304.0;1024.0;1024.0;1024.0;224.0;1024.0;1024.0;1024.0;1824.0;3.0;0.0;0.0;0.00022151900000000002;0.0;;1970-01-01 00:00:00.847
2695.0;2698.0;0.0;-1.0;-1.0;-1.0;-1.0;-1.0;100.0;0.0;0.0;0.0;0.0;0.0;0.0;0.0;0.0;0.0;0.0;0.0;0.0;0.0;0.0;1.0;293.0;45.0;5.885280000000001;294.509;41.7578;1.0;0.0;1.0;1.13196;0.25614499999999996;-4.059080000000001;1.07419;0.283544;-3.9576800000000003;0.361613;-0.06465449999999999;1.09007;1.8891;-0.22399999999999998;-1.65915;2.0;4.0;5.0;5.0;0.0;3.0;0.0;0.0;0.0;675.0;304.0;1024.0;1024.0;1024.0;224.0;1024.0;1024.0;1024.0;1824.0;3.0;0.0;0.0;0.00022151900000000002;0.0;;1970-01-01 00:00:00.858
2695.0;2698.0;0.0;-1.0;-1.0;-1.0;-1.0;-1.0;100.0;0.0;0.0;0.0;0.0;0.0;0.0;0.0;0.0;0.0;0.0;0.0;0.0;0.0;0.0;1.0;293.0;45.0;5.885280000000001;294.509;41.7578;1.0;0.0;1.0;1.13196;0.25614499999999996;-4.059080000000001;1.07419;0.283544;-3.9576800000000003;0.361613;-0.06465449999999999;1.09007;1.8891;-0.22399999999999998;-1.65915;2.0;4.0;5.0;5.0;0.0;3.0;0.0;0.0;0.0;675.0;304.0;1024.0;1024.0;1024.0;224.0;1024.0;1024.0;1024.0;1824.0;3.0;0.0;0.0;0.00022151900000000002;0.0;;1970-01-01 00:00:00.869
2696.0;2699.0;0.0;-1.0;-1.0;-1.0;-1.0;-1.0;100.0;0.0;0.0;0.0;0.0;0.0;0.0;0.0;0.0;0.0;0.0;0.0;0.0;0.0;0.0;1.0;291.0;46.0;5.62;293.681;41.784;2.0;0.0;1.0;1.13196;0.25614499999999996;-4.059080000000001;1.07419;0.283544;-3.9576800000000003;0.361613;-0.06465449999999999;1.09007;1.8891;-0.22399999999999998;-1.65915;2.0;4.0;5.0;5.0;0.0;3.0;0.0;0.0;0.0;675.0;304.0;1024.0;1024.0;1024.0;224.0;1024.0;1024.0;1024.0;1824.0;3.0;0.0;0.0;0.00022151900000000002;0.0;;1970-01-01 00:00:00.880
2697.0;2700.0;0.0;-1.0;-1.0;-1.0;-1.0;-1.0;100.0;0.0;0.0;0.0;0.0;0.0;0.0;0.0;0.0;0.0;0.0;0.0;0.0;0.0;0.0;1.0;290.66700000000003;47.3333;6.37483;291.506;44.29;0.0;1.0;1.0;1.04551;0.302277;-3.6076300000000003;1.06559;0.289164;-3.85267;0.29078200000000004;-0.0331026;1.29818;1.3705399999999999;-0.0109081;0.185356;2.0;4.0;5.0;5.0;0.0;3.0;0.0;0.0;0.0;675.0;304.0;1024.0;1024.0;1024.0;224.0;1024.0;1024.0;1024.0;1824.0;3.0;0.0;0.0;0.00022151900000000002;0.0;;1970-01-01 00:00:00.891
2698.0;2701.0;0.0;-1.0;-1.0;-1.0;-1.0;-1.0;100.0;0.0;0.0;0.0;0.0;0.0;0.0;0.0;0.0;0.0;0.0;0.0;0.0;0.0;0.0;1.0;288.25;48.25;5.96371;289.385;45.925;0.0;2.0;1.0;1.13783;0.251368;-3.8518800000000004;1.0872600000000001;0.277825;-3.8524300000000005;0.339445;-0.0667029;1.27671;1.2784799999999998;-0.0602038;0.5741149999999999;2.0;4.0;5.0;5.0;0.0;3.0;0.0;0.0;0.0;675.0;304.0;1024.0;1024.0;1024.0;224.0;1024.0;1024.0;1024.0;1824.0;3.0;0.0;0.0;0.00022151900000000002;0.0;;1970-01-01 00:00:00.902
2698.0;2701.0;0.0;-1.0;-1.0;-1.0;-1.0;-1.0;100.0;0.0;0.0;0.0;0.0;0.0;0.0;0.0;0.0;0.0;0.0;0.0;0.0;0.0;0.0;1.0;288.25;48.25;5.96371;289.385;45.925;0.0;2.0;1.0;1.13783;0.251368;-3.8518800000000004;1.0872600000000001;0.277825;-3.8524300000000005;0.339445;-0.0667029;1.27671;1.2784799999999998;-0.0602038;0.5741149999999999;2.0;4.0;5.0;5.0;0.0;3.0;0.0;0.0;0.0;675.0;304.0;1024.0;1024.0;1024.0;224.0;1024.0;1024.0;1024.0;1824.0;3.0;0.0;0.0;0.00022151900000000002;0.0;;1970-01-01 00:00:00.913
2699.0;2702.0;0.0;-1.0;-1.0;-1.0;-1.0;-1.0;100.0;0.0;0.0;0.0;0.0;0.0;0.0;0.0;0.0;0.0;0.0;0.0;0.0;0.0;0.0;1.0;287.0;50.0;6.35595;287.616;47.5411;0.0;3.0;1.0;1.07744;0.283273;-3.6062;1.0843200000000002;0.279459;-3.7785599999999997;0.309383;-0.0660521;1.50189;0.878317;-0.00282264;2.02866;2.0;4.0;5.0;5.0;0.0;3.0;0.0;0.0;0.0;675.0;304.0;1024.0;1024.0;1024.0;224.0;1024.0;1024.0;1024.0;1824.0;3.0;0.0;0.0;0.00022151900000000002;0.0;;1970-01-01 00:00:00.924
2700.0;2703.0;0.0;-1.0;-1.0;-1.0;-1.0;-1.0;100.0;0.0;0.0;0.0;0.0;0.0;0.0;0.0;0.0;0.0;0.0;0.0;0.0;0.0;0.0;1.0;284.889;50.6667;5.861190000000001;285.73400000000004;48.8388;0.0;4.0;1.0;1.18638;0.22236199999999998;-3.90732;1.11494;0.26233;-3.81719;0.3682;-0.121688;1.39695;0.6439050000000001;-0.137199;2.52315;2.0;4.0;5.0;5.0;0.0;3.0;0.0;0.0;0.0;675.0;304.0;1024.0;1024.0;1024.0;224.0;1024.0;1024.0;1024.0;1824.0;3.0;0.0;0.0;0.00022151900000000002;0.0;;1970-01-01 00:00:00.935
2700.0;2703.0;0.0;-1.0;-1.0;-1.0;-1.0;-1.0;100.0;0.0;0.0;0.0;0.0;0.0;0.0;0.0;0.0;0.0;0.0;0.0;0.0;0.0;0.0;1.0;284.889;50.6667;5.861190000000001;285.73400000000004;48.8388;0.0;4.0;1.0;1.18638;0.22236199999999998;-3.90732;1.11494;0.26233;-3.81719;0.3682;-0.121688;1.39695;0.6439050000000001;-0.137199;2.52315;2.0;4.0;5.0;5.0;0.0;3.0;0.0;0.0;0.0;675.0;304.0;1024.0;1024.0;1024.0;224.0;1024.0;1024.0;1024.0;1824.0;3.0;0.0;0.0;0.00022151900000000002;0.0;;1970-01-01 00:00:00.946
2701.0;2704.0;0.0;-1.0;-1.0;-1.0;-1.0;-1.0;100.0;0.0;0.0;0.0;0.0;0.0;0.0;0.0;0.0;0.0;0.0;0.0;0.0;0.0;0.0;1.0;285.0;53.0;6.32229;284.48400000000004;50.4952;0.0;5.0;1.0;1.0989799999999998;0.260405;-3.6116599999999996;1.11015;0.261753;-3.7555300000000003;0.40273400000000004;-0.17343;1.31338;0.619149;-0.441061;2.08703;2.0;4.0;5.0;5.0;0.0;3.0;0.0;0.0;0.0;675.0;304.0;1024.0;1024.0;1024.0;224.0;1024.0;1024.0;1024.0;1824.0;3.0;0.0;0.0;0.00022151900000000002;0.0;;1970-01-01 00:00:00.957
2702.0;2705.0;0.0;-1.0;-1.0;-1.0;-1.0;-1.0;100.0;0.0;0.0;0.0;0.0;0.0;0.0;0.0;0.0;0.0;0.0;0.0;0.0;0.0;0.0;1.0;282.0;54.5714;5.97008;282.66200000000003;52.1664;0.0;6.0;1.0;1.18892;0.209006;-3.8171199999999996;1.13378;0.245929;-3.7740099999999996;0.42007700000000003;-0.216698;1.33804;0.546562;-0.719936;1.99479;2.0;4.0;5.0;5.0;0.0;3.0;0.0;0.0;0.0;675.0;304.0;1024.0;1024.0;1024.0;224.0;1024.0;1024.0;1024.0;1824.0;3.0;0.0;0.0;0.00022151900000000002;0.0;;1970-01-01 00:00:00.968
2702.0;2705.0;0.0;-1.0;-1.0;-1.0;-1.0;-1.0;100.0;0.0;0.0;0.0;0.0;0.0;0.0;0.0;0.0;0.0;0.0;0.0;0.0;0.0;0.0;1.0;282.0;54.5714;5.97008;282.66200000000003;52.1664;0.0;6.0;1.0;1.18892;0.209006;-3.8171199999999996;1.13378;0.245929;-3.7740099999999996;0.42007700000000003;-0.216698;1.33804;0.546562;-0.719936;1.99479;2.0;4.0;5.0;5.0;0.0;3.0;0.0;0.0;0.0;675.0;304.0;1024.0;1024.0;1024.0;224.0;1024.0;1024.0;1024.0;1824.0;3.0;0.0;0.0;0.00022151900000000002;0.0;;1970-01-01 00:00:00.979
2703.0;2706.0;0.0;-1.0;-1.0;-1.0;-1.0;-1.0;100.0;0.0;0.0;0.0;0.0;0.0;0.0;0.0;0.0;0.0;0.0;0.0;0.0;0.0;0.0;1.0;281.33299999999997;56.6667;6.29284;281.181;54.0225;0.0;7.0;1.0;1.13323;0.233458;-3.6116900000000003;1.13362;0.24218800000000001;-3.72531;0.523656;-0.31758200000000003;1.31131;1.2577399999999999;-1.56781;1.2493;2.0;4.0;5.0;5.0;0.0;3.0;0.0;0.0;0.0;675.0;304.0;1024.0;1024.0;1024.0;224.0;1024.0;1024.0;1024.0;1824.0;3.0;0.0;0.0;0.00022151900000000002;0.0;;1970-01-01 00:00:00.990
2704.0;2707.0;0.0;-1.0;-1.0;-1.0;-1.0;-1.0;100.0;0.0;0.0;0.0;0.0;0.0;0.0;0.0;0.0;0.0;0.0;0.0;0.0;0.0;0.0;1.0;279.33299999999997;57.3333;6.570760000000001;279.517;55.5565;0.0;8.0;1.0;1.10051;0.25963400000000003;-3.4560000000000004;1.12368;0.247421;-3.6445199999999995;0.459609;-0.31194299999999997;1.61693;1.23443;-1.91986;2.10799;2.0;4.0;5.0;5.0;0.0;3.0;0.0;0.0;0.0;675.0;304.0;1024.0;1024.0;1024.0;224.0;1024.0;1024.0;1024.0;1824.0;3.0;0.0;0.0;0.00022151900000000002;0.0;;1970-01-01 00:00:01.001
2704.0;2707.0;0.0;-1.0;-1.0;-1.0;-1.0;-1.0;100.0;0.0;0.0;0.0;0.0;0.0;0.0;0.0;0.0;0.0;0.0;0.0;0.0;0.0;0.0;1.0;279.33299999999997;57.3333;6.570760000000001;279.517;55.5565;0.0;8.0;1.0;1.10051;0.25963400000000003;-3.4560000000000004;1.12368;0.247421;-3.6445199999999995;0.459609;-0.31194299999999997;1.61693;1.23443;-1.91986;2.10799;2.0;4.0;5.0;5.0;0.0;3.0;0.0;0.0;0.0;675.0;304.0;1024.0;1024.0;1024.0;224.0;1024.0;1024.0;1024.0;1824.0;3.0;0.0;0.0;0.00022151900000000002;0.0;;1970-01-01 00:00:01.012
2705.0;2708.0;0.0;-1.0;-1.0;-1.0;-1.0;-1.0;100.0;0.0;0.0;0.0;0.0;0.0;0.0;0.0;0.0;0.0;0.0;0.0;0.0;0.0;0.0;1.0;278.72700000000003;60.1818;6.44752;278.165;57.5546;0.0;9.0;1.0;1.12624;0.228452;-3.50926;1.12445;0.241731;-3.60394;0.436007;-0.337807;1.66737;1.24623;-2.23696;1.9255400000000003;2.0;4.0;5.0;5.0;0.0;3.0;0.0;0.0;0.0;675.0;304.0;1024.0;1024.0;1024.0;224.0;1024.0;1024.0;1024.0;1824.0;3.0;0.0;0.0;0.00022151900000000002;0.0;;1970-01-01 00:00:01.023
2706.0;2709.0;0.0;-1.0;-1.0;-1.0;-1.0;-1.0;100.0;0.0;0.0;0.0;0.0;0.0;0.0;0.0;0.0;0.0;0.0;0.0;0.0;0.0;0.0;1.0;277.0;63.0;6.54207;276.683;59.8776;0.0;10.0;1.0;1.12315;0.22134299999999998;-3.4460699999999997;1.12406;0.235614;-3.5565800000000003;0.298032;-0.30935300000000004;2.0409599999999997;0.46757299999999996;-2.09147;3.72667;2.0;4.0;5.0;5.0;0.0;3.0;0.0;0.0;0.0;675.0;304.0;1024.0;1024.0;1024.0;224.0;1024.0;1024.0;1024.0;1824.0;3.0;0.0;0.0;0.00022151900000000002;0.0;;1970-01-01 00:00:01.034
2706.0;2709.0;0.0;-1.0;-1.0;-1.0;-1.0;-1.0;100.0;0.0;0.0;0.0;0.0;0.0;0.0;0.0;0.0;0.0;0.0;0.0;0.0;0.0;0.0;1.0;277.0;63.0;6.54207;276.683;59.8776;0.0;10.0;1.0;1.12315;0.22134299999999998;-3.4460699999999997;1.12406;0.235614;-3.5565800000000003;0.298032;-0.30935300000000004;2.0409599999999997;0.46757299999999996;-2.09147;3.72667;2.0;4.0;5.0;5.0;0.0;3.0;0.0;0.0;0.0;675.0;304.0;1024.0;1024.0;1024.0;224.0;1024.0;1024.0;1024.0;1824.0;3.0;0.0;0.0;0.00022151900000000002;0.0;;1970-01-01 00:00:01.045
2707.0;2710.0;0.0;-1.0;-1.0;-1.0;-1.0;-1.0;100.0;0.0;0.0;0.0;0.0;0.0;0.0;0.0;0.0;0.0;0.0;0.0;0.0;0.0;0.0;1.0;277.75;64.25;6.600280000000001;275.897;61.9335;0.0;11.0;1.0;1.1075700000000002;0.22005999999999998;-3.41019;1.11911;0.23094800000000001;-3.51266;0.21460500000000002;-0.308607;2.19428;-0.470602;-1.7946;5.75316;2.0;4.0;5.0;5.0;0.0;3.0;0.0;0.0;0.0;675.0;304.0;1024.0;1024.0;1024.0;224.0;1024.0;1024.0;1024.0;1824.0;3.0;0.0;0.0;0.00022151900000000002;0.0;;1970-01-01 00:00:01.056
2708.0;2711.0;0.0;-1.0;-1.0;-1.0;-1.0;-1.0;100.0;0.0;0.0;0.0;0.0;0.0;0.0;0.0;0.0;0.0;0.0;0.0;0.0;0.0;0.0;1.0;276.66700000000003;66.6667;6.51275;275.031;64.1652;0.0;12.0;1.0;1.13076;0.195143;-3.4452800000000003;1.12261;0.220207;-3.49245;0.08415260000000001;-0.287866;2.4407400000000004;-1.62361;-1.3609200000000001;7.85467;2.0;4.0;5.0;5.0;0.0;3.0;0.0;0.0;0.0;675.0;304.0;1024.0;1024.0;1024.0;224.0;1024.0;1024.0;1024.0;1824.0;3.0;0.0;0.0;0.00022151900000000002;0.0;;1970-01-01 00:00:01.067
2709.0;2712.0;0.0;-1.0;-1.0;-1.0;-1.0;-1.0;100.0;0.0;0.0;0.0;0.0;0.0;0.0;0.0;0.0;0.0;0.0;0.0;0.0;0.0;0.0;1.0;275.0;69.0;6.39942;273.92;66.4951;0.0;13.0;1.0;1.1638;0.166931;-3.49574;1.13497;0.204224;-3.49344;0.05588049999999999;-0.324298;2.39026;-2.84187;-0.8433639999999999;9.02073;2.0;4.0;5.0;5.0;0.0;3.0;0.0;0.0;0.0;675.0;304.0;1024.0;1024.0;1024.0;224.0;1024.0;1024.0;1024.0;1824.0;3.0;0.0;0.0;0.00022151900000000002;0.0;;1970-01-01 00:00:01.078
2709.0;2712.0;0.0;-1.0;-1.0;-1.0;-1.0;-1.0;100.0;0.0;0.0;0.0;0.0;0.0;0.0;0.0;0.0;0.0;0.0;0.0;0.0;0.0;0.0;1.0;275.0;69.0;6.39942;273.92;66.4951;0.0;13.0;1.0;1.1638;0.166931;-3.49574;1.13497;0.204224;-3.49344;0.05588049999999999;-0.324298;2.39026;-2.84187;-0.8433639999999999;9.02073;2.0;4.0;5.0;5.0;0.0;3.0;0.0;0.0;0.0;675.0;304.0;1024.0;1024.0;1024.0;224.0;1024.0;1024.0;1024.0;1824.0;3.0;0.0;0.0;0.00022151900000000002;0.0;;1970-01-01 00:00:01.089
2710.0;2713.0;0.0;-1.0;-1.0;-1.0;-1.0;-1.0;100.0;0.0;0.0;0.0;0.0;0.0;0.0;0.0;0.0;0.0;0.0;0.0;0.0;0.0;0.0;1.0;274.25;70.25;6.48771;272.92400000000004;68.5478;0.0;14.0;1.0;1.15374;0.169744;-3.44259;1.1406;0.19388;-3.4781800000000005;0.101061;-0.408355;2.09829;-3.1367;-0.890965;7.33436;2.0;4.0;5.0;5.0;0.0;3.0;0.0;0.0;0.0;675.0;304.0;1024.0;1024.0;1024.0;224.0;1024.0;1024.0;1024.0;1824.0;3.0;0.0;0.0;0.00022151900000000002;0.0;;1970-01-01 00:00:01.100
2711.0;2714.0;0.0;-1.0;-1.0;-1.0;-1.0;-1.0;100.0;0.0;0.0;0.0;0.0;0.0;0.0;0.0;0.0;0.0;0.0;0.0;0.0;0.0;0.0;1.0;274.0;73.0;6.770060000000001;272.171;70.8752;0.0;15.0;1.0;1.10746;0.185748;-3.28725;1.13066;0.19144;-3.4209;0.085422;-0.445808;1.9897900000000002;-3.2818099999999997;-0.9657959999999999;5.68794;2.0;4.0;5.0;5.0;0.0;3.0;0.0;0.0;0.0;675.0;304.0;1024.0;1024.0;1024.0;224.0;1024.0;1024.0;1024.0;1824.0;3.0;0.0;0.0;0.00022151900000000002;0.0;;1970-01-01 00:00:01.111
2711.0;2714.0;0.0;-1.0;-1.0;-1.0;-1.0;-1.0;100.0;0.0;0.0;0.0;0.0;0.0;0.0;0.0;0.0;0.0;0.0;0.0;0.0;0.0;0.0;1.0;274.0;73.0;6.770060000000001;272.171;70.8752;0.0;15.0;1.0;1.10746;0.185748;-3.28725;1.13066;0.19144;-3.4209;0.085422;-0.445808;1.9897900000000002;-3.2818099999999997;-0.9657959999999999;5.68794;2.0;4.0;5.0;5.0;0.0;3.0;0.0;0.0;0.0;675.0;304.0;1024.0;1024.0;1024.0;224.0;1024.0;1024.0;1024.0;1824.0;3.0;0.0;0.0;0.00022151900000000002;0.0;;1970-01-01 00:00:01.122
2712.0;2715.0;0.0;-1.0;-1.0;-1.0;-1.0;-1.0;100.0;0.0;0.0;0.0;0.0;0.0;0.0;0.0;0.0;0.0;0.0;0.0;0.0;0.0;0.0;1.0;273.5;74.6667;7.05178;271.513;73.0539;0.0;16.0;1.0;1.06676;0.206659;-3.14908;1.1114899999999999;0.19600599999999999;-3.3393599999999997;0.00106097;-0.42563;2.0611900000000003;-3.1548;-1.04374;3.4935;2.0;4.0;5.0;5.0;0.0;3.0;0.0;0.0;0.0;675.0;304.0;1024.0;1024.0;1024.0;224.0;1024.0;1024.0;1024.0;1824.0;3.0;0.0;0.0;0.00022151900000000002;0.0;;1970-01-01 00:00:01.133
2713.0;2716.0;0.0;-1.0;-1.0;-1.0;-1.0;-1.0;100.0;0.0;0.0;0.0;0.0;0.0;0.0;0.0;0.0;0.0;0.0;0.0;0.0;0.0;0.0;1.0;272.909;77.2727;6.48281;270.895;75.4217;0.0;17.0;1.0;1.1649399999999999;0.125053;-3.41382;1.12753;0.17472000000000001;-3.3617;0.0342257;-0.47988000000000003;1.83948;-2.61308;-1.31009;0.679513;2.0;4.0;5.0;5.0;0.0;3.0;0.0;0.0;0.0;675.0;304.0;1024.0;1024.0;1024.0;224.0;1024.0;1024.0;1024.0;1824.0;3.0;0.0;0.0;0.00022151900000000002;0.0;;1970-01-01 00:00:01.144
2713.0;2716.0;0.0;-1.0;-1.0;-1.0;-1.0;-1.0;100.0;0.0;0.0;0.0;0.0;0.0;0.0;0.0;0.0;0.0;0.0;0.0;0.0;0.0;0.0;1.0;272.909;77.2727;6.48281;270.895;75.4217;0.0;17.0;1.0;1.1649399999999999;0.125053;-3.41382;1.12753;0.17472000000000001;-3.3617;0.0342257;-0.47988000000000003;1.83948;-2.61308;-1.31009;0.679513;2.0;4.0;5.0;5.0;0.0;3.0;0.0;0.0;0.0;675.0;304.0;1024.0;1024.0;1024.0;224.0;1024.0;1024.0;1024.0;1824.0;3.0;0.0;0.0;0.00022151900000000002;0.0;;1970-01-01 00:00:01.155
2714.0;2717.0;0.0;-1.0;-1.0;-1.0;-1.0;-1.0;100.0;0.0;0.0;0.0;0.0;0.0;0.0;0.0;0.0;0.0;0.0;0.0;0.0;0.0;0.0;1.0;272.66700000000003;78.6667;6.47072;270.41700000000003;77.5376;0.0;18.0;1.0;1.16899;0.11474200000000001;-3.4139699999999995;1.13996;0.156727;-3.3773800000000005;0.0898365;-0.5413859999999999;1.56314;-1.54516;-1.7982799999999999;-3.09631;2.0;4.0;5.0;5.0;0.0;3.0;0.0;0.0;0.0;675.0;304.0;1024.0;1024.0;1024.0;224.0;1024.0;1024.0;1024.0;1824.0;3.0;0.0;0.0;0.00022151900000000002;0.0;;1970-01-01 00:00:01.166
2715.0;2718.0;0.0;-1.0;-1.0;-1.0;-1.0;-1.0;100.0;0.0;0.0;0.0;0.0;0.0;0.0;0.0;0.0;0.0;0.0;0.0;0.0;0.0;0.0;1.0;273.0;81.0;6.497999999999999;270.222;79.768;0.0;19.0;1.0;1.16152;0.10363;-3.3892300000000004;1.1464299999999998;0.140798;-3.38093;0.09968060000000001;-0.578074;1.3870799999999999;-0.752212;-2.09223;-5.86321;2.0;4.0;5.0;5.0;0.0;3.0;0.0;0.0;0.0;675.0;304.0;1024.0;1024.0;1024.0;224.0;1024.0;1024.0;1024.0;1824.0;3.0;0.0;0.0;0.00022151900000000002;0.0;;1970-01-01 00:00:01.177
2715.0;2718.0;0.0;-1.0;-1.0;-1.0;-1.0;-1.0;100.0;0.0;0.0;0.0;0.0;0.0;0.0;0.0;0.0;0.0;0.0;0.0;0.0;0.0;0.0;1.0;273.0;81.0;6.497999999999999;270.222;79.768;0.0;19.0;1.0;1.16152;0.10363;-3.3892300000000004;1.1464299999999998;0.140798;-3.38093;0.09968060000000001;-0.578074;1.3870799999999999;-0.752212;-2.09223;-5.86321;2.0;4.0;5.0;5.0;0.0;3.0;0.0;0.0;0.0;675.0;304.0;1024.0;1024.0;1024.0;224.0;1024.0;1024.0;1024.0;1824.0;3.0;0.0;0.0;0.00022151900000000002;0.0;;1970-01-01 00:00:01.188
2716.0;2719.0;0.0;-1.0;-1.0;-1.0;-1.0;-1.0;100.0;0.0;0.0;0.0;0.0;0.0;0.0;0.0;0.0;0.0;0.0;0.0;0.0;0.0;0.0;1.0;273.0;82.0;6.723730000000001;270.125;81.6542;0.0;20.0;1.0;1.12253;0.12599000000000002;-3.27114;1.13926;0.136355;-3.3480000000000003;0.05446709999999999;-0.5765239999999999;1.35204;-0.637362;-1.9267900000000002;-6.49748;2.0;4.0;5.0;5.0;0.0;3.0;0.0;0.0;0.0;675.0;304.0;1024.0;1024.0;1024.0;224.0;1024.0;1024.0;1024.0;1824.0;3.0;0.0;0.0;0.00022151900000000002;0.0;;1970-01-01 00:00:01.199
2717.0;2720.0;0.0;-1.0;-1.0;-1.0;-1.0;-1.0;100.0;0.0;0.0;0.0;0.0;0.0;0.0;0.0;0.0;0.0;0.0;0.0;0.0;0.0;0.0;1.0;271.75;84.25;7.1078600000000005;269.699;83.6874;0.0;21.0;1.0;1.07065;0.157634;-3.0852;1.11868;0.142739;-3.26916;-0.015159899999999999;-0.540365;1.4171;-0.784013;-1.5336100000000001;-6.18507;2.0;4.0;5.0;5.0;0.0;3.0;0.0;0.0;0.0;675.0;304.0;1024.0;1024.0;1024.0;224.0;1024.0;1024.0;1024.0;1824.0;3.0;0.0;0.0;0.00022151900000000002;0.0;;1970-01-01 00:00:01.210
2717.0;2720.0;0.0;-1.0;-1.0;-1.0;-1.0;-1.0;100.0;0.0;0.0;0.0;0.0;0.0;0.0;0.0;0.0;0.0;0.0;0.0;0.0;0.0;0.0;1.0;271.75;84.25;7.1078600000000005;269.699;83.6874;0.0;21.0;1.0;1.07065;0.157634;-3.0852;1.11868;0.142739;-3.26916;-0.015159899999999999;-0.540365;1.4171;-0.784013;-1.5336100000000001;-6.18507;2.0;4.0;5.0;5.0;0.0;3.0;0.0;0.0;0.0;675.0;304.0;1024.0;1024.0;1024.0;224.0;1024.0;1024.0;1024.0;1824.0;3.0;0.0;0.0;0.00022151900000000002;0.0;;1970-01-01 00:00:01.221
2718.0;2721.0;0.0;-1.0;-1.0;-1.0;-1.0;-1.0;100.0;0.0;0.0;0.0;0.0;0.0;0.0;0.0;0.0;0.0;0.0;0.0;0.0;0.0;0.0;1.0;271.33299999999997;85.3333;6.45151;269.298;85.4538;0.0;22.0;1.0;1.1828;0.070186;-3.3942099999999997;1.13791;0.120973;-3.3066699999999996;0.0964031;-0.623805;0.980751;-0.08973339999999999;-1.71143;-8.02491;2.0;4.0;5.0;5.0;0.0;3.0;0.0;0.0;0.0;675.0;304.0;1024.0;1024.0;1024.0;224.0;1024.0;1024.0;1024.0;1824.0;3.0;0.0;0.0;0.00022151900000000002;0.0;;1970-01-01 00:00:01.232
2719.0;2722.0;0.0;-1.0;-1.0;-1.0;-1.0;-1.0;100.0;0.0;0.0;0.0;0.0;0.0;0.0;0.0;0.0;0.0;0.0;0.0;0.0;0.0;0.0;1.0;272.0;88.0;6.80713;269.26099999999997;87.5303;0.0;23.0;1.0;1.11611;0.100202;-3.20554;1.13137;0.11474200000000001;-3.2763400000000003;0.073199;-0.613759;0.929276;0.10176900000000001;-1.5614;-8.44915;2.0;4.0;5.0;5.0;0.0;3.0;0.0;0.0;0.0;675.0;304.0;1024.0;1024.0;1024.0;224.0;1024.0;1024.0;1024.0;1824.0;3.0;0.0;0.0;0.00022151900000000002;0.0;;1970-01-01 00:00:01.243
2720.0;2723.0;0.0;-1.0;-1.0;-1.0;-1.0;-1.0;100.0;0.0;0.0;0.0;0.0;0.0;0.0;0.0;0.0;0.0;0.0;0.0;0.0;0.0;0.0;1.0;272.0;90.0;6.72572;269.274;89.6179;0.0;24.0;1.0;1.12962;0.077809;-3.2357400000000003;1.13085;0.10366199999999999;-3.26416;0.00751205;-0.5801270000000001;1.00963;-0.267637;-1.09152;-7.27952;2.0;4.0;5.0;5.0;0.0;3.0;0.0;0.0;0.0;675.0;304.0;1024.0;1024.0;1024.0;224.0;1024.0;1024.0;1024.0;1824.0;3.0;0.0;0.0;0.00022151900000000002;0.0;;1970-01-01 00:00:01.254
2720.0;2723.0;0.0;-1.0;-1.0;-1.0;-1.0;-1.0;100.0;0.0;0.0;0.0;0.0;0.0;0.0;0.0;0.0;0.0;0.0;0.0;0.0;0.0;0.0;1.0;272.0;90.0;6.72572;269.274;89.6179;0.0;24.0;1.0;1.12962;0.077809;-3.2357400000000003;1.13085;0.10366199999999999;-3.26416;0.00751205;-0.5801270000000001;1.00963;-0.267637;-1.09152;-7.27952;2.0;4.0;5.0;5.0;0.0;3.0;0.0;0.0;0.0;675.0;304.0;1024.0;1024.0;1024.0;224.0;1024.0;1024.0;1024.0;1824.0;3.0;0.0;0.0;0.00022151900000000002;0.0;;1970-01-01 00:00:01.265
2721.0;2724.0;0.0;-1.0;-1.0;-1.0;-1.0;-1.0;100.0;0.0;0.0;0.0;0.0;0.0;0.0;0.0;0.0;0.0;0.0;0.0;0.0;0.0;0.0;1.0;271.66700000000003;92.3333;6.33237;269.214;91.8182;0.0;25.0;1.0;1.20242;0.00863;-3.4260599999999997;1.15232;0.075153;-3.31273;0.0280125;-0.610178;0.8781049999999999;-0.446733;-0.783099;-6.39989;2.0;4.0;5.0;5.0;0.0;3.0;0.0;0.0;0.0;675.0;304.0;1024.0;1024.0;1024.0;224.0;1024.0;1024.0;1024.0;1824.0;3.0;0.0;0.0;0.00022151900000000002;0.0;;1970-01-01 00:00:01.276
2722.0;2725.0;0.0;-1.0;-1.0;-1.0;-1.0;-1.0;100.0;0.0;0.0;0.0;0.0;0.0;0.0;0.0;0.0;0.0;0.0;0.0;0.0;0.0;0.0;1.0;272.0;94.5;7.2338;269.312;94.046;0.0;26.0;1.0;1.0502799999999999;0.113745;-2.99045;1.12171;0.08673;-3.21605;-0.0532727;-0.564236;1.05368;-0.6981930000000001;-0.4208;-5.03114;2.0;4.0;5.0;5.0;0.0;3.0;0.0;0.0;0.0;675.0;304.0;1024.0;1024.0;1024.0;224.0;1024.0;1024.0;1024.0;1824.0;3.0;0.0;0.0;0.00022151900000000002;0.0;;1970-01-01 00:00:01.287
2722.0;2725.0;0.0;-1.0;-1.0;-1.0;-1.0;-1.0;100.0;0.0;0.0;0.0;0.0;0.0;0.0;0.0;0.0;0.0;0.0;0.0;0.0;0.0;0.0;1.0;272.0;94.5;7.2338;269.312;94.046;0.0;26.0;1.0;1.0502799999999999;0.113745;-2.99045;1.12171;0.08673;-3.21605;-0.0532727;-0.564236;1.05368;-0.6981930000000001;-0.4208;-5.03114;2.0;4.0;5.0;5.0;0.0;3.0;0.0;0.0;0.0;675.0;304.0;1024.0;1024.0;1024.0;224.0;1024.0;1024.0;1024.0;1824.0;3.0;0.0;0.0;0.00022151900000000002;0.0;;1970-01-01 00:00:01.298
2723.0;2726.0;0.0;-1.0;-1.0;-1.0;-1.0;-1.0;100.0;0.0;0.0;0.0;0.0;0.0;0.0;0.0;0.0;0.0;0.0;0.0;0.0;0.0;0.0;1.0;272.0;97.0;7.44885;269.41900000000004;96.3976;0.0;27.0;1.0;1.01996;0.124224;-2.8944;1.0911799999999998;0.097978;-3.11955;-0.141732;-0.51725;1.22951;-0.9242600000000001;-0.160191;-3.76766;2.0;4.0;5.0;5.0;0.0;3.0;0.0;0.0;0.0;675.0;304.0;1024.0;1024.0;1024.0;224.0;1024.0;1024.0;1024.0;1824.0;3.0;0.0;0.0;0.00022151900000000002;0.0;;1970-01-01 00:00:01.309
2724.0;2727.0;0.0;-1.0;-1.0;-1.0;-1.0;-1.0;100.0;0.0;0.0;0.0;0.0;0.0;0.0;0.0;0.0;0.0;0.0;0.0;0.0;0.0;0.0;1.0;273.0;98.0;7.09765;269.847;98.3591;0.0;28.0;1.0;1.06339;0.077628;-3.0335400000000003;1.08284;0.091873;-3.09375;-0.3049;-0.42653199999999997;1.58781;-2.15677;0.6915020000000001;0.163103;2.0;4.0;5.0;5.0;0.0;3.0;0.0;0.0;0.0;675.0;304.0;1024.0;1024.0;1024.0;224.0;1024.0;1024.0;1024.0;1824.0;3.0;0.0;0.0;0.00022151900000000002;0.0;;1970-01-01 00:00:01.320
2724.0;2727.0;0.0;-1.0;-1.0;-1.0;-1.0;-1.0;100.0;0.0;0.0;0.0;0.0;0.0;0.0;0.0;0.0;0.0;0.0;0.0;0.0;0.0;0.0;1.0;273.0;98.0;7.09765;269.847;98.3591;0.0;28.0;1.0;1.06339;0.077628;-3.0335400000000003;1.08284;0.091873;-3.09375;-0.3049;-0.42653199999999997;1.58781;-2.15677;0.6915020000000001;0.163103;2.0;4.0;5.0;5.0;0.0;3.0;0.0;0.0;0.0;675.0;304.0;1024.0;1024.0;1024.0;224.0;1024.0;1024.0;1024.0;1824.0;3.0;0.0;0.0;0.00022151900000000002;0.0;;1970-01-01 00:00:01.331
2725.0;2728.0;0.0;-1.0;-1.0;-1.0;-1.0;-1.0;100.0;0.0;0.0;0.0;0.0;0.0;0.0;0.0;0.0;0.0;0.0;0.0;0.0;0.0;0.0;1.0;274.0;102.0;7.4964;270.508;100.993;0.0;29.0;1.0;1.00016;0.102309;-2.8567299999999998;1.0580399999999999;0.09500399999999999;-3.02264;-0.475724;-0.33472399999999997;1.96555;-3.48565;1.52896;4.23522;2.0;4.0;5.0;5.0;0.0;3.0;0.0;0.0;0.0;675.0;304.0;1024.0;1024.0;1024.0;224.0;1024.0;1024.0;1024.0;1824.0;3.0;0.0;0.0;0.00022151900000000002;0.0;;1970-01-01 00:00:01.342
2726.0;2729.0;0.0;-1.0;-1.0;-1.0;-1.0;-1.0;100.0;0.0;0.0;0.0;0.0;0.0;0.0;0.0;0.0;0.0;0.0;0.0;0.0;0.0;0.0;1.0;275.0;103.0;7.4085399999999995;271.335;103.15700000000001;0.0;30.0;1.0;1.00528;0.08676;-2.8867;1.04221;0.09253;-2.9818599999999997;-0.639314;-0.24527800000000002;2.30639;-4.6738599999999995;2.25427;7.71851;2.0;4.0;5.0;5.0;0.0;3.0;0.0;0.0;0.0;675.0;304.0;1024.0;1024.0;1024.0;224.0;1024.0;1024.0;1024.0;1824.0;3.0;0.0;0.0;0.00022151900000000002;0.0;;1970-01-01 00:00:01.353
2726.0;2729.0;0.0;-1.0;-1.0;-1.0;-1.0;-1.0;100.0;0.0;0.0;0.0;0.0;0.0;0.0;0.0;0.0;0.0;0.0;0.0;0.0;0.0;0.0;1.0;275.0;103.0;7.4085399999999995;271.335;103.15700000000001;0.0;30.0;1.0;1.00528;0.08676;-2.8867;1.04221;0.09253;-2.9818599999999997;-0.639314;-0.24527800000000002;2.30639;-4.6738599999999995;2.25427;7.71851;2.0;4.0;5.0;5.0;0.0;3.0;0.0;0.0;0.0;675.0;304.0;1024.0;1024.0;1024.0;224.0;1024.0;1024.0;1024.0;1824.0;3.0;0.0;0.0;0.00022151900000000002;0.0;;1970-01-01 00:00:01.364
2727.0;2730.0;0.0;-1.0;-1.0;-1.0;-1.0;-1.0;100.0;0.0;0.0;0.0;0.0;0.0;0.0;0.0;0.0;0.0;0.0;0.0;0.0;0.0;0.0;1.0;276.0;107.0;7.1608;272.28;105.934;0.0;31.0;1.0;1.03308;0.034152999999999996;-2.9704;1.0394700000000001;0.075017;-2.9784200000000003;-0.8341299999999999;-0.147707;2.71855;-6.24644;3.1989900000000002;11.9791;2.0;4.0;5.0;5.0;0.0;3.0;0.0;0.0;0.0;675.0;304.0;1024.0;1024.0;1024.0;224.0;1024.0;1024.0;1024.0;1824.0;3.0;0.0;0.0;0.00022151900000000002;0.0;;1970-01-01 00:00:01.375
2728.0;2731.0;0.0;-1.0;-1.0;-1.0;-1.0;-1.0;100.0;0.0;0.0;0.0;0.0;0.0;0.0;0.0;0.0;0.0;0.0;0.0;0.0;0.0;0.0;1.0;277.0;109.0;7.260439999999999;273.307;108.51700000000001;0.0;32.0;1.0;1.0120200000000001;0.035509;-2.9216599999999997;1.03124;0.063165;-2.96139;-0.861698;-0.18271400000000002;2.6478900000000003;-6.9756800000000005;3.44271;13.5527;2.0;4.0;5.0;5.0;0.0;3.0;0.0;0.0;0.0;675.0;304.0;1024.0;1024.0;1024.0;224.0;1024.0;1024.0;1024.0;1824.0;3.0;0.0;0.0;0.00022151900000000002;0.0;;1970-01-01 00:00:01.386
2728.0;2731.0;0.0;-1.0;-1.0;-1.0;-1.0;-1.0;100.0;0.0;0.0;0.0;0.0;0.0;0.0;0.0;0.0;0.0;0.0;0.0;0.0;0.0;0.0;1.0;277.0;109.0;7.260439999999999;273.307;108.51700000000001;0.0;32.0;1.0;1.0120200000000001;0.035509;-2.9216599999999997;1.03124;0.063165;-2.96139;-0.861698;-0.18271400000000002;2.6478900000000003;-6.9756800000000005;3.44271;13.5527;2.0;4.0;5.0;5.0;0.0;3.0;0.0;0.0;0.0;675.0;304.0;1024.0;1024.0;1024.0;224.0;1024.0;1024.0;1024.0;1824.0;3.0;0.0;0.0;0.00022151900000000002;0.0;;1970-01-01 00:00:01.397
2729.0;2732.0;0.0;-1.0;-1.0;-1.0;-1.0;-1.0;100.0;0.0;0.0;0.0;0.0;0.0;0.0;0.0;0.0;0.0;0.0;0.0;0.0;0.0;0.0;1.0;278.5;112.0;7.26578;274.551;111.275;0.0;33.0;1.0;1.00096;0.019372;-2.90755;1.02216;0.050026999999999995;-2.94524;-0.792622;-0.301084;2.28471;-6.7842199999999995;2.9287099999999997;12.3447;2.0;4.0;5.0;5.0;0.0;3.0;0.0;0.0;0.0;675.0;304.0;1024.0;1024.0;1024.0;224.0;1024.0;1024.0;1024.0;1824.0;3.0;0.0;0.0;0.00022151900000000002;0.0;;1970-01-01 00:00:01.408
2730.0;2733.0;0.0;-1.0;-1.0;-1.0;-1.0;-1.0;100.0;0.0;0.0;0.0;0.0;0.0;0.0;0.0;0.0;0.0;0.0;0.0;0.0;0.0;0.0;1.0;280.0;116.0;7.27925;275.948;114.479;0.0;34.0;1.0;0.988818;-0.001277;-2.88626;1.01215;0.034636;-2.92755;-0.7578159999999999;-0.409183;2.03442;-5.87889;1.8265;9.190010000000001;2.0;4.0;5.0;5.0;0.0;3.0;0.0;0.0;0.0;675.0;304.0;1024.0;1024.0;1024.0;224.0;1024.0;1024.0;1024.0;1824.0;3.0;0.0;0.0;0.00022151900000000002;0.0;;1970-01-01 00:00:01.419
2731.0;2734.0;0.0;-1.0;-1.0;-1.0;-1.0;-1.0;100.0;0.0;0.0;0.0;0.0;0.0;0.0;0.0;0.0;0.0;0.0;0.0;0.0;0.0;0.0;1.0;281.42900000000003;118.0;7.34658;277.432;117.36399999999999;0.0;35.0;1.0;0.970042;-0.0036420000000000003;-2.85193;0.9995209999999999;0.023152000000000002;-2.9048599999999998;-0.688335;-0.532392;1.69092;-4.37624;0.306669;4.41747;2.0;4.0;5.0;5.0;0.0;3.0;0.0;0.0;0.0;675.0;304.0;1024.0;1024.0;1024.0;224.0;1024.0;1024.0;1024.0;1824.0;3.0;0.0;0.0;0.00022151900000000002;0.0;;1970-01-01 00:00:01.430
2731.0;2734.0;0.0;-1.0;-1.0;-1.0;-1.0;-1.0;100.0;0.0;0.0;0.0;0.0;0.0;0.0;0.0;0.0;0.0;0.0;0.0;0.0;0.0;0.0;1.0;281.42900000000003;118.0;7.34658;277.432;117.36399999999999;0.0;35.0;1.0;0.970042;-0.0036420000000000003;-2.85193;0.9995209999999999;0.023152000000000002;-2.9048599999999998;-0.688335;-0.532392;1.69092;-4.37624;0.306669;4.41747;2.0;4.0;5.0;5.0;0.0;3.0;0.0;0.0;0.0;675.0;304.0;1024.0;1024.0;1024.0;224.0;1024.0;1024.0;1024.0;1824.0;3.0;0.0;0.0;0.00022151900000000002;0.0;;1970-01-01 00:00:01.441
2732.0;2735.0;0.0;-1.0;-1.0;-1.0;-1.0;-1.0;100.0;0.0;0.0;0.0;0.0;0.0;0.0;0.0;0.0;0.0;0.0;0.0;0.0;0.0;0.0;1.0;283.33299999999997;121.333;7.261139999999999;279.126;120.441;0.0;36.0;1.0;0.9683510000000001;-0.033552;-2.8722;0.9901700000000001;0.006141;-2.89506;-0.620785;-0.664363;1.36111;-2.55176;-1.48928;-1.12375;2.0;4.0;5.0;5.0;0.0;3.0;0.0;0.0;0.0;675.0;304.0;1024.0;1024.0;1024.0;224.0;1024.0;1024.0;1024.0;1824.0;3.0;0.0;0.0;0.00022151900000000002;0.0;;1970-01-01 00:00:01.452
2733.0;2736.0;0.0;-1.0;-1.0;-1.0;-1.0;-1.0;100.0;0.0;0.0;0.0;0.0;0.0;0.0;0.0;0.0;0.0;0.0;0.0;0.0;0.0;0.0;1.0;285.0;123.0;7.30382;280.894;123.12299999999999;0.0;37.0;1.0;0.951293;-0.037094999999999996;-2.84881;0.978507;-0.00683;-2.88119;-0.615887;-0.725409;1.20491;-0.659675;-3.20017;-6.71778;2.0;4.0;5.0;5.0;0.0;3.0;0.0;0.0;0.0;675.0;304.0;1024.0;1024.0;1024.0;224.0;1024.0;1024.0;1024.0;1824.0;3.0;0.0;0.0;0.00022151900000000002;0.0;;1970-01-01 00:00:01.463
2733.0;2736.0;0.0;-1.0;-1.0;-1.0;-1.0;-1.0;100.0;0.0;0.0;0.0;0.0;0.0;0.0;0.0;0.0;0.0;0.0;0.0;0.0;0.0;0.0;1.0;285.0;123.0;7.30382;280.894;123.12299999999999;0.0;37.0;1.0;0.951293;-0.037094999999999996;-2.84881;0.978507;-0.00683;-2.88119;-0.615887;-0.725409;1.20491;-0.659675;-3.20017;-6.71778;2.0;4.0;5.0;5.0;0.0;3.0;0.0;0.0;0.0;675.0;304.0;1024.0;1024.0;1024.0;224.0;1024.0;1024.0;1024.0;1824.0;3.0;0.0;0.0;0.00022151900000000002;0.0;;1970-01-01 00:00:01.474
2734.0;2737.0;0.0;-1.0;-1.0;-1.0;-1.0;-1.0;100.0;0.0;0.0;0.0;0.0;0.0;0.0;0.0;0.0;0.0;0.0;0.0;0.0;0.0;0.0;1.0;287.0;127.0;7.20947;282.817;126.26100000000001;0.0;38.0;1.0;0.949883;-0.0726;-2.8700200000000002;0.9699200000000001;-0.026561;-2.87784;-0.614354;-0.793493;1.05656;0.591767;-4.35876;-10.3844;2.0;4.0;5.0;5.0;0.0;3.0;0.0;0.0;0.0;675.0;304.0;1024.0;1024.0;1024.0;224.0;1024.0;1024.0;1024.0;1824.0;3.0;0.0;0.0;0.00022151900000000002;0.0;;1970-01-01 00:00:01.485
2735.0;2738.0;0.0;-1.0;-1.0;-1.0;-1.0;-1.0;100.0;0.0;0.0;0.0;0.0;0.0;0.0;0.0;0.0;0.0;0.0;0.0;0.0;0.0;0.0;1.0;289.0;131.0;7.38492;284.85;129.72899999999998;0.0;39.0;1.0;0.9137870000000001;-0.07036;-2.78615;0.9530799999999999;-0.039699;-2.85033;-0.644412;-0.8343459999999999;1.01289;0.946823;-4.74442;-11.3086;2.0;4.0;5.0;5.0;0.0;3.0;0.0;0.0;0.0;675.0;304.0;1024.0;1024.0;1024.0;224.0;1024.0;1024.0;1024.0;1824.0;3.0;0.0;0.0;0.00022151900000000002;0.0;;1970-01-01 00:00:01.496
2735.0;2738.0;0.0;-1.0;-1.0;-1.0;-1.0;-1.0;100.0;0.0;0.0;0.0;0.0;0.0;0.0;0.0;0.0;0.0;0.0;0.0;0.0;0.0;0.0;1.0;289.0;131.0;7.38492;284.85;129.72899999999998;0.0;39.0;1.0;0.9137870000000001;-0.07036;-2.78615;0.9530799999999999;-0.039699;-2.85033;-0.644412;-0.8343459999999999;1.01289;0.946823;-4.74442;-11.3086;2.0;4.0;5.0;5.0;0.0;3.0;0.0;0.0;0.0;675.0;304.0;1024.0;1024.0;1024.0;224.0;1024.0;1024.0;1024.0;1824.0;3.0;0.0;0.0;0.00022151900000000002;0.0;;1970-01-01 00:00:01.507
2736.0;2739.0;0.0;-1.0;-1.0;-1.0;-1.0;-1.0;100.0;0.0;0.0;0.0;0.0;0.0;0.0;0.0;0.0;0.0;0.0;0.0;0.0;0.0;0.0;1.0;291.0;134.0;7.4582;286.95799999999997;133.113;0.0;40.0;1.0;0.8914120000000001;-0.07671;-2.74713;0.934579;-0.0508;-2.81937;-0.696381;-0.8417309999999999;1.03965;0.813387;-4.57369;-10.757;2.0;4.0;5.0;5.0;0.0;3.0;0.0;0.0;0.0;675.0;304.0;1024.0;1024.0;1024.0;224.0;1024.0;1024.0;1024.0;1824.0;3.0;0.0;0.0;0.00022151900000000002;0.0;;1970-01-01 00:00:01.518
2737.0;2740.0;0.0;-1.0;-1.0;-1.0;-1.0;-1.0;100.0;0.0;0.0;0.0;0.0;0.0;0.0;0.0;0.0;0.0;0.0;0.0;0.0;0.0;0.0;1.0;294.0;138.0;7.4896199999999995;289.437;136.753;0.0;41.0;1.0;0.867662;-0.09414;-2.7201400000000002;0.9145040000000001;-0.0638;-2.7896;-0.757274;-0.852226;1.08399;0.21278000000000002;-4.02122;-8.8775;2.0;4.0;5.0;5.0;0.0;3.0;0.0;0.0;0.0;675.0;304.0;1024.0;1024.0;1024.0;224.0;1024.0;1024.0;1024.0;1824.0;3.0;0.0;0.0;0.00022151900000000002;0.0;;1970-01-01 00:00:01.529
2737.0;2740.0;0.0;-1.0;-1.0;-1.0;-1.0;-1.0;100.0;0.0;0.0;0.0;0.0;0.0;0.0;0.0;0.0;0.0;0.0;0.0;0.0;0.0;0.0;1.0;294.0;138.0;7.4896199999999995;289.437;136.753;0.0;41.0;1.0;0.867662;-0.09414;-2.7201400000000002;0.9145040000000001;-0.0638;-2.7896;-0.757274;-0.852226;1.08399;0.21278000000000002;-4.02122;-8.8775;2.0;4.0;5.0;5.0;0.0;3.0;0.0;0.0;0.0;675.0;304.0;1024.0;1024.0;1024.0;224.0;1024.0;1024.0;1024.0;1824.0;3.0;0.0;0.0;0.00022151900000000002;0.0;;1970-01-01 00:00:01.540
2738.0;2741.0;0.0;-1.0;-1.0;-1.0;-1.0;-1.0;100.0;0.0;0.0;0.0;0.0;0.0;0.0;0.0;0.0;0.0;0.0;0.0;0.0;0.0;0.0;1.0;295.33299999999997;140.667;7.43478;291.64799999999997;140.15;0.0;42.0;1.0;0.8651030000000001;-0.11644000000000002;-2.72982;0.899684;-0.0796;-2.77167;-0.81565;-0.853658;1.14307;-0.6503720000000001;-3.16854;-6.19709;2.0;4.0;5.0;5.0;0.0;3.0;0.0;0.0;0.0;675.0;304.0;1024.0;1024.0;1024.0;224.0;1024.0;1024.0;1024.0;1824.0;3.0;0.0;0.0;0.00022151900000000002;0.0;;1970-01-01 00:00:01.551
2739.0;2742.0;0.0;-1.0;-1.0;-1.0;-1.0;-1.0;100.0;0.0;0.0;0.0;0.0;0.0;0.0;0.0;0.0;0.0;0.0;0.0;0.0;0.0;0.0;1.0;295.33299999999997;140.667;7.43478;292.06;142.35399999999998;1.0;0.0;1.0;0.8651030000000001;-0.11644000000000002;-2.72982;0.899684;-0.0796;-2.77167;-0.81565;-0.853658;1.14307;-0.6503720000000001;-3.16854;-6.19709;2.0;4.0;5.0;5.0;0.0;3.0;0.0;0.0;0.0;675.0;304.0;1024.0;1024.0;1024.0;224.0;1024.0;1024.0;1024.0;1824.0;3.0;0.0;0.0;0.00022151900000000002;0.0;;1970-01-01 00:00:01.562
2739.0;2742.0;0.0;-1.0;-1.0;-1.0;-1.0;-1.0;100.0;0.0;0.0;0.0;0.0;0.0;0.0;0.0;0.0;0.0;0.0;0.0;0.0;0.0;0.0;1.0;295.33299999999997;140.667;7.43478;292.06;142.35399999999998;1.0;0.0;1.0;0.8651030000000001;-0.11644000000000002;-2.72982;0.899684;-0.0796;-2.77167;-0.81565;-0.853658;1.14307;-0.6503720000000001;-3.16854;-6.19709;2.0;4.0;5.0;5.0;0.0;3.0;0.0;0.0;0.0;675.0;304.0;1024.0;1024.0;1024.0;224.0;1024.0;1024.0;1024.0;1824.0;3.0;0.0;0.0;0.00022151900000000002;0.0;;1970-01-01 00:00:01.573
2740.0;2743.0;0.0;-1.0;-1.0;-1.0;-1.0;-1.0;100.0;0.0;0.0;0.0;0.0;0.0;0.0;0.0;0.0;0.0;0.0;0.0;0.0;0.0;0.0;1.0;300.0;146.0;7.453139999999999;295.53700000000003;145.965;0.0;1.0;1.0;0.831691;-0.14295;-2.70238;0.879286;-0.0986;-2.75088;-0.8289540000000001;-0.826267;1.13178;-1.1194;-2.24629;-3.9685300000000003;2.0;4.0;5.0;5.0;0.0;3.0;0.0;0.0;0.0;675.0;304.0;1024.0;1024.0;1024.0;224.0;1024.0;1024.0;1024.0;1824.0;3.0;0.0;0.0;0.00022151900000000002;0.0;;1970-01-01 00:00:01.584
2741.0;2744.0;0.0;-1.0;-1.0;-1.0;-1.0;-1.0;100.0;0.0;0.0;0.0;0.0;0.0;0.0;0.0;0.0;0.0;0.0;0.0;0.0;0.0;0.0;1.0;303.0;150.0;7.35893;298.711;149.651;0.0;2.0;1.0;0.821973;-0.17907;-2.7212400000000003;0.862092;-0.12274000000000002;-2.74199;-0.866394;-0.824926;1.14399;-1.53421;-1.45535;-2.08193;2.0;4.0;5.0;5.0;0.0;3.0;0.0;0.0;0.0;675.0;304.0;1024.0;1024.0;1024.0;224.0;1024.0;1024.0;1024.0;1824.0;3.0;0.0;0.0;0.00022151900000000002;0.0;;1970-01-01 00:00:01.595
2742.0;2745.0;0.0;-1.0;-1.0;-1.0;-1.0;-1.0;100.0;0.0;0.0;0.0;0.0;0.0;0.0;0.0;0.0;0.0;0.0;0.0;0.0;0.0;0.0;1.0;304.0;152.0;7.53361;301.14599999999996;152.765;0.0;3.0;1.0;0.796284;-0.1637;-2.65046;0.84235;-0.13502999999999998;-2.71453;-0.898789;-0.821205;1.15115;-1.79108;-0.828239;-0.775965;2.0;4.0;5.0;5.0;0.0;3.0;0.0;0.0;0.0;675.0;304.0;1024.0;1024.0;1024.0;224.0;1024.0;1024.0;1024.0;1824.0;3.0;0.0;0.0;0.00022151900000000002;0.0;;1970-01-01 00:00:01.606
2742.0;2745.0;0.0;-1.0;-1.0;-1.0;-1.0;-1.0;100.0;0.0;0.0;0.0;0.0;0.0;0.0;0.0;0.0;0.0;0.0;0.0;0.0;0.0;0.0;1.0;304.0;152.0;7.53361;301.14599999999996;152.765;0.0;3.0;1.0;0.796284;-0.1637;-2.65046;0.84235;-0.13502999999999998;-2.71453;-0.898789;-0.821205;1.15115;-1.79108;-0.828239;-0.775965;2.0;4.0;5.0;5.0;0.0;3.0;0.0;0.0;0.0;675.0;304.0;1024.0;1024.0;1024.0;224.0;1024.0;1024.0;1024.0;1824.0;3.0;0.0;0.0;0.00022151900000000002;0.0;;1970-01-01 00:00:01.617
2743.0;2746.0;0.0;-1.0;-1.0;-1.0;-1.0;-1.0;100.0;0.0;0.0;0.0;0.0;0.0;0.0;0.0;0.0;0.0;0.0;0.0;0.0;0.0;0.0;1.0;306.57099999999997;156.0;7.363239999999999;303.657;156.184;0.0;4.0;1.0;0.797261;-0.21158000000000002;-2.69605;0.828823;-0.158;-2.70899;-0.901209;-0.8595790000000001;1.06847;-1.77564;-0.558024;-0.36693400000000004;2.0;4.0;5.0;5.0;0.0;3.0;0.0;0.0;0.0;675.0;304.0;1024.0;1024.0;1024.0;224.0;1024.0;1024.0;1024.0;1824.0;3.0;0.0;0.0;0.00022151900000000002;0.0;;1970-01-01 00:00:01.628
2744.0;2747.0;0.0;-1.0;-1.0;-1.0;-1.0;-1.0;100.0;0.0;0.0;0.0;0.0;0.0;0.0;0.0;0.0;0.0;0.0;0.0;0.0;0.0;0.0;1.0;309.0;159.0;7.44715;306.19599999999997;159.5;0.0;5.0;1.0;0.771986;-0.21489;-2.65401;0.811772;-0.17506;-2.6924900000000003;-0.892307;-0.8965190000000001;0.9734309999999999;-1.5275100000000001;-0.486397;-0.598517;2.0;4.0;5.0;5.0;0.0;3.0;0.0;0.0;0.0;675.0;304.0;1024.0;1024.0;1024.0;224.0;1024.0;1024.0;1024.0;1824.0;3.0;0.0;0.0;0.00022151900000000002;0.0;;1970-01-01 00:00:01.639
2744.0;2747.0;0.0;-1.0;-1.0;-1.0;-1.0;-1.0;100.0;0.0;0.0;0.0;0.0;0.0;0.0;0.0;0.0;0.0;0.0;0.0;0.0;0.0;0.0;1.0;309.0;159.0;7.44715;306.19599999999997;159.5;0.0;5.0;1.0;0.771986;-0.21489;-2.65401;0.811772;-0.17506;-2.6924900000000003;-0.892307;-0.8965190000000001;0.9734309999999999;-1.5275100000000001;-0.486397;-0.598517;2.0;4.0;5.0;5.0;0.0;3.0;0.0;0.0;0.0;675.0;304.0;1024.0;1024.0;1024.0;224.0;1024.0;1024.0;1024.0;1824.0;3.0;0.0;0.0;0.00022151900000000002;0.0;;1970-01-01 00:00:01.650
2745.0;2748.0;0.0;-1.0;-1.0;-1.0;-1.0;-1.0;100.0;0.0;0.0;0.0;0.0;0.0;0.0;0.0;0.0;0.0;0.0;0.0;0.0;0.0;0.0;1.0;311.33299999999997;162.667;7.5;308.731;162.961;0.0;6.0;1.0;0.751004;-0.22659;-2.62115;0.793542;-0.19052;-2.67109;-0.8986379999999999;-0.917539;0.928277;-1.20052;-0.51046;-1.0942;2.0;4.0;5.0;5.0;0.0;3.0;0.0;0.0;0.0;675.0;304.0;1024.0;1024.0;1024.0;224.0;1024.0;1024.0;1024.0;1824.0;3.0;0.0;0.0;0.00022151900000000002;0.0;;1970-01-01 00:00:01.661
2746.0;2749.0;0.0;-1.0;-1.0;-1.0;-1.0;-1.0;100.0;0.0;0.0;0.0;0.0;0.0;0.0;0.0;0.0;0.0;0.0;0.0;0.0;0.0;0.0;1.0;313.0;165.0;7.63155;311.055;166.10299999999998;0.0;7.0;1.0;0.7271479999999999;-0.21875;-2.56711;0.773624;-0.19899;-2.6399;-0.9610629999999999;-0.9513510000000001;1.0001;-1.24779;-0.8057;-1.18228;2.0;4.0;5.0;5.0;0.0;3.0;0.0;0.0;0.0;675.0;304.0;1024.0;1024.0;1024.0;224.0;1024.0;1024.0;1024.0;1824.0;3.0;0.0;0.0;0.00022151900000000002;0.0;;1970-01-01 00:00:01.672
2746.0;2749.0;0.0;-1.0;-1.0;-1.0;-1.0;-1.0;100.0;0.0;0.0;0.0;0.0;0.0;0.0;0.0;0.0;0.0;0.0;0.0;0.0;0.0;0.0;1.0;313.0;165.0;7.63155;311.055;166.10299999999998;0.0;7.0;1.0;0.7271479999999999;-0.21875;-2.56711;0.773624;-0.19899;-2.6399;-0.9610629999999999;-0.9513510000000001;1.0001;-1.24779;-0.8057;-1.18228;2.0;4.0;5.0;5.0;0.0;3.0;0.0;0.0;0.0;675.0;304.0;1024.0;1024.0;1024.0;224.0;1024.0;1024.0;1024.0;1824.0;3.0;0.0;0.0;0.00022151900000000002;0.0;;1970-01-01 00:00:01.683
2747.0;2750.0;0.0;-1.0;-1.0;-1.0;-1.0;-1.0;100.0;0.0;0.0;0.0;0.0;0.0;0.0;0.0;0.0;0.0;0.0;0.0;0.0;0.0;0.0;1.0;315.0;168.0;7.48465;313.332;169.226;0.0;8.0;1.0;0.728071;-0.25801;-2.6059;0.759958;-0.2167;-2.6297;-0.984432;-0.945946;1.04841;-1.21996;-0.96662;-1.09097;2.0;4.0;5.0;5.0;0.0;3.0;0.0;0.0;0.0;675.0;304.0;1024.0;1024.0;1024.0;224.0;1024.0;1024.0;1024.0;1824.0;3.0;0.0;0.0;0.00022151900000000002;0.0;;1970-01-01 00:00:01.694
2748.0;2751.0;0.0;-1.0;-1.0;-1.0;-1.0;-1.0;100.0;0.0;0.0;0.0;0.0;0.0;0.0;0.0;0.0;0.0;0.0;0.0;0.0;0.0;0.0;1.0;317.0;171.0;7.57265;315.574;172.33599999999998;0.0;9.0;1.0;0.706417;-0.2601;-2.56414;0.743895;-0.22971999999999998;-2.61003;-0.983758;-0.945634;1.0462799999999999;-1.07123;-1.0767799999999998;-1.07331;2.0;4.0;5.0;5.0;0.0;3.0;0.0;0.0;0.0;675.0;304.0;1024.0;1024.0;1024.0;224.0;1024.0;1024.0;1024.0;1824.0;3.0;0.0;0.0;0.00022151900000000002;0.0;;1970-01-01 00:00:01.705
2748.0;2751.0;0.0;-1.0;-1.0;-1.0;-1.0;-1.0;100.0;0.0;0.0;0.0;0.0;0.0;0.0;0.0;0.0;0.0;0.0;0.0;0.0;0.0;0.0;1.0;317.0;171.0;7.57265;315.574;172.33599999999998;0.0;9.0;1.0;0.706417;-0.2601;-2.56414;0.743895;-0.22971999999999998;-2.61003;-0.983758;-0.945634;1.0462799999999999;-1.07123;-1.0767799999999998;-1.07331;2.0;4.0;5.0;5.0;0.0;3.0;0.0;0.0;0.0;675.0;304.0;1024.0;1024.0;1024.0;224.0;1024.0;1024.0;1024.0;1824.0;3.0;0.0;0.0;0.00022151900000000002;0.0;;1970-01-01 00:00:01.716
2749.0;2752.0;0.0;-1.0;-1.0;-1.0;-1.0;-1.0;100.0;0.0;0.0;0.0;0.0;0.0;0.0;0.0;0.0;0.0;0.0;0.0;0.0;0.0;0.0;1.0;319.0;173.0;7.59444;317.79;175.11599999999999;0.0;10.0;1.0;0.691233;-0.26735;-2.5491599999999996;0.728097;-0.24101;-2.59177;-0.992425;-0.898826;1.09578;-1.00694;-0.802773;-0.534974;2.0;4.0;5.0;5.0;0.0;3.0;0.0;0.0;0.0;675.0;304.0;1024.0;1024.0;1024.0;224.0;1024.0;1024.0;1024.0;1824.0;3.0;0.0;0.0;0.00022151900000000002;0.0;;1970-01-01 00:00:01.727
2750.0;2753.0;0.0;-1.0;-1.0;-1.0;-1.0;-1.0;100.0;0.0;0.0;0.0;0.0;0.0;0.0;0.0;0.0;0.0;0.0;0.0;0.0;0.0;0.0;1.0;321.0;177.0;7.49487;319.98400000000004;178.294;0.0;11.0;1.0;0.6870850000000001;-0.30525;-2.56757;0.715793;-0.26028;-2.58451;-0.978671;-0.879539;1.08861;-0.948991;-0.413866;0.138883;2.0;4.0;5.0;5.0;0.0;3.0;0.0;0.0;0.0;675.0;304.0;1024.0;1024.0;1024.0;224.0;1024.0;1024.0;1024.0;1824.0;3.0;0.0;0.0;0.00022151900000000002;0.0;;1970-01-01 00:00:01.738
2750.0;2753.0;0.0;-1.0;-1.0;-1.0;-1.0;-1.0;100.0;0.0;0.0;0.0;0.0;0.0;0.0;0.0;0.0;0.0;0.0;0.0;0.0;0.0;0.0;1.0;321.0;177.0;7.49487;319.98400000000004;178.294;0.0;11.0;1.0;0.6870850000000001;-0.30525;-2.56757;0.715793;-0.26028;-2.58451;-0.978671;-0.879539;1.08861;-0.948991;-0.413866;0.138883;2.0;4.0;5.0;5.0;0.0;3.0;0.0;0.0;0.0;675.0;304.0;1024.0;1024.0;1024.0;224.0;1024.0;1024.0;1024.0;1824.0;3.0;0.0;0.0;0.00022151900000000002;0.0;;1970-01-01 00:00:01.749
2751.0;2754.0;0.0;-1.0;-1.0;-1.0;-1.0;-1.0;100.0;0.0;0.0;0.0;0.0;0.0;0.0;0.0;0.0;0.0;0.0;0.0;0.0;0.0;0.0;1.0;323.0;179.0;7.689430000000001;322.161;181.123;0.0;12.0;1.0;0.6567069999999999;-0.28408;-2.4950799999999997;0.698067;-0.26742;-2.55768;-0.968405;-0.8347549999999999;1.10598;-0.847952;0.0822138;0.792841;2.0;4.0;5.0;5.0;0.0;3.0;0.0;0.0;0.0;675.0;304.0;1024.0;1024.0;1024.0;224.0;1024.0;1024.0;1024.0;1824.0;3.0;0.0;0.0;0.00022151900000000002;0.0;;1970-01-01 00:00:01.760
2752.0;2755.0;0.0;-1.0;-1.0;-1.0;-1.0;-1.0;100.0;0.0;0.0;0.0;0.0;0.0;0.0;0.0;0.0;0.0;0.0;0.0;0.0;0.0;0.0;1.0;325.0;183.0;7.50453;324.324;184.335;0.0;13.0;1.0;0.659573;-0.33618000000000003;-2.5411200000000003;0.686519;-0.28805;-2.55271;-0.928826;-0.856433;1.0117;-0.38005900000000004;0.42830799999999997;0.5220060000000001;2.0;4.0;5.0;5.0;0.0;3.0;0.0;0.0;0.0;675.0;304.0;1024.0;1024.0;1024.0;224.0;1024.0;1024.0;1024.0;1824.0;3.0;0.0;0.0;0.00022151900000000002;0.0;;1970-01-01 00:00:01.771
2753.0;2756.0;0.0;-1.0;-1.0;-1.0;-1.0;-1.0;100.0;0.0;0.0;0.0;0.0;0.0;0.0;0.0;0.0;0.0;0.0;0.0;0.0;0.0;0.0;1.0;326.0;186.0;7.625960000000001;326.155;187.50599999999997;0.0;14.0;1.0;0.642519;-0.33171999999999996;-2.48926;0.673319;-0.30115;-2.53368;-0.9032190000000001;-0.851052;0.990397;0.09622119999999999;0.635872;0.081568;2.0;4.0;5.0;5.0;0.0;3.0;0.0;0.0;0.0;675.0;304.0;1024.0;1024.0;1024.0;224.0;1024.0;1024.0;1024.0;1824.0;3.0;0.0;0.0;0.00022151900000000002;0.0;;1970-01-01 00:00:01.782
2753.0;2756.0;0.0;-1.0;-1.0;-1.0;-1.0;-1.0;100.0;0.0;0.0;0.0;0.0;0.0;0.0;0.0;0.0;0.0;0.0;0.0;0.0;0.0;0.0;1.0;326.0;186.0;7.625960000000001;326.155;187.50599999999997;0.0;14.0;1.0;0.642519;-0.33171999999999996;-2.48926;0.673319;-0.30115;-2.53368;-0.9032190000000001;-0.851052;0.990397;0.09622119999999999;0.635872;0.081568;2.0;4.0;5.0;5.0;0.0;3.0;0.0;0.0;0.0;675.0;304.0;1024.0;1024.0;1024.0;224.0;1024.0;1024.0;1024.0;1824.0;3.0;0.0;0.0;0.00022151900000000002;0.0;;1970-01-01 00:00:01.793
2754.0;2757.0;0.0;-1.0;-1.0;-1.0;-1.0;-1.0;100.0;0.0;0.0;0.0;0.0;0.0;0.0;0.0;0.0;0.0;0.0;0.0;0.0;0.0;0.0;1.0;327.0;189.0;7.49665;327.744;190.645;0.0;15.0;1.0;0.646939;-0.37012;-2.52062;0.665405;-0.32184;-2.52976;-0.8553219999999999;-0.878446;0.91474;0.570541;0.649788;-0.476254;2.0;4.0;5.0;5.0;0.0;3.0;0.0;0.0;0.0;675.0;304.0;1024.0;1024.0;1024.0;224.0;1024.0;1024.0;1024.0;1824.0;3.0;0.0;0.0;0.00022151900000000002;0.0;;1970-01-01 00:00:01.804
2755.0;2758.0;0.0;-1.0;-1.0;-1.0;-1.0;-1.0;100.0;0.0;0.0;0.0;0.0;0.0;0.0;0.0;0.0;0.0;0.0;0.0;0.0;0.0;0.0;1.0;329.0;192.0;7.758780000000001;329.476;193.761;0.0;16.0;1.0;0.612204;-0.34126;-2.42426;0.6494449999999999;-0.32766999999999996;-2.49811;-0.8272290000000001;-0.8730680000000001;0.922802;1.00191;0.49271899999999996;-0.9763940000000001;2.0;4.0;5.0;5.0;0.0;3.0;0.0;0.0;0.0;675.0;304.0;1024.0;1024.0;1024.0;224.0;1024.0;1024.0;1024.0;1824.0;3.0;0.0;0.0;0.00022151900000000002;0.0;;1970-01-01 00:00:01.815
2755.0;2758.0;0.0;-1.0;-1.0;-1.0;-1.0;-1.0;100.0;0.0;0.0;0.0;0.0;0.0;0.0;0.0;0.0;0.0;0.0;0.0;0.0;0.0;0.0;1.0;329.0;192.0;7.758780000000001;329.476;193.761;0.0;16.0;1.0;0.612204;-0.34126;-2.42426;0.6494449999999999;-0.32766999999999996;-2.49811;-0.8272290000000001;-0.8730680000000001;0.922802;1.00191;0.49271899999999996;-0.9763940000000001;2.0;4.0;5.0;5.0;0.0;3.0;0.0;0.0;0.0;675.0;304.0;1024.0;1024.0;1024.0;224.0;1024.0;1024.0;1024.0;1824.0;3.0;0.0;0.0;0.00022151900000000002;0.0;;1970-01-01 00:00:01.826
2756.0;2759.0;0.0;-1.0;-1.0;-1.0;-1.0;-1.0;100.0;0.0;0.0;0.0;0.0;0.0;0.0;0.0;0.0;0.0;0.0;0.0;0.0;0.0;0.0;1.0;330.8;195.6;7.63117;331.24699999999996;197.05;0.0;17.0;1.0;0.610658;-0.38206;-2.45114;0.637809;-0.34398;-2.48402;-0.807707;-0.8580399999999999;0.954915;1.28375;0.381468;-1.11963;2.0;4.0;5.0;5.0;0.0;3.0;0.0;0.0;0.0;675.0;304.0;1024.0;1024.0;1024.0;224.0;1024.0;1024.0;1024.0;1824.0;3.0;0.0;0.0;0.00022151900000000002;0.0;;1970-01-01 00:00:01.837
2757.0;2760.0;0.0;-1.0;-1.0;-1.0;-1.0;-1.0;100.0;0.0;0.0;0.0;0.0;0.0;0.0;0.0;0.0;0.0;0.0;0.0;0.0;0.0;0.0;1.0;332.0;199.0;7.7972399999999995;332.855;200.4;0.0;18.0;1.0;0.589964;-0.37144;-2.38631;0.623455;-0.35222;-2.45471;-0.782529;-0.853405;0.984094;1.5124;0.15441300000000002;-1.1584299999999998;2.0;4.0;5.0;5.0;0.0;3.0;0.0;0.0;0.0;675.0;304.0;1024.0;1024.0;1024.0;224.0;1024.0;1024.0;1024.0;1824.0;3.0;0.0;0.0;0.00022151900000000002;0.0;;1970-01-01 00:00:01.848
2757.0;2760.0;0.0;-1.0;-1.0;-1.0;-1.0;-1.0;100.0;0.0;0.0;0.0;0.0;0.0;0.0;0.0;0.0;0.0;0.0;0.0;0.0;0.0;0.0;1.0;332.0;199.0;7.7972399999999995;332.855;200.4;0.0;18.0;1.0;0.589964;-0.37144;-2.38631;0.623455;-0.35222;-2.45471;-0.782529;-0.853405;0.984094;1.5124;0.15441300000000002;-1.1584299999999998;2.0;4.0;5.0;5.0;0.0;3.0;0.0;0.0;0.0;675.0;304.0;1024.0;1024.0;1024.0;224.0;1024.0;1024.0;1024.0;1824.0;3.0;0.0;0.0;0.00022151900000000002;0.0;;1970-01-01 00:00:01.859
2758.0;2761.0;0.0;-1.0;-1.0;-1.0;-1.0;-1.0;100.0;0.0;0.0;0.0;0.0;0.0;0.0;0.0;0.0;0.0;0.0;0.0;0.0;0.0;0.0;1.0;334.0;201.0;7.78795;334.598;203.347;0.0;19.0;1.0;0.577838;-0.38347;-2.38172;0.60977;-0.36159;-2.43281;-0.775954;-0.8056909999999999;1.0691899999999999;1.5178200000000002;0.295244;-0.465513;2.0;4.0;5.0;5.0;0.0;3.0;0.0;0.0;0.0;675.0;304.0;1024.0;1024.0;1024.0;224.0;1024.0;1024.0;1024.0;1824.0;3.0;0.0;0.0;0.00022151900000000002;0.0;;1970-01-01 00:00:01.870
2759.0;2762.0;0.0;-1.0;-1.0;-1.0;-1.0;-1.0;100.0;0.0;0.0;0.0;0.0;0.0;0.0;0.0;0.0;0.0;0.0;0.0;0.0;0.0;0.0;1.0;334.5;206.0;7.83747;335.96;206.956;0.0;20.0;1.0;0.5710000000000001;-0.40102;-2.3482;0.5981390000000001;-0.37342;-2.4074299999999997;-0.765745;-0.771975;1.1455899999999999;1.45959;0.49287700000000007;0.340343;2.0;4.0;5.0;5.0;0.0;3.0;0.0;0.0;0.0;675.0;304.0;1024.0;1024.0;1024.0;224.0;1024.0;1024.0;1024.0;1824.0;3.0;0.0;0.0;0.00022151900000000002;0.0;;1970-01-01 00:00:01.881
2759.0;2762.0;0.0;-1.0;-1.0;-1.0;-1.0;-1.0;100.0;0.0;0.0;0.0;0.0;0.0;0.0;0.0;0.0;0.0;0.0;0.0;0.0;0.0;0.0;1.0;334.5;206.0;7.83747;335.96;206.956;0.0;20.0;1.0;0.5710000000000001;-0.40102;-2.3482;0.5981390000000001;-0.37342;-2.4074299999999997;-0.765745;-0.771975;1.1455899999999999;1.45959;0.49287700000000007;0.340343;2.0;4.0;5.0;5.0;0.0;3.0;0.0;0.0;0.0;675.0;304.0;1024.0;1024.0;1024.0;224.0;1024.0;1024.0;1024.0;1824.0;3.0;0.0;0.0;0.00022151900000000002;0.0;;1970-01-01 00:00:01.892
2760.0;2763.0;0.0;-1.0;-1.0;-1.0;-1.0;-1.0;100.0;0.0;0.0;0.0;0.0;0.0;0.0;0.0;0.0;0.0;0.0;0.0;0.0;0.0;0.0;1.0;337.0;209.0;7.9471;337.685;210.40900000000002;0.0;21.0;1.0;0.547407;-0.39775;-2.30487;0.582919;-0.38072;-2.3766599999999998;-0.7887890000000001;-0.6982689999999999;1.29863;1.1414;1.01512;1.7369599999999998;2.0;4.0;1.0;7.0;0.0;6.0;0.0;0.0;0.0;675.0;618.0;1062.0;1227.0;1024.0;224.0;1024.0;1024.0;1024.0;1824.0;3.0;0.0;0.0;0.00022151900000000002;0.0;;1970-01-01 00:00:01.903
2761.0;2764.0;0.0;-1.0;-1.0;-1.0;-1.0;-1.0;101.0;0.0;0.0;0.0;0.0;0.0;0.0;0.0;0.0;0.0;0.0;0.0;0.0;0.0;0.0;3.0;338.667;213.333;7.81653;339.405;214.171;0.0;22.0;1.0;0.545899;-0.44283;-2.32733;0.571813;-0.39935;-2.36186;-0.783233;-0.7051810000000001;1.32318;0.860503;1.2794;2.6407700000000003;4.0;4.0;5.0;7.0;0.0;6.0;0.0;0.0;0.0;675.0;618.0;1061.0;1258.0;1024.0;224.0;1024.0;1024.0;1024.0;1824.0;3.0;0.0;0.0;2.8026e-45;0.0;;1970-01-01 00:00:01.914
2761.0;2764.0;0.0;-1.0;-1.0;-1.0;-1.0;-1.0;101.0;0.0;0.0;0.0;0.0;0.0;0.0;0.0;0.0;0.0;0.0;0.0;0.0;0.0;0.0;3.0;338.667;213.333;7.81653;339.405;214.171;0.0;22.0;1.0;0.545899;-0.44283;-2.32733;0.571813;-0.39935;-2.36186;-0.783233;-0.7051810000000001;1.32318;0.860503;1.2794;2.6407700000000003;4.0;4.0;5.0;7.0;0.0;6.0;0.0;0.0;0.0;675.0;618.0;1061.0;1258.0;1024.0;224.0;1024.0;1024.0;1024.0;1824.0;3.0;0.0;0.0;2.8026e-45;0.0;;1970-01-01 00:00:01.925
2762.0;2765.0;0.0;-1.0;-1.0;-1.0;-1.0;-1.0;102.0;0.0;0.0;0.0;0.0;0.0;0.0;0.0;0.0;0.0;0.0;0.0;0.0;0.0;0.0;3.0;340.0;216.0;8.21285;341.015;217.62400000000002;0.0;23.0;1.0;0.511446;-0.38884;-2.20562;0.553703;-0.3962;-2.3149900000000003;-0.8057489999999999;-0.631582;1.4688;0.52412;1.67182;3.63625;4.0;4.0;1.0;7.0;0.0;6.0;0.511446;-1.43884;-2.20562;675.0;618.0;1097.0;1115.0;1024.0;224.0;1024.0;1024.0;1024.0;1824.0;3.0;0.0;0.0;0.0;0.0;;1970-01-01 00:00:01.936
2763.0;2766.0;0.0;-1.0;-1.0;-1.0;-1.0;-1.0;103.0;0.0;0.0;0.0;0.0;0.0;0.0;0.0;0.0;0.0;0.0;0.0;0.0;0.0;0.0;3.0;343.0;221.0;8.18404;343.077;221.59599999999998;0.0;24.0;1.0;0.494933;-0.41841999999999996;-2.1956900000000004;0.536072;-0.40286;-2.2792;-0.8323450000000001;-0.581155;1.5820299999999998;0.11557;2.0901099999999997;4.56915;4.0;4.0;1.0;7.0;0.0;6.0;0.494933;-1.46842;-2.1956900000000004;675.0;618.0;1116.0;1092.0;1024.0;224.0;1024.0;1024.0;1024.0;1824.0;3.0;0.0;0.0;0.0;0.0;;1970-01-01 00:00:01.947
2764.0;2767.0;0.0;-1.0;-1.0;-1.0;-1.0;-1.0;104.0;0.0;0.0;0.0;0.0;0.0;0.0;0.0;0.0;0.0;0.0;0.0;0.0;0.0;0.0;3.0;343.333;222.667;8.27984;344.615;224.88;0.0;25.0;1.0;0.487196;-0.41078000000000003;-2.16446;0.521409;-0.40524;-2.24478;-0.8522049999999999;-0.5229520000000001;1.6999799999999998;-0.235107;2.3829700000000003;5.26008;4.0;4.0;1.0;7.0;0.0;6.0;0.487196;-1.46078;-2.16446;675.0;618.0;1121.0;1044.0;1024.0;224.0;1024.0;1024.0;1024.0;1824.0;3.0;0.0;0.0;0.0;0.0;;1970-01-01 00:00:01.958
2764.0;2767.0;0.0;-1.0;-1.0;-1.0;-1.0;-1.0;104.0;0.0;0.0;0.0;0.0;0.0;0.0;0.0;0.0;0.0;0.0;0.0;0.0;0.0;0.0;3.0;343.333;222.667;8.27984;344.615;224.88;0.0;25.0;1.0;0.487196;-0.41078000000000003;-2.16446;0.521409;-0.40524;-2.24478;-0.8522049999999999;-0.5229520000000001;1.6999799999999998;-0.235107;2.3829700000000003;5.26008;4.0;4.0;1.0;7.0;0.0;6.0;0.487196;-1.46078;-2.16446;675.0;618.0;1121.0;1044.0;1024.0;224.0;1024.0;1024.0;1024.0;1824.0;3.0;0.0;0.0;0.0;0.0;;1970-01-01 00:00:01.969
2765.0;2768.0;0.0;-1.0;-1.0;-1.0;-1.0;-1.0;105.0;0.0;0.0;0.0;0.0;0.0;0.0;0.0;0.0;0.0;0.0;0.0;0.0;0.0;0.0;3.0;346.0;227.0;8.30022;346.517;228.513;0.0;26.0;1.0;0.46995;-0.42868999999999996;-2.14403;0.505972;-0.41228000000000004;-2.21455;-0.8793209999999999;-0.46890699999999996;1.79008;-0.594538;2.63984;5.7293199999999995;4.0;5.0;1.0;7.0;0.0;7.0;0.46995;-1.47869;-2.14403;675.0;618.0;1143.0;1012.0;1024.0;224.0;1024.0;1024.0;1024.0;1824.0;3.0;0.0;0.0;0.0;0.0;;1970-01-01 00:00:01.980
2766.0;2769.0;0.0;-1.0;-1.0;-1.0;-1.0;-1.0;106.0;0.0;0.0;0.0;0.0;0.0;0.0;0.0;0.0;0.0;0.0;0.0;0.0;0.0;0.0;3.0;348.0;230.0;8.40825;348.469;231.97400000000002;0.0;27.0;1.0;0.452029;-0.42551000000000005;-2.10615;0.48978900000000003;-0.41623999999999994;-2.18203;-0.899437;-0.42318999999999996;1.85116;-0.798512;2.68222;5.643669999999999;4.0;5.0;1.0;7.0;0.0;7.0;0.452029;-1.37551;-2.10615;675.0;1824.0;1143.0;1012.0;1024.0;224.0;1024.0;1024.0;1024.0;1824.0;3.0;0.0;0.0;0.0;0.0;;1970-01-01 00:00:01.991
2766.0;2769.0;0.0;-1.0;-1.0;-1.0;-1.0;-1.0;106.0;0.0;0.0;0.0;0.0;0.0;0.0;0.0;0.0;0.0;0.0;0.0;0.0;0.0;0.0;3.0;348.0;230.0;8.40825;348.469;231.97400000000002;0.0;27.0;1.0;0.452029;-0.42551000000000005;-2.10615;0.48978900000000003;-0.41623999999999994;-2.18203;-0.899437;-0.42318999999999996;1.85116;-0.798512;2.68222;5.643669999999999;4.0;5.0;1.0;7.0;0.0;7.0;0.452029;-1.37551;-2.10615;675.0;1824.0;1143.0;1012.0;1024.0;224.0;1024.0;1024.0;1024.0;1824.0;3.0;0.0;0.0;0.0;0.0;;1970-01-01 00:00:02.002
2767.0;2770.0;0.0;-1.0;-1.0;-1.0;-1.0;-1.0;107.0;0.0;0.0;0.0;0.0;0.0;0.0;0.0;0.0;0.0;0.0;0.0;0.0;0.0;0.0;3.0;351.0;233.0;8.38442;350.777;235.308;0.0;28.0;1.0;0.435439;-0.44398000000000004;-2.1017799999999998;0.473484;-0.42457;-2.15795;-0.932265;-0.354589;1.9248299999999998;-1.07415;3.00915;5.78843;4.0;5.0;1.0;7.0;0.0;7.0;0.435439;-1.39398;-2.1017799999999998;675.0;1824.0;1143.0;1012.0;1024.0;224.0;1024.0;1024.0;1024.0;1824.0;3.0;0.0;0.0;0.0;0.0;;1970-01-01 00:00:02.013
2768.0;2771.0;0.0;-1.0;-1.0;-1.0;-1.0;-1.0;108.0;0.0;0.0;0.0;0.0;0.0;0.0;0.0;0.0;0.0;0.0;0.0;0.0;0.0;0.0;3.0;353.0;236.0;8.40521;353.02099999999996;238.551;0.0;29.0;1.0;0.422475;-0.45506;-2.08624;0.45818100000000006;-0.43372;-2.1364400000000003;-0.940752;-0.362556;1.86778;-1.1835200000000001;2.87963;5.06609;4.0;5.0;1.0;7.0;0.0;7.0;0.422475;-1.40506;-2.08624;675.0;1824.0;1143.0;1012.0;1024.0;224.0;1024.0;1024.0;1024.0;1824.0;3.0;0.0;0.0;0.0;0.0;;1970-01-01 00:00:02.024
2768.0;2771.0;0.0;-1.0;-1.0;-1.0;-1.0;-1.0;108.0;0.0;0.0;0.0;0.0;0.0;0.0;0.0;0.0;0.0;0.0;0.0;0.0;0.0;0.0;3.0;353.0;236.0;8.40521;353.02099999999996;238.551;0.0;29.0;1.0;0.422475;-0.45506;-2.08624;0.45818100000000006;-0.43372;-2.1364400000000003;-0.940752;-0.362556;1.86778;-1.1835200000000001;2.87963;5.06609;4.0;5.0;1.0;7.0;0.0;7.0;0.422475;-1.40506;-2.08624;675.0;1824.0;1143.0;1012.0;1024.0;224.0;1024.0;1024.0;1024.0;1824.0;3.0;0.0;0.0;0.0;0.0;;1970-01-01 00:00:02.035
2769.0;2772.0;0.0;-1.0;-1.0;-1.0;-1.0;-1.0;109.0;0.0;0.0;0.0;0.0;0.0;0.0;0.0;0.0;0.0;0.0;0.0;0.0;0.0;0.0;3.0;356.0;240.0;8.45923;355.538;242.044;0.0;30.0;1.0;0.40206;-0.46534;-2.05923;0.441345;-0.4432;-2.11328;-0.9426709999999999;-0.3786;1.7831400000000002;-1.1506100000000001;2.53652;3.84263;4.0;5.0;1.0;7.0;0.0;7.0;0.40206;-1.41534;-2.05923;675.0;1824.0;1143.0;1012.0;1024.0;224.0;1024.0;1024.0;1024.0;1824.0;3.0;0.0;0.0;0.0;0.0;;1970-01-01 00:00:02.046
2770.0;2773.0;0.0;-1.0;-1.0;-1.0;-1.0;-1.0;110.0;0.0;0.0;0.0;0.0;0.0;0.0;0.0;0.0;0.0;0.0;0.0;0.0;0.0;0.0;3.0;358.8;244.4;8.45763;358.186;245.847;0.0;31.0;1.0;0.38559699999999997;-0.48678999999999994;-2.04455;0.42462;-0.45628;-2.09266;-0.9520549999999999;-0.43094899999999997;1.67724;-1.08904;1.88926;2.2147900000000003;4.0;5.0;1.0;7.0;0.0;7.0;0.38559699999999997;-1.43679;-2.04455;675.0;1824.0;1143.0;1012.0;1024.0;224.0;1024.0;1024.0;1024.0;1824.0;3.0;0.0;0.0;0.0;0.0;;1970-01-01 00:00:02.057
2770.0;2773.0;0.0;-1.0;-1.0;-1.0;-1.0;-1.0;110.0;0.0;0.0;0.0;0.0;0.0;0.0;0.0;0.0;0.0;0.0;0.0;0.0;0.0;0.0;3.0;358.8;244.4;8.45763;358.186;245.847;0.0;31.0;1.0;0.38559699999999997;-0.48678999999999994;-2.04455;0.42462;-0.45628;-2.09266;-0.9520549999999999;-0.43094899999999997;1.67724;-1.08904;1.88926;2.2147900000000003;4.0;5.0;1.0;7.0;0.0;7.0;0.38559699999999997;-1.43679;-2.04455;675.0;1824.0;1143.0;1012.0;1024.0;224.0;1024.0;1024.0;1024.0;1824.0;3.0;0.0;0.0;0.0;0.0;;1970-01-01 00:00:02.068
2771.0;2774.0;0.0;-1.0;-1.0;-1.0;-1.0;-1.0;111.0;0.0;0.0;0.0;0.0;0.0;0.0;0.0;0.0;0.0;0.0;0.0;0.0;0.0;0.0;3.0;363.0;248.0;8.49917;361.375;249.618;0.0;32.0;1.0;0.359025;-0.49701000000000006;-2.0223;0.404942;-0.4685;-2.07155;-0.974617;-0.48305;1.57731;-1.0339200000000002;1.07708;0.479315;4.0;5.0;1.0;7.0;0.0;8.0;0.359025;-1.4470100000000001;-2.0223;675.0;1824.0;1143.0;1012.0;1024.0;224.0;1024.0;1024.0;1024.0;1824.0;3.0;0.0;0.0;0.0;0.0;;1970-01-01 00:00:02.079
2772.0;2775.0;0.0;-1.0;-1.0;-1.0;-1.0;-1.0;112.0;0.0;0.0;0.0;0.0;0.0;0.0;0.0;0.0;0.0;0.0;0.0;0.0;0.0;0.0;3.0;364.8;250.4;8.515789999999999;364.18699999999995;252.981;0.0;33.0;1.0;0.347765;-0.50566;-2.01019;0.387789;-0.47965;-2.05314;-0.992027;-0.542978;1.46099;-0.990032;0.167972;-1.27021;4.0;5.0;1.0;7.0;0.0;8.0;0.347765;-1.45566;-2.01019;675.0;618.0;1143.0;1012.0;1024.0;224.0;1024.0;1024.0;1024.0;1824.0;3.0;0.0;0.0;0.0;0.0;;1970-01-01 00:00:02.090
2772.0;2775.0;0.0;-1.0;-1.0;-1.0;-1.0;-1.0;112.0;0.0;0.0;0.0;0.0;0.0;0.0;0.0;0.0;0.0;0.0;0.0;0.0;0.0;0.0;3.0;364.8;250.4;8.515789999999999;364.18699999999995;252.981;0.0;33.0;1.0;0.347765;-0.50566;-2.01019;0.387789;-0.47965;-2.05314;-0.992027;-0.542978;1.46099;-0.990032;0.167972;-1.27021;4.0;5.0;1.0;7.0;0.0;8.0;0.347765;-1.45566;-2.01019;675.0;618.0;1143.0;1012.0;1024.0;224.0;1024.0;1024.0;1024.0;1824.0;3.0;0.0;0.0;0.0;0.0;;1970-01-01 00:00:02.101
2773.0;2776.0;0.0;-1.0;-1.0;-1.0;-1.0;-1.0;113.0;0.0;0.0;0.0;0.0;0.0;0.0;0.0;0.0;0.0;0.0;0.0;0.0;0.0;0.0;3.0;370.0;252.571;8.530389999999999;367.809;255.975;0.0;34.0;1.0;0.316717;-0.51353;-1.99938;0.366467;-0.48981;-2.03702;-1.0225;-0.586298;1.3594700000000002;-0.954311;-0.824365;-3.0194400000000003;4.0;5.0;1.0;7.0;0.0;8.0;0.316717;-1.46353;-1.99938;675.0;618.0;1143.0;1012.0;1024.0;224.0;1024.0;1024.0;1024.0;1824.0;3.0;0.0;0.0;0.0;0.0;;1970-01-01 00:00:02.112
2774.0;2777.0;0.0;-1.0;-1.0;-1.0;-1.0;-1.0;114.0;0.0;0.0;0.0;0.0;0.0;0.0;0.0;0.0;0.0;0.0;0.0;0.0;0.0;0.0;3.0;374.0;255.0;8.33365;371.63300000000004;258.784;0.0;35.0;1.0;0.300215;-0.55995;-2.0381400000000003;0.346591;-0.51085;-2.03735;-1.05905;-0.6597649999999999;1.21131;-1.04491;-1.6812900000000002;-4.43276;4.0;5.0;1.0;7.0;0.0;8.0;0.300215;-1.50995;-2.0381400000000003;675.0;618.0;1143.0;1012.0;1024.0;224.0;1024.0;1024.0;1024.0;1824.0;3.0;0.0;0.0;0.0;0.0;;1970-01-01 00:00:02.123
2775.0;2778.0;0.0;-1.0;-1.0;-1.0;-1.0;-1.0;115.0;0.0;0.0;0.0;0.0;0.0;0.0;0.0;0.0;0.0;0.0;0.0;0.0;0.0;0.0;3.0;380.0;256.57099999999997;8.29567;376.23699999999997;261.183;0.0;36.0;1.0;0.265457;-0.57457;-2.04199;0.322251;-0.5299699999999999;-2.03874;-1.11093;-0.742286;1.0243799999999998;-1.29877;-2.46087;-5.6892;4.0;5.0;1.0;7.0;0.0;8.0;0.265457;-1.52457;-2.04199;675.0;618.0;1143.0;1012.0;1024.0;224.0;1024.0;1024.0;1024.0;1824.0;3.0;0.0;0.0;0.0;0.0;;1970-01-01 00:00:02.134
2775.0;2778.0;0.0;-1.0;-1.0;-1.0;-1.0;-1.0;115.0;0.0;0.0;0.0;0.0;0.0;0.0;0.0;0.0;0.0;0.0;0.0;0.0;0.0;0.0;3.0;380.0;256.57099999999997;8.29567;376.23699999999997;261.183;0.0;36.0;1.0;0.265457;-0.57457;-2.04199;0.322251;-0.5299699999999999;-2.03874;-1.11093;-0.742286;1.0243799999999998;-1.29877;-2.46087;-5.6892;4.0;5.0;1.0;7.0;0.0;8.0;0.265457;-1.52457;-2.04199;675.0;618.0;1143.0;1012.0;1024.0;224.0;1024.0;1024.0;1024.0;1824.0;3.0;0.0;0.0;0.0;0.0;;1970-01-01 00:00:02.145
2776.0;2779.0;0.0;-1.0;-1.0;-1.0;-1.0;-1.0;116.0;0.0;0.0;0.0;0.0;0.0;0.0;0.0;0.0;0.0;0.0;0.0;0.0;0.0;0.0;3.0;385.0;257.0;8.53218;381.084;262.92400000000004;0.0;37.0;1.0;0.228823;-0.53435;-1.98393;0.294223;-0.53128;-2.0223;-1.1872;-0.744847;0.895551;-1.71813;-2.7298299999999998;-6.534590000000001;4.0;5.0;1.0;7.0;0.0;8.0;0.228823;-1.48435;-1.98393;675.0;618.0;1143.0;1012.0;1024.0;224.0;1024.0;1024.0;1024.0;1824.0;3.0;0.0;0.0;0.0;0.0;;1970-01-01 00:00:02.156
2777.0;2780.0;0.0;-1.0;-1.0;-1.0;-1.0;-1.0;117.0;0.0;0.0;0.0;0.0;0.0;0.0;0.0;0.0;0.0;0.0;0.0;0.0;0.0;0.0;3.0;391.0;257.0;8.4108;386.42;264.051;0.0;38.0;1.0;0.196487;-0.55578;-2.0125599999999997;0.26490199999999997;-0.53863;-2.01938;-1.27146;-0.726931;0.745638;-2.21608;-2.61164;-7.24137;4.0;5.0;1.0;7.0;0.0;9.0;0.196487;-1.50578;-2.0125599999999997;675.0;618.0;1143.0;1012.0;1024.0;224.0;1024.0;1024.0;1024.0;1824.0;3.0;0.0;0.0;0.0;0.0;;1970-01-01 00:00:02.167
2777.0;2780.0;0.0;-1.0;-1.0;-1.0;-1.0;-1.0;117.0;0.0;0.0;0.0;0.0;0.0;0.0;0.0;0.0;0.0;0.0;0.0;0.0;0.0;0.0;3.0;391.0;257.0;8.4108;386.42;264.051;0.0;38.0;1.0;0.196487;-0.55578;-2.0125599999999997;0.26490199999999997;-0.53863;-2.01938;-1.27146;-0.726931;0.745638;-2.21608;-2.61164;-7.24137;4.0;5.0;1.0;7.0;0.0;9.0;0.196487;-1.50578;-2.0125599999999997;675.0;618.0;1143.0;1012.0;1024.0;224.0;1024.0;1024.0;1024.0;1824.0;3.0;0.0;0.0;0.0;0.0;;1970-01-01 00:00:02.178
2778.0;2781.0;0.0;360.645;333.548;8.37402;360.645;333.548;0.0;1.0;1.0;0.37843899999999997;-1.8845299999999998;-1.75672;0.37843899999999997;-1.8845299999999998;-1.75672;0.0;0.0;0.0;0.0;0.0;0.0;5.0;397.0;257.0;8.311810000000001;392.10699999999997;264.736;0.0;39.0;1.0;0.16276500000000002;-0.57371;-2.03653;0.23426100000000002;-0.54916;-2.02453;-1.3758700000000001;-0.7136859999999999;0.5616479999999999;-2.8622099999999997;-2.24857;-7.93566;4.0;5.0;1.0;7.0;1.0;17.0;0.16276500000000002;-1.5237100000000001;-2.03653;675.0;618.0;1024.0;1024.0;1024.0;224.0;1024.0;1024.0;1024.0;1824.0;3.0;0.0;46.43899999999999;0.0;0.0;;1970-01-01 00:00:02.189
2779.0;2782.0;0.0;363.63599999999997;325.309;8.39663;360.917;332.79900000000004;0.0;2.0;1.0;0.359623;-1.8395099999999998;-1.7804099999999998;0.372794;-1.87103;-1.76383;0.0;0.0;0.0;0.0;0.0;0.0;5.0;404.0;255.5;7.720110000000001;398.35900000000004;264.625;0.0;40.0;1.0;0.129943;-0.68258;-2.19825;0.202965;-0.58918;-2.0766400000000003;-1.47834;-0.824973;0.178771;-3.53734;-2.3021;-9.475610000000001;4.0;5.0;5.0;7.0;1.0;18.0;0.16276500000000002;-1.5237100000000001;-2.03653;675.0;722.0;1098.0;1053.0;1024.0;224.0;1024.0;1024.0;1024.0;1824.0;3.0;0.0;0.0166965;0.0;0.0;;1970-01-01 00:00:02.200
2779.0;2782.0;0.0;363.63599999999997;325.309;8.39663;360.917;332.79900000000004;0.0;2.0;1.0;0.359623;-1.8395099999999998;-1.7804099999999998;0.372794;-1.87103;-1.76383;0.0;0.0;0.0;0.0;0.0;0.0;5.0;404.0;255.5;7.720110000000001;398.35900000000004;264.625;0.0;40.0;1.0;0.129943;-0.68258;-2.19825;0.202965;-0.58918;-2.0766400000000003;-1.47834;-0.824973;0.178771;-3.53734;-2.3021;-9.475610000000001;4.0;5.0;5.0;7.0;1.0;18.0;0.16276500000000002;-1.5237100000000001;-2.03653;675.0;722.0;1098.0;1053.0;1024.0;224.0;1024.0;1024.0;1024.0;1824.0;3.0;0.0;0.0166965;0.0;0.0;;1970-01-01 00:00:02.211
2780.0;2783.0;0.0;365.491;321.309;8.46177;361.652;330.952;0.0;3.0;1.0;0.345906;-1.8061099999999999;-1.7803900000000001;0.364728;-1.85155;-1.7688;0.0;0.0;0.0;0.0;0.0;0.0;5.0;408.0;255.0;8.112969999999999;404.059;264.262;0.0;41.0;1.0;0.0990197;-0.60102;-2.0935799999999998;0.171782;-0.59273;-2.0817200000000002;-1.58497;-0.8219139999999999;-0.0698995;-4.22224;-2.02868;-10.8009;4.0;5.0;5.0;7.0;1.0;18.0;0.16276500000000002;-1.5237100000000001;-2.03653;675.0;576.0;1032.0;1071.0;1024.0;224.0;1024.0;1024.0;1024.0;1824.0;3.0;0.0;0.0166978;0.0;0.0;;1970-01-01 00:00:02.222
2781.0;2784.0;0.0;367.273;317.309;8.4721;362.82199999999995;328.11300000000006;0.0;4.0;1.0;0.334977;-1.7846799999999998;-1.7918900000000002;0.35580300000000004;-1.83149;-1.77572;0.0;0.0;0.0;0.0;0.0;0.0;5.0;414.0;253.5;7.893619999999999;409.98800000000006;263.402;0.0;42.0;1.0;0.06379850000000001;-0.6363800000000001;-2.15726;0.13938699999999998;-0.60583;-2.10439;-1.6811;-0.796037;-0.304026;-4.80986;-1.43182;-11.7844;4.0;5.0;5.0;11.0;1.0;18.0;0.16276500000000002;-1.5237100000000001;-2.03653;495.0;549.0;990.0;1053.0;1024.0;224.0;1024.0;1024.0;1024.0;1824.0;3.0;0.0;0.0166965;0.0;0.0;;1970-01-01 00:00:02.233
2781.0;2784.0;0.0;367.273;317.309;8.4721;362.82199999999995;328.11300000000006;0.0;4.0;1.0;0.334977;-1.7846799999999998;-1.7918900000000002;0.35580300000000004;-1.83149;-1.77572;0.0;0.0;0.0;0.0;0.0;0.0;5.0;414.0;253.5;7.893619999999999;409.98800000000006;263.402;0.0;42.0;1.0;0.06379850000000001;-0.6363800000000001;-2.15726;0.13938699999999998;-0.60583;-2.10439;-1.6811;-0.796037;-0.304026;-4.80986;-1.43182;-11.7844;4.0;5.0;5.0;11.0;1.0;18.0;0.16276500000000002;-1.5237100000000001;-2.03653;495.0;549.0;990.0;1053.0;1024.0;224.0;1024.0;1024.0;1024.0;1824.0;3.0;0.0;0.0166965;0.0;0.0;;1970-01-01 00:00:02.244
2782.0;2785.0;0.0;369.259;313.444;8.488439999999999;364.355;324.619;0.0;5.0;1.0;0.322641;-1.7627099999999998;-1.80162;0.345854;-1.81086;-1.7834900000000002;0.0;0.0;0.0;0.0;0.0;0.0;5.0;419.0;251.0;7.79283;415.76;261.87;0.0;43.0;1.0;0.032570299999999996;-0.64384;-2.19445;0.107342;-0.6172300000000001;-2.13141;-1.7548;-0.8207780000000001;-0.618027;-5.15214;-1.16226;-13.1138;4.0;5.0;5.0;11.0;1.0;18.0;0.032570299999999996;-1.59384;-2.19445;495.0;786.0;1596.0;1201.0;1024.0;224.0;1024.0;1024.0;1024.0;1824.0;3.0;0.0;0.016700200000000002;0.0;0.0;;1970-01-01 00:00:02.255
2783.0;2786.0;0.0;371.444;309.556;8.513530000000001;366.176;320.747;0.0;6.0;1.0;0.308867;-1.73892;-1.8095400000000001;0.334758;-1.78928;-1.79131;0.0;0.0;0.0;0.0;0.0;0.0;5.0;424.0;249.0;7.62477;421.411;260.015;0.0;44.0;1.0;0.000528467;-0.6682899999999999;-2.25041;0.07529780000000001;-0.63255;-2.1671099999999996;-1.8099;-0.8674430000000001;-0.9606389999999999;-5.24107;-1.2583600000000001;-14.6808;4.0;5.0;5.0;11.0;1.0;18.0;0.000528467;-1.61829;-2.25041;495.0;691.0;1589.0;1239.0;1024.0;224.0;1024.0;1024.0;1024.0;1824.0;3.0;0.0;0.0166965;0.0;0.0;;1970-01-01 00:00:02.266
2783.0;2786.0;0.0;371.444;309.556;8.513530000000001;366.176;320.747;0.0;6.0;1.0;0.308867;-1.73892;-1.8095400000000001;0.334758;-1.78928;-1.79131;0.0;0.0;0.0;0.0;0.0;0.0;5.0;424.0;249.0;7.62477;421.411;260.015;0.0;44.0;1.0;0.000528467;-0.6682899999999999;-2.25041;0.07529780000000001;-0.63255;-2.1671099999999996;-1.8099;-0.8674430000000001;-0.9606389999999999;-5.24107;-1.2583600000000001;-14.6808;4.0;5.0;5.0;11.0;1.0;18.0;0.000528467;-1.61829;-2.25041;495.0;691.0;1589.0;1239.0;1024.0;224.0;1024.0;1024.0;1024.0;1824.0;3.0;0.0;0.0166965;0.0;0.0;;1970-01-01 00:00:02.277
2784.0;2787.0;0.0;373.455;305.236;8.51657;368.13599999999997;316.569;0.0;7.0;1.0;0.296967;-1.71765;-1.82358;0.323421;-1.7677900000000002;-1.80099;0.0;0.0;0.0;0.0;0.0;0.0;5.0;428.4;245.2;7.5665;426.777;257.361;0.0;45.0;1.0;-0.028518;-0.6603100000000001;-2.28229;0.0441531;-0.64088;-2.20166;-1.84497;-0.886674;-1.28362;-5.01757;-1.44569;-16.1759;4.0;5.0;5.0;11.0;1.0;18.0;-0.028518;-1.6103100000000001;-2.28229;495.0;613.0;1538.0;1207.0;1024.0;224.0;1024.0;1024.0;1024.0;1824.0;3.0;0.0;0.0166975;0.0;0.0;;1970-01-01 00:00:02.288
2785.0;2788.0;0.0;376.267;300.66700000000003;8.55279;370.394;312.142;0.0;8.0;1.0;0.279283;-1.6886299999999999;-1.83132;0.310179;-1.74404;-1.8100900000000002;-0.6249899999999999;1.2675;-0.46173500000000006;-2.86384;4.5769;-0.361665;5.0;432.0;242.0;7.79477;431.67699999999996;254.326;0.0;46.0;1.0;-0.0507555;-0.59644;-2.2273400000000003;0.0156805;-0.62754;-2.2093599999999998;-1.85473;-0.6851649999999999;-1.30008;-4.51335;-0.309219;-15.61;4.0;5.0;5.0;11.0;1.0;18.0;-0.0507555;-1.54644;-2.2273400000000003;495.0;708.0;1298.0;1044.0;1024.0;224.0;1024.0;1024.0;1024.0;1824.0;3.0;0.0;0.016696799999999998;0.0;0.0;;1970-01-01 00:00:02.299
2786.0;2789.0;0.0;378.769;295.846;8.57879;372.782;307.485;0.0;9.0;1.0;0.263863;-1.6606299999999998;-1.8420400000000001;0.29628499999999997;-1.71902;-1.8196700000000001;-0.648261;1.28965;-0.480175;-2.37778;3.2383;-0.946325;5.0;436.57099999999997;238.0;7.8872;436.546;250.77;0.0;47.0;1.0;-0.07911599999999999;-0.55767;-2.21592;-0.0127584;-0.60658;-2.21133;-1.8496400000000002;-0.46638599999999997;-1.29751;-3.76474;1.23395;-14.2674;4.0;5.0;5.0;11.0;1.0;18.0;-0.07911599999999999;-1.50767;-2.21592;495.0;741.0;1268.0;1030.0;1024.0;224.0;1024.0;1024.0;1024.0;1824.0;3.0;0.0;0.0166975;0.0;0.0;;1970-01-01 00:00:02.310
2786.0;2789.0;0.0;378.769;295.846;8.57879;372.782;307.485;0.0;9.0;1.0;0.263863;-1.6606299999999998;-1.8420400000000001;0.29628499999999997;-1.71902;-1.8196700000000001;-0.648261;1.28965;-0.480175;-2.37778;3.2383;-0.946325;5.0;436.57099999999997;238.0;7.8872;436.546;250.77;0.0;47.0;1.0;-0.07911599999999999;-0.55767;-2.21592;-0.0127584;-0.60658;-2.21133;-1.8496400000000002;-0.46638599999999997;-1.29751;-3.76474;1.23395;-14.2674;4.0;5.0;5.0;11.0;1.0;18.0;-0.07911599999999999;-1.50767;-2.21592;495.0;741.0;1268.0;1030.0;1024.0;224.0;1024.0;1024.0;1024.0;1824.0;3.0;0.0;0.0166975;0.0;0.0;;1970-01-01 00:00:02.321
2787.0;2790.0;0.0;381.616;291.014;8.6602;375.358;302.664;0.0;10.0;1.0;0.244959;-1.6223100000000001;-1.8408799999999998;0.280887;-1.6900099999999998;-1.82604;-0.688066;1.3386799999999999;-0.48898500000000006;-2.0396;2.4908200000000003;-0.8635639999999999;5.0;441.0;235.0;7.695310000000001;441.341;247.16400000000002;0.0;48.0;1.0;-0.109839;-0.57939;-2.28246;-0.041882499999999996;-0.59842;-2.23267;-1.83352;-0.25027;-1.2907;-2.8673900000000003;2.91941;-12.4998;4.0;5.0;5.0;11.0;1.0;18.0;-0.109839;-1.52939;-2.28246;495.0;544.0;1484.0;1211.0;1024.0;224.0;1024.0;1024.0;1024.0;1824.0;3.0;0.0;0.0166965;0.0;0.0;;1970-01-01 00:00:02.332
2788.0;2791.0;0.0;384.478;286.597;8.81012;378.077;297.843;0.0;11.0;1.0;0.224566;-1.57429;-1.82407;0.263991;-1.6552900000000002;-1.82545;-0.739697;1.4243299999999999;-0.46090299999999995;-1.79867;2.24837;-0.500997;5.0;445.0;233.0;7.725689999999999;445.945;243.85;0.0;49.0;1.0;-0.135272;-0.56284;-2.28098;-0.06989939999999999;-0.58775;-2.24716;-1.80778;-0.0324464;-1.23661;-1.93197;4.89922;-9.969710000000001;4.0;5.0;5.0;11.0;1.0;18.0;-0.135272;-1.51284;-2.28098;495.0;511.0;1502.0;1232.0;1024.0;224.0;1024.0;1024.0;1024.0;1824.0;3.0;0.0;0.0166978;0.0;0.0;;1970-01-01 00:00:02.343
2788.0;2791.0;0.0;384.478;286.597;8.81012;378.077;297.843;0.0;11.0;1.0;0.224566;-1.57429;-1.82407;0.263991;-1.6552900000000002;-1.82545;-0.739697;1.4243299999999999;-0.46090299999999995;-1.79867;2.24837;-0.500997;5.0;445.0;233.0;7.725689999999999;445.945;243.85;0.0;49.0;1.0;-0.135272;-0.56284;-2.28098;-0.06989939999999999;-0.58775;-2.24716;-1.80778;-0.0324464;-1.23661;-1.93197;4.89922;-9.969710000000001;4.0;5.0;5.0;11.0;1.0;18.0;-0.135272;-1.51284;-2.28098;495.0;511.0;1502.0;1232.0;1024.0;224.0;1024.0;1024.0;1024.0;1824.0;3.0;0.0;0.0166978;0.0;0.0;;1970-01-01 00:00:02.354
2789.0;2792.0;0.0;387.25;282.156;8.937289999999999;380.87800000000004;293.013;0.0;12.0;1.0;0.20587399999999997;-1.53166;-1.8125099999999998;0.246556;-1.6182;-1.8215700000000001;-0.795985;1.53764;-0.397357;-1.60391;2.32765;-0.018780099999999997;5.0;450.667;229.333;7.97652;450.939;240.227;0.0;50.0;1.0;-0.166509;-0.49655;-2.22257;-0.0988822;-0.5603899999999999;-2.23978;-1.7801200000000001;0.268642;-1.03214;-1.04029;7.4755899999999995;-6.26732;4.0;5.0;5.0;11.0;1.0;18.0;-0.166509;-1.44655;-2.22257;495.0;654.0;1311.0;1044.0;1024.0;224.0;1024.0;1024.0;1024.0;1824.0;3.0;0.0;0.0166965;0.0;0.0;;1970-01-01 00:00:02.365
2790.0;2793.0;0.0;390.50800000000004;276.921;9.04391;383.88199999999995;287.94599999999997;0.0;13.0;1.0;0.18545;-1.49004;-1.8079;0.22822399999999998;-1.57975;-1.8174700000000001;-0.857684;1.67336;-0.304205;-1.6758;2.94003;1.0890799999999998;5.0;453.667;228.333;7.69105;455.36300000000006;237.239;0.0;51.0;1.0;-0.192175;-0.54495;-2.30882;-0.12687;-0.55576;-2.2605;-1.75092;0.501037;-0.854196;-0.248669;10.0261;-2.04584;4.0;5.0;5.0;11.0;1.0;18.0;-0.192175;-1.49495;-2.30882;495.0;556.0;1545.0;1369.0;1024.0;224.0;1024.0;1024.0;1024.0;1824.0;3.0;0.0;0.0166975;0.0;0.0;;1970-01-01 00:00:02.376
2790.0;2793.0;0.0;390.50800000000004;276.921;9.04391;383.88199999999995;287.94599999999997;0.0;13.0;1.0;0.18545;-1.49004;-1.8079;0.22822399999999998;-1.57975;-1.8174700000000001;-0.857684;1.67336;-0.304205;-1.6758;2.94003;1.0890799999999998;5.0;453.667;228.333;7.69105;455.36300000000006;237.239;0.0;51.0;1.0;-0.192175;-0.54495;-2.30882;-0.12687;-0.55576;-2.2605;-1.75092;0.501037;-0.854196;-0.248669;10.0261;-2.04584;4.0;5.0;5.0;11.0;1.0;18.0;-0.192175;-1.49495;-2.30882;495.0;556.0;1545.0;1369.0;1024.0;224.0;1024.0;1024.0;1024.0;1824.0;3.0;0.0;0.0166975;0.0;0.0;;1970-01-01 00:00:02.387
2791.0;2794.0;0.0;394.459;272.754;9.08692;387.23900000000003;283.01;0.0;14.0;1.0;0.162851;-1.46432;-1.8126200000000001;0.208612;-1.54512;-1.81601;-0.9201389999999999;1.79824;-0.206171;-2.18393;3.8831;1.6738400000000002;5.0;458.0;226.0;8.02018;459.796;234.294;0.0;52.0;1.0;-0.211281;-0.47176;-2.2225;-0.152193;-0.53056;-2.2491;-1.72082;0.687861;-0.6711630000000001;0.385465;11.4977;1.28358;4.0;5.0;5.0;11.0;1.0;18.0;-0.211281;-1.4217600000000001;-2.2225;495.0;638.0;1231.0;1007.0;1024.0;224.0;1024.0;1024.0;1024.0;1824.0;3.0;0.0;0.016696799999999998;0.0;0.0;;1970-01-01 00:00:02.398
2792.0;2795.0;0.0;398.467;268.233;9.17873;390.879;278.066;0.0;15.0;1.0;0.139409;-1.4296200000000001;-1.80875;0.187851;-1.51047;-1.8138299999999998;-0.9850260000000001;1.9116099999999998;-0.100377;-2.65496;4.81318;2.52073;5.0;463.333;225.333;7.69765;464.55199999999996;231.919;0.0;53.0;1.0;-0.254747;-0.5278;-2.31813;-0.18295899999999998;-0.52973;-2.2698099999999997;-1.71206;0.7195560000000001;-0.636179;0.7805979999999999;11.6338;3.41066;4.0;5.0;5.0;11.0;1.0;18.0;-0.254747;-1.4778;-2.31813;495.0;577.0;1566.0;1331.0;1024.0;224.0;1024.0;1024.0;1024.0;1824.0;3.0;0.0;0.0166975;0.0;0.0;;1970-01-01 00:00:02.409
2792.0;2795.0;0.0;398.467;268.233;9.17873;390.879;278.066;0.0;15.0;1.0;0.139409;-1.4296200000000001;-1.80875;0.187851;-1.51047;-1.8138299999999998;-0.9850260000000001;1.9116099999999998;-0.100377;-2.65496;4.81318;2.52073;5.0;463.333;225.333;7.69765;464.55199999999996;231.919;0.0;53.0;1.0;-0.254747;-0.5278;-2.31813;-0.18295899999999998;-0.52973;-2.2698099999999997;-1.71206;0.7195560000000001;-0.636179;0.7805979999999999;11.6338;3.41066;4.0;5.0;5.0;11.0;1.0;18.0;-0.254747;-1.4778;-2.31813;495.0;577.0;1566.0;1331.0;1024.0;224.0;1024.0;1024.0;1024.0;1824.0;3.0;0.0;0.0166975;0.0;0.0;;1970-01-01 00:00:02.420
2793.0;2796.0;0.0;403.267;263.567;9.23874;394.962;273.07;0.0;16.0;1.0;0.112549;-1.3997700000000002;-1.81162;0.16526;-1.47726;-1.8131700000000002;-1.0526799999999998;1.99639;-0.0088512;-3.04877;5.51396;3.42947;5.0;469.0;227.0;7.652589999999999;469.649;230.709;0.0;54.0;1.0;-0.29324;-0.54537;-2.32547;-0.21604299999999999;-0.53442;-2.28651;-1.7226099999999998;0.687271;-0.596665;0.911198;10.7236;4.81746;4.0;5.0;5.0;11.0;1.0;18.0;-0.29324;-1.49537;-2.32547;495.0;589.0;1607.0;1264.0;1024.0;224.0;1024.0;1024.0;1024.0;1824.0;3.0;0.0;0.0166965;0.0;0.0;;1970-01-01 00:00:02.431
2794.0;2797.0;0.0;408.14;259.649;9.24934;399.397;268.257;0.0;17.0;1.0;0.0860961;-1.3809200000000001;-1.82181;0.141511;-1.44836;-1.8157599999999998;-1.12063;2.02405;0.0333594;-3.3502300000000003;5.70288;4.03113;5.0;474.0;229.0;8.13439;474.776;230.455;0.0;55.0;1.0;-0.306578;-0.46681000000000006;-2.1806200000000002;-0.243204;-0.5141399999999999;-2.25474;-1.7255200000000002;0.706264;-0.388251;0.875173;9.38362;6.27773;4.0;5.0;5.0;11.0;1.0;18.0;-0.306578;-1.4168100000000001;-2.1806200000000002;495.0;660.0;1190.0;882.0;1024.0;224.0;1024.0;1024.0;1024.0;1824.0;3.0;0.0;0.0166975;0.0;0.0;;1970-01-01 00:00:02.442
2794.0;2797.0;0.0;408.14;259.649;9.24934;399.397;268.257;0.0;17.0;1.0;0.0860961;-1.3809200000000001;-1.82181;0.141511;-1.44836;-1.8157599999999998;-1.12063;2.02405;0.0333594;-3.3502300000000003;5.70288;4.03113;5.0;474.0;229.0;8.13439;474.776;230.455;0.0;55.0;1.0;-0.306578;-0.46681000000000006;-2.1806200000000002;-0.243204;-0.5141399999999999;-2.25474;-1.7255200000000002;0.706264;-0.388251;0.875173;9.38362;6.27773;4.0;5.0;5.0;11.0;1.0;18.0;-0.306578;-1.4168100000000001;-2.1806200000000002;495.0;660.0;1190.0;882.0;1024.0;224.0;1024.0;1024.0;1024.0;1824.0;3.0;0.0;0.0166975;0.0;0.0;;1970-01-01 00:00:02.453
2795.0;2798.0;0.0;413.088;255.053;9.247819999999999;404.116;263.377;0.0;18.0;1.0;0.059384400000000004;-1.3609200000000001;-1.8365;0.116873;-1.42213;-1.82198;-1.19016;1.99731;0.018341200000000002;-3.5839800000000004;5.25703;4.0784400000000005;5.0;478.0;230.0;8.118739999999999;479.60400000000004;230.577;0.0;56.0;1.0;-0.331783;-0.47456000000000004;-2.18125;-0.269778;-0.50226;-2.2326900000000003;-1.71765;0.655837;-0.20464300000000002;0.7745380000000001;7.176130000000001;7.0706;4.0;5.0;5.0;11.0;1.0;18.0;-0.331783;-1.42456;-2.18125;495.0;518.0;1312.0;900.0;1024.0;224.0;1024.0;1024.0;1024.0;1824.0;3.0;0.0;0.016696799999999998;0.0;0.0;;1970-01-01 00:00:02.464
2796.0;2799.0;0.0;418.63199999999995;250.912;9.27542;409.222;258.584;0.0;19.0;1.0;0.029348500000000003;-1.33869;-1.8439599999999998;0.0906157;-1.3971;-1.8285799999999999;-1.2635299999999998;1.9276799999999998;-0.033366;-3.77081;4.169630000000001;3.52845;5.0;484.0;235.0;7.992000000000001;484.851;232.248;0.0;57.0;1.0;-0.37454899999999997;-0.52262;-2.19773;-0.301209;-0.50837;-2.22221;-1.7266700000000001;0.5827100000000001;0.030100099999999998;0.561527;4.6317699999999995;7.7731;4.0;5.0;5.0;11.0;1.0;18.0;-0.37454899999999997;-1.47262;-2.19773;495.0;530.0;1656.0;1029.0;1024.0;224.0;1024.0;1024.0;1024.0;1824.0;3.0;0.0;0.0166975;0.0;0.0;;1970-01-01 00:00:02.475
2797.0;2800.0;0.0;424.407;246.81400000000002;9.31634;414.684;253.87;0.0;20.0;1.0;-0.00174871;-1.3149;-1.8486;0.0629064;-1.3724399999999999;-1.8345900000000002;-1.33988;1.8460900000000002;-0.0941808;-3.93839;2.6928099999999997;2.5642099999999997;5.0;487.75;238.25;8.25258;489.68199999999996;234.485;0.0;58.0;1.0;-0.385423;-0.49215;-2.11693;-0.326473;-0.5035;-2.19062;-1.73185;0.457647;0.251531;0.29287199999999997;1.85988;8.34792;4.0;5.0;5.0;11.0;1.0;18.0;-0.385423;-1.44215;-2.11693;495.0;448.0;1291.0;703.0;1024.0;224.0;1024.0;1024.0;1024.0;1824.0;3.0;0.0;0.0166965;0.0;0.0;;1970-01-01 00:00:02.486
2797.0;2800.0;0.0;424.407;246.81400000000002;9.31634;414.684;253.87;0.0;20.0;1.0;-0.00174871;-1.3149;-1.8486;0.0629064;-1.3724399999999999;-1.8345900000000002;-1.33988;1.8460900000000002;-0.0941808;-3.93839;2.6928099999999997;2.5642099999999997;5.0;487.75;238.25;8.25258;489.68199999999996;234.485;0.0;58.0;1.0;-0.385423;-0.49215;-2.11693;-0.326473;-0.5035;-2.19062;-1.73185;0.457647;0.251531;0.29287199999999997;1.85988;8.34792;4.0;5.0;5.0;11.0;1.0;18.0;-0.385423;-1.44215;-2.11693;495.0;448.0;1291.0;703.0;1024.0;224.0;1024.0;1024.0;1024.0;1824.0;3.0;0.0;0.0166965;0.0;0.0;;1970-01-01 00:00:02.497
2798.0;2801.0;0.0;430.517;242.96599999999998;9.307889999999999;420.50699999999995;249.29;0.0;21.0;1.0;-0.0345463;-1.2992700000000001;-1.86225;0.033670599999999995;-1.35049;-1.8428900000000001;-1.41953;1.74642;-0.172509;-4.0978699999999995;0.9561440000000001;1.25053;5.0;492.4;242.8;8.0968;494.495;237.543;0.0;59.0;1.0;-0.421529;-0.54277;-2.1413900000000003;-0.35499;-0.5152899999999999;-2.17585;-1.7259799999999998;0.332269;0.526046;0.120128;-0.43039499999999997;9.64918;4.0;5.0;5.0;11.0;1.0;18.0;-0.421529;-1.4927700000000002;-2.1413900000000003;495.0;524.0;1664.0;937.0;1024.0;224.0;1024.0;1024.0;1024.0;1824.0;3.0;0.0;0.0166978;0.0;0.0;;1970-01-01 00:00:02.508
2799.0;2802.0;0.0;436.847;239.051;9.323080000000001;426.662;244.792;0.0;22.0;1.0;-0.06841010000000002;-1.28006;-1.87137;0.00304636;-1.32936;-1.85143;-1.49939;1.63839;-0.25627300000000003;-4.24231;-0.8557020000000001;-0.237567;5.0;497.0;249.0;8.1119;499.278;241.72;0.0;60.0;1.0;-0.449074;-0.57111;-2.11528;-0.38321500000000003;-0.53203;-2.15768;-1.7030599999999998;0.208906;0.829997;0.15014;-2.1682099999999997;11.4858;4.0;5.0;5.0;11.0;1.0;18.0;-0.449074;-1.52111;-2.11528;495.0;559.0;1631.0;791.0;1024.0;224.0;1024.0;1024.0;1024.0;1824.0;3.0;0.0;0.0166965;0.0;0.0;;1970-01-01 00:00:02.519
2799.0;2802.0;0.0;436.847;239.051;9.323080000000001;426.662;244.792;0.0;22.0;1.0;-0.06841010000000002;-1.28006;-1.87137;0.00304636;-1.32936;-1.85143;-1.49939;1.63839;-0.25627300000000003;-4.24231;-0.8557020000000001;-0.237567;5.0;497.0;249.0;8.1119;499.278;241.72;0.0;60.0;1.0;-0.449074;-0.57111;-2.11528;-0.38321500000000003;-0.53203;-2.15768;-1.7030599999999998;0.208906;0.829997;0.15014;-2.1682099999999997;11.4858;4.0;5.0;5.0;11.0;1.0;18.0;-0.449074;-1.52111;-2.11528;495.0;559.0;1631.0;791.0;1024.0;224.0;1024.0;1024.0;1024.0;1824.0;3.0;0.0;0.0166965;0.0;0.0;;1970-01-01 00:00:02.530
2800.0;2803.0;0.0;444.13800000000003;236.03400000000002;9.32892;433.352;240.63099999999997;0.0;23.0;1.0;-0.10740799999999999;-1.26609;-1.87956;-0.0300901;-1.3103799999999999;-1.8598700000000001;-1.58479;1.53396;-0.329878;-4.398619999999999;-2.47023;-1.59284;5.0;501.0;253.0;8.25269;503.847;245.99900000000002;0.0;61.0;1.0;-0.46562600000000004;-0.56489;-2.06515;-0.407939;-0.54189;-2.1299200000000003;-1.67957;0.014541299999999998;0.99636;0.273548;-4.0627699999999995;12.4198;4.0;5.0;5.0;11.0;1.0;18.0;-0.46562600000000004;-1.51489;-2.06515;495.0;428.0;1105.0;393.0;1024.0;224.0;1024.0;1024.0;1024.0;1824.0;3.0;0.0;0.0166975;0.0;0.0;;1970-01-01 00:00:02.541
2801.0;2804.0;0.0;450.75;232.78599999999997;9.281139999999999;440.221;236.648;0.0;24.0;1.0;-0.14355199999999999;-1.2583600000000001;-1.8993799999999998;-0.0641286;-1.29477;-1.87172;-1.67356;1.42886;-0.396518;-4.56923;-3.75176;-2.61212;5.0;508.0;256.0;8.294080000000001;509.215;250.02700000000002;0.0;62.0;1.0;-0.5054649999999999;-0.57206;-2.04438;-0.437197;-0.55094;-2.10426;-1.6762;-0.18562599999999999;1.1106200000000002;0.32962600000000003;-5.79738;12.7034;4.0;5.0;5.0;11.0;1.0;18.0;-0.5054649999999999;-1.52206;-2.04438;495.0;432.0;1456.0;615.0;1024.0;224.0;1024.0;1024.0;1024.0;1824.0;3.0;0.0;0.016696799999999998;0.0;0.0;;1970-01-01 00:00:02.552
2801.0;2804.0;0.0;450.75;232.78599999999997;9.281139999999999;440.221;236.648;0.0;24.0;1.0;-0.14355199999999999;-1.2583600000000001;-1.8993799999999998;-0.0641286;-1.29477;-1.87172;-1.67356;1.42886;-0.396518;-4.56923;-3.75176;-2.61212;5.0;508.0;256.0;8.294080000000001;509.215;250.02700000000002;0.0;62.0;1.0;-0.5054649999999999;-0.57206;-2.04438;-0.437197;-0.55094;-2.10426;-1.6762;-0.18562599999999999;1.1106200000000002;0.32962600000000003;-5.79738;12.7034;4.0;5.0;5.0;11.0;1.0;18.0;-0.5054649999999999;-1.52206;-2.04438;495.0;432.0;1456.0;615.0;1024.0;224.0;1024.0;1024.0;1024.0;1824.0;3.0;0.0;0.016696799999999998;0.0;0.0;;1970-01-01 00:00:02.563
2802.0;2805.0;0.0;458.621;230.03400000000002;9.25038;447.605;232.951;0.0;25.0;1.0;-0.18653499999999998;-1.25044;-1.9143;-0.100851;-1.28147;-1.8845;-1.7686;1.3189799999999998;-0.46118000000000003;-4.75816;-4.68141;-3.27541;5.0;513.0;259.0;8.42717;514.523;253.86700000000002;0.0;63.0;1.0;-0.527123;-0.5625100000000001;-2.00178;-0.464174;-0.5544100000000001;-2.0735200000000003;-1.6563900000000003;-0.29521;1.26005;0.478387;-6.98371;12.5328;4.0;5.0;5.0;11.0;1.0;18.0;-0.527123;-1.51251;-2.00178;495.0;446.0;1047.0;626.0;1024.0;224.0;1024.0;1024.0;1024.0;1824.0;3.0;0.0;0.0166975;0.0;0.0;;1970-01-01 00:00:02.574
2803.0;2806.0;0.0;466.235;227.05900000000003;9.227160000000001;455.283;229.398;0.0;26.0;1.0;-0.228231;-1.24045;-1.9284599999999998;-0.13906500000000002;-1.2691700000000001;-1.89769;-1.8675700000000002;1.20373;-0.5286489999999999;-4.96183;-5.3736;-3.69995;5.0;519.6669999999999;261.66700000000003;8.30072;520.317;257.457;0.0;64.0;1.0;-0.575276;-0.59863;-2.02297;-0.49750500000000003;-0.5676800000000001;-2.05835;-1.67672;-0.43335799999999997;1.28415;0.507188;-7.74775;11.6426;4.0;5.0;5.0;11.0;1.0;18.0;-0.575276;-1.54863;-2.02297;495.0;465.0;1617.0;780.0;1024.0;224.0;1024.0;1024.0;1024.0;1824.0;3.0;0.0;0.0166965;0.0;0.0;;1970-01-01 00:00:02.585
2803.0;2806.0;0.0;466.235;227.05900000000003;9.227160000000001;455.283;229.398;0.0;26.0;1.0;-0.228231;-1.24045;-1.9284599999999998;-0.13906500000000002;-1.2691700000000001;-1.89769;-1.8675700000000002;1.20373;-0.5286489999999999;-4.96183;-5.3736;-3.69995;5.0;519.6669999999999;261.66700000000003;8.30072;520.317;257.457;0.0;64.0;1.0;-0.575276;-0.59863;-2.02297;-0.49750500000000003;-0.5676800000000001;-2.05835;-1.67672;-0.43335799999999997;1.28415;0.507188;-7.74775;11.6426;4.0;5.0;5.0;11.0;1.0;18.0;-0.575276;-1.54863;-2.02297;495.0;465.0;1617.0;780.0;1024.0;224.0;1024.0;1024.0;1024.0;1824.0;3.0;0.0;0.0166965;0.0;0.0;;1970-01-01 00:00:02.596
2804.0;2807.0;0.0;474.125;224.917;9.172880000000001;463.255;226.21099999999998;0.0;27.0;1.0;-0.27255;-1.23829;-1.9466299999999999;-0.17911;-1.2599;-1.9123700000000001;-1.97012;1.08392;-0.594619;-5.17545;-5.86935;-3.90533;5.0;524.0;263.0;8.03203;525.717;260.436;0.0;65.0;1.0;-0.621472;-0.6572;-2.08584;-0.534695;-0.59453;-2.0666;-1.72354;-0.5764319999999999;1.20671;0.314064;-8.27683;9.70328;4.0;5.0;5.0;11.0;1.0;18.0;-0.621472;-1.6072;-2.08584;495.0;613.0;1636.0;1243.0;1024.0;224.0;1024.0;1024.0;1024.0;1824.0;3.0;0.0;0.0166978;0.0;0.0;;1970-01-01 00:00:02.607
2805.0;2808.0;0.0;482.227;223.227;9.08055;471.50199999999995;223.43400000000003;0.0;28.0;1.0;-0.319897;-1.2433;-1.9718099999999998;-0.22134600000000001;-1.25492;-1.9302;-2.07801;0.947549;-0.67128;-5.41551;-6.27995;-4.0002;5.0;529.3330000000001;264.66700000000003;7.91304;531.1469999999999;263.073;0.0;66.0;1.0;-0.664488;-0.68994;-2.11111;-0.573633;-0.62316;-2.07995;-1.7944099999999998;-0.709684;1.03437;-0.176291;-8.63376;6.637989999999999;4.0;5.0;5.0;11.0;1.0;18.0;-0.664488;-1.6399400000000002;-2.11111;495.0;557.0;1648.0;1205.0;1024.0;224.0;1024.0;1024.0;1024.0;1824.0;3.0;0.0;0.0166965;0.0;0.0;;1970-01-01 00:00:02.618
2805.0;2808.0;0.0;482.227;223.227;9.08055;471.50199999999995;223.43400000000003;0.0;28.0;1.0;-0.319897;-1.2433;-1.9718099999999998;-0.22134600000000001;-1.25492;-1.9302;-2.07801;0.947549;-0.67128;-5.41551;-6.27995;-4.0002;5.0;529.3330000000001;264.66700000000003;7.91304;531.1469999999999;263.073;0.0;66.0;1.0;-0.664488;-0.68994;-2.11111;-0.573633;-0.62316;-2.07995;-1.7944099999999998;-0.709684;1.03437;-0.176291;-8.63376;6.637989999999999;4.0;5.0;5.0;11.0;1.0;18.0;-0.664488;-1.6399400000000002;-2.11111;495.0;557.0;1648.0;1205.0;1024.0;224.0;1024.0;1024.0;1024.0;1824.0;3.0;0.0;0.0166965;0.0;0.0;;1970-01-01 00:00:02.629
2806.0;2809.0;0.0;490.19;221.238;9.11282;479.898;220.865;0.0;29.0;1.0;-0.362419;-1.23001;-1.97115;-0.26366799999999996;-1.24745;-1.94249;-2.17941;0.819781;-0.732627;-5.623469999999999;-6.61947;-4.00818;5.0;534.0;265.0;7.87688;536.384;265.035;0.0;67.0;1.0;-0.697136;-0.69919;-2.11958;-0.610684;-0.6459699999999999;-2.0918400000000004;-1.88615;-0.8413510000000001;0.772684;-0.9305680000000001;-8.59759;3.0897200000000002;4.0;5.0;5.0;11.0;1.0;18.0;-0.697136;-1.6491900000000002;-2.11958;495.0;508.0;1599.0;1327.0;1024.0;224.0;1024.0;1024.0;1024.0;1824.0;3.0;0.0;0.0166975;0.0;0.0;;1970-01-01 00:00:02.640
2807.0;2810.0;0.0;498.30800000000005;219.949;9.04624;488.444;218.668;0.0;30.0;1.0;-0.409913;-1.23326;-1.9897799999999999;-0.307542;-1.24319;-1.95668;-2.27953;0.697804;-0.77877;-5.79354;-6.8906;-3.9311300000000005;5.0;538.0;265.0;7.956810000000001;541.266;266.397;0.0;68.0;1.0;-0.715246;-0.68262;-2.09828;-0.642053;-0.65696;-2.09377;-1.9496200000000001;-0.928125;0.505483;-1.6500400000000002;-8.12314;-0.5623239999999999;4.0;5.0;5.0;11.0;1.0;18.0;-0.715246;-1.6326200000000002;-2.09828;495.0;408.0;717.0;876.0;1024.0;224.0;1024.0;1024.0;1024.0;1824.0;3.0;0.0;0.0166965;0.0;0.0;;1970-01-01 00:00:02.651
