RS_ID;imLx_insect;imLy_insect;disparity_insect;imLx_pred_insect;imLy_pred_insect;n_frames_lost_insect;n_frames_tracking_insect;foundL_insect;posX_insect;posY_insect;posZ_insect;sposX_insect;sposY_insect;sposZ_insect;svelX_insect;svelY_insect;svelZ_insect;saccX_insect;saccY_insect;saccZ_insect;Unnamed: 22;time
7008.0;844.0;149.0;19.0;844.0;149.0;0.0;1.0;1.0;-1.10615;-0.351541;-1.07649;-1.10615;-0.351541;-1.07649;0.0;0.0;0.0;0.0;0.0;0.0;;1970-01-01 00:00:00.000
7009.0;830.5830000000001;150.833;19.0;842.78;149.167;0.0;2.0;1.0;-1.0709799999999998;-0.355704;-1.07409;-1.0956;-0.35279;-1.0757700000000001;0.0;0.0;0.0;0.0;0.0;0.0;;1970-01-01 00:00:00.011
7010.0;815.68;155.04;19.0;838.424;150.111;0.0;3.0;1.0;-1.0319;-0.365257;-1.0685799999999999;-1.07649;-0.35653;-1.07361;0.0;0.0;0.0;0.0;0.0;0.0;;1970-01-01 00:00:00.022
7010.0;815.68;155.04;19.0;838.424;150.111;0.0;3.0;1.0;-1.0319;-0.365257;-1.0685799999999999;-1.07649;-0.35653;-1.07361;0.0;0.0;0.0;0.0;0.0;0.0;;1970-01-01 00:00:00.033
7011.0;800.4;158.4;19.0;830.5110000000001;151.836;0.0;4.0;1.0;-0.991842;-0.37288699999999997;-1.06418;-1.0511;-0.361437;-1.0707799999999998;0.0;0.0;0.0;0.0;0.0;0.0;;1970-01-01 00:00:00.044
7012.0;786.087;163.13;18.3052;819.934;154.524;0.0;5.0;1.0;-0.990539;-0.39819;-1.0981299999999998;-1.03293;-0.372463;-1.07899;0.0;0.0;0.0;0.0;0.0;0.0;;1970-01-01 00:00:00.055
7012.0;786.087;163.13;18.3052;819.934;154.524;0.0;5.0;1.0;-0.990539;-0.39819;-1.0981299999999998;-1.03293;-0.372463;-1.07899;0.0;0.0;0.0;0.0;0.0;0.0;;1970-01-01 00:00:00.066
7013.0;771.4169999999999;167.167;17.7121;807.4730000000001;157.769;0.0;6.0;1.0;-0.982452;-0.421357;-1.12924;-1.01779;-0.387131;-1.09406;0.0;0.0;0.0;0.0;0.0;0.0;;1970-01-01 00:00:00.077
7014.0;758.0;173.0;17.2937;794.1519999999999;161.861;0.0;7.0;1.0;-0.967575;-0.44610600000000006;-1.14816;-1.00272;-0.40482399999999996;-1.11029;0.0;0.0;0.0;0.0;0.0;0.0;;1970-01-01 00:00:00.088
7014.0;758.0;173.0;17.2937;794.1519999999999;161.861;0.0;7.0;1.0;-0.967575;-0.44610600000000006;-1.14816;-1.00272;-0.40482399999999996;-1.11029;0.0;0.0;0.0;0.0;0.0;0.0;;1970-01-01 00:00:00.099
7015.0;743.875;178.5;16.6008;780.1610000000001;166.476;0.0;8.0;1.0;-0.965572;-0.479019;-1.18783;-0.991577;-0.42708199999999996;-1.13355;1.03831;-0.7415689999999999;-0.576767;4.05551;-6.655469999999999;-6.18797;;1970-01-01 00:00:00.110
7016.0;732.3330000000001;182.5;16.3383;766.4689999999999;171.046;0.0;9.0;1.0;-0.945902;-0.49728100000000003;-1.2008299999999998;-0.977875;-0.448142;-1.15373;1.01673;-0.810721;-0.665964;1.9236400000000002;-6.33592;-6.88778;;1970-01-01 00:00:00.121
7016.0;732.3330000000001;182.5;16.3383;766.4689999999999;171.046;0.0;9.0;1.0;-0.945902;-0.49728100000000003;-1.2008299999999998;-0.977875;-0.448142;-1.15373;1.01673;-0.810721;-0.665964;1.9236400000000002;-6.33592;-6.88778;;1970-01-01 00:00:00.132
7017.0;714.909;188.727;15.6516;751.3910000000001;176.195;0.0;10.0;1.0;-0.931947;-0.536265;-1.24361;-0.964096;-0.474579;-1.1807;0.9573969999999999;-0.938174;-0.838434;-1.0958299999999999;-6.37394;-8.1573;;1970-01-01 00:00:00.143
7018.0;702.429;193.857;15.2536;736.689;181.463;0.0;11.0;1.0;-0.915501;-0.564765;-1.26768;-0.9495180000000001;-0.501634;-1.20679;0.907472;-1.07865;-1.01334;-1.37832;-5.49455;-6.9782;;1970-01-01 00:00:00.154
7018.0;702.429;193.857;15.2536;736.689;181.463;0.0;11.0;1.0;-0.915501;-0.564765;-1.26768;-0.9495180000000001;-0.501634;-1.20679;0.907472;-1.07865;-1.01334;-1.37832;-5.49455;-6.9782;;1970-01-01 00:00:00.165
7019.0;694.3330000000001;195.667;15.1132;723.5239999999999;185.868;0.0;12.0;1.0;-0.897325;-0.575178;-1.27647;-0.93386;-0.523698;-1.22769;0.8795719999999999;-1.19246;-1.1415600000000001;-0.936251;-4.55023;-5.14007;;1970-01-01 00:00:00.176
7020.0;678.308;199.077;14.5897;709.207;190.09400000000002;0.0;13.0;1.0;-0.874806;-0.605901;-1.31646;-0.9161440000000001;-0.548359;-1.25432;0.873426;-1.28857;-1.26001;-0.676293;-3.6444300000000003;-4.23417;;1970-01-01 00:00:00.187
7021.0;662.6669999999999;201.778;14.3323;694.137;193.984;0.0;14.0;1.0;-0.836158;-0.624916;-1.33541;-0.8921479999999999;-0.571326;-1.27865;0.9210459999999999;-1.34906;-1.33534;-0.87398;-4.6122;-5.56924;;1970-01-01 00:00:00.198
7021.0;662.6669999999999;201.778;14.3323;694.137;193.984;0.0;14.0;1.0;-0.836158;-0.624916;-1.33541;-0.8921479999999999;-0.571326;-1.27865;0.9210459999999999;-1.34906;-1.33534;-0.87398;-4.6122;-5.56924;;1970-01-01 00:00:00.209
7022.0;649.538;203.692;13.9064;679.2360000000001;197.394;0.0;15.0;1.0;-0.814743;-0.649997;-1.37289;-0.868927;-0.5949270000000001;-1.30692;0.987625;-1.39551;-1.41283;-0.6405810000000001;-5.1022099999999995;-6.32356;;1970-01-01 00:00:00.220
7023.0;639.3330000000001;202.417;13.8056;665.32;199.50900000000001;0.0;16.0;1.0;-0.783868;-0.650755;-1.38521;-0.843409;-0.611676;-1.33041;1.07444;-1.38469;-1.44545;0.0829832;-4.84415;-6.21778;;1970-01-01 00:00:00.231
7023.0;639.3330000000001;202.417;13.8056;665.32;199.50900000000001;0.0;16.0;1.0;-0.783868;-0.650755;-1.38521;-0.843409;-0.611676;-1.33041;1.07444;-1.38469;-1.44545;0.0829832;-4.84415;-6.21778;;1970-01-01 00:00:00.242
7024.0;628.0;204.0;13.732999999999999;651.794;201.513;0.0;17.0;1.0;-0.7469020000000001;-0.659168;-1.3896600000000001;-0.814457;-0.625923;-1.34818;1.18392;-1.32707;-1.43181;1.15359;-3.89835;-5.40151;;1970-01-01 00:00:00.253
7025.0;615.0;205.0;13.4938;638.058;203.261;0.0;18.0;1.0;-0.712151;-0.67405;-1.41245;-0.7837649999999999;-0.640361;-1.3674600000000001;1.30964;-1.26204;-1.41714;2.40929;-2.61685;-4.3412;;1970-01-01 00:00:00.264
7025.0;615.0;205.0;13.4938;638.058;203.261;0.0;18.0;1.0;-0.712151;-0.67405;-1.41245;-0.7837649999999999;-0.640361;-1.3674600000000001;1.30964;-1.26204;-1.41714;2.40929;-2.61685;-4.3412;;1970-01-01 00:00:00.275
7026.0;602.706;204.94099999999997;13.4864;624.379;204.50099999999998;0.0;19.0;1.0;-0.667132;-0.6742319999999999;-1.41333;-0.748775;-0.650522;-1.3812200000000001;1.45404;-1.16513;-1.35695;3.76378;-1.0772700000000002;-2.9917599999999998;;1970-01-01 00:00:00.286
7027.0;593.6669999999999;204.167;13.4358;611.729;205.15099999999998;0.0;20.0;1.0;-0.6361319999999999;-0.674284;-1.42009;-0.714982;-0.657651;-1.39288;1.57979;-1.04375;-1.27027;4.88846;0.572658;-1.53526;;1970-01-01 00:00:00.297
7027.0;593.6669999999999;204.167;13.4358;611.729;205.15099999999998;0.0;20.0;1.0;-0.6361319999999999;-0.674284;-1.42009;-0.714982;-0.657651;-1.39288;1.57979;-1.04375;-1.27027;4.88846;0.572658;-1.53526;;1970-01-01 00:00:00.308
7028.0;580.0;204.111;13.4954;598.436;205.582;0.0;21.0;1.0;-0.582879;-0.67113;-1.41392;-0.675351;-0.661695;-1.39919;1.7207700000000001;-0.892834;-1.13058;5.86029;2.3506299999999998;0.20577199999999998;;1970-01-01 00:00:00.319
7029.0;568.4;206.13299999999998;13.0313;585.306;206.488;0.0;22.0;1.0;-0.559295;-0.7017260000000001;-1.46041;-0.640534;-0.673704;-1.41756;1.84248;-0.783363;-1.02633;6.5827100000000005;3.81132;1.7969099999999998;;1970-01-01 00:00:00.330
7029.0;568.4;206.13299999999998;13.0313;585.306;206.488;0.0;22.0;1.0;-0.559295;-0.7017260000000001;-1.46041;-0.640534;-0.673704;-1.41756;1.84248;-0.783363;-1.02633;6.5827100000000005;3.81132;1.7969099999999998;;1970-01-01 00:00:00.341
7030.0;559.263;204.52599999999998;13.0586;573.055;206.63;0.0;23.0;1.0;-0.523273;-0.694951;-1.46043;-0.605356;-0.680078;-1.43042;1.9403700000000002;-0.686242;-0.9441450000000001;6.969869999999999;4.84541;3.02525;;1970-01-01 00:00:00.352
7031.0;547.0;205.6;12.9609;560.497;207.035;0.0;24.0;1.0;-0.480084;-0.703761;-1.46937;-0.567774;-0.687183;-1.4421;2.02661;-0.598692;-0.8645129999999999;7.044569999999999;5.55582;4.02161;;1970-01-01 00:00:00.363
7032.0;534.4;207.2;13.0496;547.617;207.797;0.0;25.0;1.0;-0.428726;-0.704271;-1.45633;-0.5260600000000001;-0.69231;-1.4463700000000002;2.1052;-0.526059;-0.778837;6.82665;5.88513;4.72121;;1970-01-01 00:00:00.374
7032.0;534.4;207.2;13.0496;547.617;207.797;0.0;25.0;1.0;-0.428726;-0.704271;-1.45633;-0.5260600000000001;-0.69231;-1.4463700000000002;2.1052;-0.526059;-0.778837;6.82665;5.88513;4.72121;;1970-01-01 00:00:00.385
7033.0;527.0;208.0;12.5306;536.117;208.57299999999998;0.0;26.0;1.0;-0.41706499999999996;-0.7361949999999999;-1.51506;-0.493361;-0.705475;-1.46698;2.14799;-0.506584;-0.763153;6.3646199999999995;5.67583;4.85749;;1970-01-01 00:00:00.396
7034.0;514.0;210.0;12.9098;523.899;209.731;0.0;27.0;1.0;-0.354652;-0.721252;-1.4667;-0.45174899999999996;-0.710208;-1.4669;2.1815700000000002;-0.497651;-0.728202;5.65864;4.98335;4.52108;;1970-01-01 00:00:00.407
7034.0;514.0;210.0;12.9098;523.899;209.731;0.0;27.0;1.0;-0.354652;-0.721252;-1.4667;-0.45174899999999996;-0.710208;-1.4669;2.1815700000000002;-0.497651;-0.728202;5.65864;4.98335;4.52108;;1970-01-01 00:00:00.418
7035.0;506.70599999999996;211.176;12.892999999999999;512.939;210.912;0.0;28.0;1.0;-0.326932;-0.726128;-1.46634;-0.414304;-0.7149840000000001;-1.4667299999999999;2.21222;-0.463409;-0.633233;4.87145;4.2674900000000004;4.28215;;1970-01-01 00:00:00.429
7036.0;494.286;213.048;12.9564;501.30699999999996;212.327;0.0;29.0;1.0;-0.277582;-0.728808;-1.45557;-0.373287;-0.7191310000000001;-1.46338;2.25391;-0.43397299999999994;-0.51154;4.17477;3.5677300000000005;4.2965599999999995;;1970-01-01 00:00:00.440
7036.0;494.286;213.048;12.9564;501.30699999999996;212.327;0.0;29.0;1.0;-0.277582;-0.728808;-1.45557;-0.373287;-0.7191310000000001;-1.46338;2.25391;-0.43397299999999994;-0.51154;4.17477;3.5677300000000005;4.2965599999999995;;1970-01-01 00:00:00.451
7037.0;484.267;216.8;12.661;489.94300000000004;214.49900000000002;0.0;30.0;1.0;-0.24464;-0.758601;-1.48215;-0.33469299999999996;-0.7309720000000001;-1.46901;2.28297;-0.43522;-0.41436000000000006;3.52846;2.79333;4.37526;;1970-01-01 00:00:00.462
7038.0;474.70599999999996;217.176;12.5209;478.925;216.167;0.0;31.0;1.0;-0.20934;-0.768387;-1.49799;-0.297087;-0.742197;-1.47771;2.28401;-0.460316;-0.373719;2.8309900000000003;1.93849;4.2426699999999995;;1970-01-01 00:00:00.473
7038.0;474.70599999999996;217.176;12.5209;478.925;216.167;0.0;31.0;1.0;-0.20934;-0.768387;-1.49799;-0.297087;-0.742197;-1.47771;2.28401;-0.460316;-0.373719;2.8309900000000003;1.93849;4.2426699999999995;;1970-01-01 00:00:00.484
7039.0;464.0;217.0;12.5678;467.81;217.29;0.0;32.0;1.0;-0.166125;-0.764912;-1.49275;-0.257799;-0.749011;-1.48222;2.311;-0.45002700000000007;-0.285078;2.34947;1.38893;4.45453;;1970-01-01 00:00:00.495
7040.0;452.4;216.0;12.4994;456.346;217.757;0.0;33.0;1.0;-0.120805;-0.765645;-1.50291;-0.21670100000000003;-0.754001;-1.48843;2.32513;-0.44488;-0.257013;1.98289;1.04407;4.55415;;1970-01-01 00:00:00.506
7040.0;452.4;216.0;12.4994;456.346;217.757;0.0;33.0;1.0;-0.120805;-0.765645;-1.50291;-0.21670100000000003;-0.754001;-1.48843;2.32513;-0.44488;-0.257013;1.98289;1.04407;4.55415;;1970-01-01 00:00:00.517
7041.0;445.333;215.0;12.4983;446.065;217.74599999999998;0.0;34.0;1.0;-0.0926518;-0.762264;-1.50504;-0.17948599999999998;-0.75648;-1.4934100000000001;2.33269;-0.43262;-0.260745;1.6707900000000002;0.749379;4.2198199999999995;;1970-01-01 00:00:00.528
7042.0;438.909;211.273;12.3566;436.853;216.52700000000002;0.0;35.0;1.0;-0.06781569999999999;-0.7579859999999999;-1.5298;-0.145985;-0.7569319999999999;-1.50433;2.30722;-0.410508;-0.319939;1.21533;0.543321;3.29695;;1970-01-01 00:00:00.539
7043.0;429.6;206.0;12.2121;427.51599999999996;213.94299999999998;0.0;36.0;1.0;-0.0306464;-0.748326;-1.55865;-0.111383;-0.75435;-1.52062;2.276;-0.339652;-0.398038;0.701342;0.707589;2.04334;;1970-01-01 00:00:00.550
7043.0;429.6;206.0;12.2121;427.51599999999996;213.94299999999998;0.0;36.0;1.0;-0.0306464;-0.748326;-1.55865;-0.111383;-0.75435;-1.52062;2.276;-0.339652;-0.398038;0.701342;0.707589;2.04334;;1970-01-01 00:00:00.561
7044.0;422.727;202.18200000000002;12.0862;418.86;210.829;0.0;37.0;1.0;-0.00263971;-0.742495;-1.58276;-0.0787602;-0.750794;-1.53926;2.23737;-0.238119;-0.48461400000000004;0.234575;1.31178;0.783208;;1970-01-01 00:00:00.572
7045.0;418.25;197.75;11.9774;411.462;207.141;0.0;38.0;1.0;0.015957;-0.733274;-1.6063399999999999;-0.0503451;-0.745538;-1.55939;2.17072;-0.129003;-0.598881;-0.419328;2.06882;-0.782996;;1970-01-01 00:00:00.583
7045.0;418.25;197.75;11.9774;411.462;207.141;0.0;38.0;1.0;0.015957;-0.733274;-1.6063399999999999;-0.0503451;-0.745538;-1.55939;2.17072;-0.129003;-0.598881;-0.419328;2.06882;-0.782996;;1970-01-01 00:00:00.594
7046.0;412.25;191.75;11.6528;404.49699999999996;202.545;0.0;39.0;1.0;0.0420501;-0.73148;-1.6639;-0.022626499999999997;-0.74132;-1.59074;2.0773099999999998;-0.026770599999999995;-0.767846;-1.24105;2.9106799999999997;-2.5094;;1970-01-01 00:00:00.605
7047.0;406.714;186.429;11.4622;397.996;197.512;0.0;40.0;1.0;0.066807;-0.723615;-1.70313;0.00420355;-0.736009;-1.62446;1.9798099999999998;0.0656742;-0.983949;-2.1536;3.73595;-4.39318;;1970-01-01 00:00:00.616
7047.0;406.714;186.429;11.4622;397.996;197.512;0.0;40.0;1.0;0.066807;-0.723615;-1.70313;0.00420355;-0.736009;-1.62446;1.9798099999999998;0.0656742;-0.983949;-2.1536;3.73595;-4.39318;;1970-01-01 00:00:00.627
7048.0;402.25;181.75;11.4148;392.17;192.373;0.0;41.0;1.0;0.0865659;-0.708932;-1.7204;0.0289123;-0.7278859999999999;-1.65324;1.8862;0.155377;-1.1849399999999999;-2.97319;4.50098;-6.0896300000000005;;1970-01-01 00:00:00.638
7049.0;399.231;175.231;11.3025;387.293;186.583;0.0;42.0;1.0;0.100732;-0.691088;-1.75185;0.050458300000000005;-0.716846;-1.68282;1.7779;0.24296700000000002;-1.35859;-3.77265;5.02682;-7.488980000000001;;1970-01-01 00:00:00.649
7049.0;399.231;175.231;11.3025;387.293;186.583;0.0;42.0;1.0;0.100732;-0.691088;-1.75185;0.050458300000000005;-0.716846;-1.68282;1.7779;0.24296700000000002;-1.35859;-3.77265;5.02682;-7.488980000000001;;1970-01-01 00:00:00.660
7050.0;396.727;169.09099999999998;10.9943;383.264;180.44799999999998;0.0;43.0;1.0;0.1149;-0.686369;-1.81487;0.0697907;-0.707703;-1.7224400000000002;1.65986;0.317828;-1.5465200000000001;-4.56939;5.23583;-8.733260000000001;;1970-01-01 00:00:00.671
7051.0;394.714;164.429;10.5654;380.005;174.542;0.0;44.0;1.0;0.129055;-0.695191;-1.89953;0.0875698;-0.7039489999999999;-1.7755599999999998;1.54657;0.356747;-1.7910400000000002;-5.2336800000000006;5.08095;-9.99991;;1970-01-01 00:00:00.682
7051.0;394.714;164.429;10.5654;380.005;174.542;0.0;44.0;1.0;0.129055;-0.695191;-1.89953;0.0875698;-0.7039489999999999;-1.7755599999999998;1.54657;0.356747;-1.7910400000000002;-5.2336800000000006;5.08095;-9.99991;;1970-01-01 00:00:00.693
7052.0;395.0;159.0;10.4713;378.027;168.56900000000002;0.0;45.0;1.0;0.128855;-0.6790689999999999;-1.9295;0.0999554;-0.696485;-1.8217400000000001;1.4173799999999999;0.39306199999999997;-1.9969599999999998;-5.77515;4.72485;-10.9074;;1970-01-01 00:00:00.704
7053.0;394.75;154.5;10.4506;376.805;162.851;0.0;46.0;1.0;0.130302;-0.661834;-1.9440400000000002;0.10905899999999999;-0.68609;-1.85843;1.26908;0.43514899999999995;-2.13237;-6.30279;4.31011;-11.1298;;1970-01-01 00:00:00.715
7054.0;396.0;149.429;9.996789999999999;376.597;157.14600000000002;0.0;47.0;1.0;0.12998800000000002;-0.669992;-2.0449200000000003;0.11533800000000001;-0.6812600000000001;-1.91438;1.1065200000000002;0.44725200000000004;-2.32207;-6.89468;3.75144;-11.2181;;1970-01-01 00:00:00.726
7054.0;396.0;149.429;9.996789999999999;376.597;157.14600000000002;0.0;47.0;1.0;0.12998800000000002;-0.669992;-2.0449200000000003;0.11533800000000001;-0.6812600000000001;-1.91438;1.1065200000000002;0.44725200000000004;-2.32207;-6.89468;3.75144;-11.2181;;1970-01-01 00:00:00.737
7055.0;398.0;144.0;9.771239999999999;377.356;151.344;0.0;48.0;1.0;0.12279300000000001;-0.661486;-2.10596;0.117575;-0.6753279999999999;-1.97185;0.93189;0.434123;-2.54725;-7.514710000000001;3.01409;-11.4768;;1970-01-01 00:00:00.748
7056.0;399.75;139.75;9.49848;378.724;145.856;0.0;49.0;1.0;0.11714200000000001;-0.661176;-2.1775700000000002;0.11744500000000001;-0.671082;-2.03357;0.7494029999999999;0.40669;-2.7706;-8.14403;2.1632599999999997;-11.7735;;1970-01-01 00:00:00.759
7056.0;399.75;139.75;9.49848;378.724;145.856;0.0;49.0;1.0;0.11714200000000001;-0.661176;-2.1775700000000002;0.11744500000000001;-0.671082;-2.03357;0.7494029999999999;0.40669;-2.7706;-8.14403;2.1632599999999997;-11.7735;;1970-01-01 00:00:00.770
7057.0;402.4;135.0;9.47075;380.80800000000005;140.442;0.0;50.0;1.0;0.103546;-0.641471;-2.19643;0.113275;-0.662199;-2.08243;0.552276;0.41071199999999997;-2.88757;-8.85635;1.51342;-11.4422;;1970-01-01 00:00:00.781
7058.0;405.6;128.0;9.09762;383.574;134.374;0.0;51.0;1.0;0.090272;-0.634582;-2.30567;0.106374;-0.653914;-2.1494;0.356994;0.41640200000000005;-3.04077;-9.54762;1.00124;-11.033;;1970-01-01 00:00:00.792
7058.0;405.6;128.0;9.09762;383.574;134.374;0.0;51.0;1.0;0.090272;-0.634582;-2.30567;0.106374;-0.653914;-2.1494;0.356994;0.41640200000000005;-3.04077;-9.54762;1.00124;-11.033;;1970-01-01 00:00:00.803
7059.0;407.6;122.8;8.82986;386.43800000000005;128.411;0.0;52.0;1.0;0.0817265;-0.628415;-2.39025;0.0989799;-0.6462640000000001;-2.22165;0.173953;0.408853;-3.2747;-10.1011;0.495751;-11.1808;;1970-01-01 00:00:00.814
7060.0;410.0;118.0;8.71691;389.486;122.65799999999999;0.0;53.0;1.0;0.0690706;-0.612799;-2.43493;0.0900071;-0.636225;-2.2856400000000003;0.00323279;0.425125;-3.4471300000000005;-10.4658;0.209105;-11.2005;;1970-01-01 00:00:00.825
7060.0;410.0;118.0;8.71691;389.486;122.65799999999999;0.0;53.0;1.0;0.0690706;-0.612799;-2.43493;0.0900071;-0.636225;-2.2856400000000003;0.00323279;0.425125;-3.4471300000000005;-10.4658;0.209105;-11.2005;;1970-01-01 00:00:00.836
7061.0;413.231;110.76899999999999;8.56939;392.91900000000004;116.291;0.0;54.0;1.0;0.0514794;-0.586942;-2.49785;0.0784488;-0.62144;-2.3493;-0.154278;0.47023400000000004;-3.5753199999999996;-10.6162;0.269646;-10.8251;;1970-01-01 00:00:00.847
7062.0;416.0;104.0;8.47259;396.468;109.631;0.0;55.0;1.0;0.03578630000000001;-0.559175;-2.54628;0.0656501;-0.6027600000000001;-2.4083900000000003;-0.299367;0.55493;-3.6417599999999997;-10.5572;0.753664;-9.9733;;1970-01-01 00:00:00.858
7062.0;416.0;104.0;8.47259;396.468;109.631;0.0;55.0;1.0;0.03578630000000001;-0.559175;-2.54628;0.0656501;-0.6027600000000001;-2.4083900000000003;-0.299367;0.55493;-3.6417599999999997;-10.5572;0.753664;-9.9733;;1970-01-01 00:00:00.869
7063.0;418.222;98.6667;8.531830000000001;399.914;103.223;0.0;56.0;1.0;0.022563299999999998;-0.52832;-2.5441599999999998;0.052724;-0.5804279999999999;-2.44912;-0.42138400000000004;0.6594439999999999;-3.6491599999999997;-10.2218;1.44531;-9.02477;;1970-01-01 00:00:00.880
7064.0;421.81800000000004;90.7273;8.44956;403.709;96.1759;0.0;57.0;1.0;0.00158359;-0.49292299999999994;-2.59232;0.0373819;-0.554177;-2.49208;-0.528296;0.793888;-3.5577199999999998;-9.667810000000001;2.37438;-7.4789;;1970-01-01 00:00:00.891
7065.0;424.222;82.6667;8.33482;407.36400000000003;88.6326;0.0;58.0;1.0;-0.0127625;-0.457981;-2.6520799999999998;0.0223386;-0.5253180000000001;-2.54008;-0.622985;0.9592370000000001;-3.4060300000000003;-8.98263;3.62216;-5.01169;;1970-01-01 00:00:00.902
7065.0;424.222;82.6667;8.33482;407.36400000000003;88.6326;0.0;58.0;1.0;-0.0127625;-0.457981;-2.6520799999999998;0.0223386;-0.5253180000000001;-2.54008;-0.622985;0.9592370000000001;-3.4060300000000003;-8.98263;3.62216;-5.01169;;1970-01-01 00:00:00.913
7066.0;426.0;77.0;8.22462;410.70599999999996;81.4999;0.0;59.0;1.0;-0.0237007;-0.43438999999999994;-2.70477;0.00852679;-0.498039;-2.58949;-0.699118;1.1272799999999998;-3.2568099999999998;-8.19386;4.976780000000001;-2.24709;;1970-01-01 00:00:00.924
7067.0;428.57099999999997;70.0;8.21723;414.06;74.2484;0.0;60.0;1.0;-0.0393102;-0.398025;-2.72841;-0.00582432;-0.46803500000000003;-2.63116;-0.755949;1.2888700000000002;-3.0794799999999998;-7.3186100000000005;6.254630000000001;0.631479;;1970-01-01 00:00:00.935
7067.0;428.57099999999997;70.0;8.21723;414.06;74.2484;0.0;60.0;1.0;-0.0393102;-0.398025;-2.72841;-0.00582432;-0.46803500000000003;-2.63116;-0.755949;1.2888700000000002;-3.0794799999999998;-7.3186100000000005;6.254630000000001;0.631479;;1970-01-01 00:00:00.946
7068.0;430.0;61.0;8.00698;417.048;66.2798;0.0;61.0;1.0;-0.0492299;-0.359978;-2.82803;-0.018846;-0.435618;-2.69022;-0.790938;1.4406700000000001;-2.97296;-6.35387;7.2893;3.04922;;1970-01-01 00:00:00.957
7069.0;431.0;53.2;7.994110000000001;419.624;58.1813;0.0;62.0;1.0;-0.0555403;-0.318458;-2.8568700000000002;-0.0298543;-0.40047;-2.74022;-0.8042739999999999;1.58292;-2.94603;-5.34109;8.06077;4.636909999999999;;1970-01-01 00:00:00.968
7069.0;431.0;53.2;7.994110000000001;419.624;58.1813;0.0;62.0;1.0;-0.0555403;-0.318458;-2.8568700000000002;-0.0298543;-0.40047;-2.74022;-0.8042739999999999;1.58292;-2.94603;-5.34109;8.06077;4.636909999999999;;1970-01-01 00:00:00.979
7070.0;432.0;48.0;8.13085;421.89099999999996;50.8251;0.0;63.0;1.0;-0.0607327;-0.285508;-2.82475;-0.03911780000000001;-0.36598200000000003;-2.76558;-0.7880050000000001;1.7011599999999998;-2.85961;-4.2416;8.45894;5.56953;;1970-01-01 00:00:00.990
7071.0;434.222;38.6667;8.05091;424.316;42.6974;0.0;64.0;1.0;-0.07508530000000001;-0.238323;-2.88165;-0.0499081;-0.32768400000000003;-2.8004;-0.761263;1.8097900000000002;-2.7551400000000004;-3.09706;8.47138;5.94053;;1970-01-01 00:00:01.001
7071.0;434.222;38.6667;8.05091;424.316;42.6974;0.0;64.0;1.0;-0.07508530000000001;-0.238323;-2.88165;-0.0499081;-0.32768400000000003;-2.8004;-0.761263;1.8097900000000002;-2.7551400000000004;-3.09706;8.47138;5.94053;;1970-01-01 00:00:01.012
7072.0;437.0;31.0;7.9651;427.024;34.5475;0.0;65.0;1.0;-0.0932663;-0.19936099999999998;-2.93666;-0.0629155;-0.28918699999999997;-2.84128;-0.742006;1.91976;-2.65841;-2.02948;8.24699;5.95355;;1970-01-01 00:00:01.023
7073.0;440.222;26.6667;8.02624;430.07300000000004;27.4524;0.0;66.0;1.0;-0.112554;-0.174547;-2.92773;-0.0778071;-0.254795;-2.86721;-0.73261;2.00326;-2.53753;-1.1245;7.800560000000001;5.73599;;1970-01-01 00:00:01.034
7073.0;440.222;26.6667;8.02624;430.07300000000004;27.4524;0.0;66.0;1.0;-0.112554;-0.174547;-2.92773;-0.0778071;-0.254795;-2.86721;-0.73261;2.00326;-2.53753;-1.1245;7.800560000000001;5.73599;;1970-01-01 00:00:01.045
7074.0;444.0;19.4286;7.851039999999999;433.537;20.2019;0.0;67.0;1.0;-0.139035;-0.138664;-3.0160099999999996;-0.0961754;-0.21995599999999998;-2.91185;-0.748319;2.06303;-2.40742;-0.5045350000000001;7.16524;5.69961;;1970-01-01 00:00:01.056
7075.0;449.6;12.6;7.879169999999999;437.876;12.9748;0.0;68.0;1.0;-0.173942;-0.100775;-3.0268200000000003;-0.119505;-0.184202;-2.94634;-0.806944;2.10132;-2.26746;-0.313379;6.36895;6.1291400000000005;;1970-01-01 00:00:01.067
7076.0;455.333;8.66667;7.85128;442.88300000000004;6.69203;0.0;69.0;1.0;-0.210936;-0.0795172;-3.05005;-0.14693499999999998;-0.15279600000000002;-2.97745;-0.914647;2.11198;-2.20644;-0.693671;5.46164;6.2853900000000005;;1970-01-01 00:00:01.078
7076.0;455.333;8.66667;7.85128;442.88300000000004;6.69203;0.0;69.0;1.0;-0.210936;-0.0795172;-3.05005;-0.14693499999999998;-0.15279600000000002;-2.97745;-0.914647;2.11198;-2.20644;-0.693671;5.46164;6.2853900000000005;;1970-01-01 00:00:01.089
7077.0;460.667;4.22222;7.906280000000001;448.23699999999997;0.9360209999999999;0.0;70.0;1.0;-0.243071;-0.05470930000000001;-3.04282;-0.175776;-0.12337000000000001;-2.99706;-1.05134;2.08295;-2.10909;-1.5744;4.36763;6.350709999999999;;1970-01-01 00:00:01.100
7078.0;467.333;0.666667;7.71289;454.256;-4.15284;0.0;71.0;1.0;-0.292222;-0.0361909;-3.13059;-0.21070999999999998;-0.0972164;-3.0371200000000003;-1.2209;2.01626;-2.0474099999999997;-2.8567400000000003;3.0058599999999998;6.24998;;1970-01-01 00:00:01.111
7078.0;467.333;0.666667;7.71289;454.256;-4.15284;0.0;71.0;1.0;-0.292222;-0.0361909;-3.13059;-0.21070999999999998;-0.0972164;-3.0371200000000003;-1.2209;2.01626;-2.0474099999999997;-2.8567400000000003;3.0058599999999998;6.24998;;1970-01-01 00:00:01.122
7079.0;467.333;0.666667;7.71289;454.45099999999996;-9.159310000000001;1.0;0.0;1.0;-0.292222;-0.0361909;-3.13059;-0.21070999999999998;-0.0972164;-3.0371200000000003;-1.2209;2.01626;-2.0474099999999997;-2.8567400000000003;3.0058599999999998;6.24998;;1970-01-01 00:00:01.133
7080.0;467.333;0.666667;7.71289;454.64599999999996;-14.165999999999999;2.0;0.0;1.0;-0.292222;-0.0361909;-3.13059;-0.21070999999999998;-0.0972164;-3.0371200000000003;-1.2209;2.01626;-2.0474099999999997;-2.8567400000000003;3.0058599999999998;6.24998;;1970-01-01 00:00:01.144
7080.0;467.333;0.666667;7.71289;454.64599999999996;-14.165999999999999;2.0;0.0;1.0;-0.292222;-0.0361909;-3.13059;-0.21070999999999998;-0.0972164;-3.0371200000000003;-1.2209;2.01626;-2.0474099999999997;-2.8567400000000003;3.0058599999999998;6.24998;;1970-01-01 00:00:01.155
7081.0;467.333;0.666667;7.71289;454.84;-19.1724;3.0;0.0;1.0;-0.292222;-0.0361909;-3.13059;-0.21070999999999998;-0.0972164;-3.0371200000000003;-1.2209;2.01626;-2.0474099999999997;-2.8567400000000003;3.0058599999999998;6.24998;;1970-01-01 00:00:01.166
7082.0;467.333;0.666667;7.71289;455.035;-24.1792;4.0;0.0;1.0;-0.292222;-0.0361909;-3.13059;-0.21070999999999998;-0.0972164;-3.0371200000000003;-1.2209;2.01626;-2.0474099999999997;-2.8567400000000003;3.0058599999999998;6.24998;;1970-01-01 00:00:01.177
7082.0;467.333;0.666667;7.71289;455.035;-24.1792;4.0;0.0;1.0;-0.292222;-0.0361909;-3.13059;-0.21070999999999998;-0.0972164;-3.0371200000000003;-1.2209;2.01626;-2.0474099999999997;-2.8567400000000003;3.0058599999999998;6.24998;;1970-01-01 00:00:01.188
7083.0;467.333;0.666667;7.71289;455.22900000000004;-29.1856;5.0;0.0;1.0;-0.292222;-0.0361909;-3.13059;-0.21070999999999998;-0.0972164;-3.0371200000000003;-1.2209;2.01626;-2.0474099999999997;-2.8567400000000003;3.0058599999999998;6.24998;;1970-01-01 00:00:01.199
7084.0;467.333;0.666667;7.71289;455.42400000000004;-34.1923;6.0;0.0;1.0;-0.292222;-0.0361909;-3.13059;-0.21070999999999998;-0.0972164;-3.0371200000000003;-1.2209;2.01626;-2.0474099999999997;-2.8567400000000003;3.0058599999999998;6.24998;;1970-01-01 00:00:01.210
7084.0;467.333;0.666667;7.71289;455.42400000000004;-34.1923;6.0;0.0;1.0;-0.292222;-0.0361909;-3.13059;-0.21070999999999998;-0.0972164;-3.0371200000000003;-1.2209;2.01626;-2.0474099999999997;-2.8567400000000003;3.0058599999999998;6.24998;;1970-01-01 00:00:01.221
7085.0;467.333;0.666667;7.71289;455.619;-39.1988;7.0;0.0;1.0;-0.292222;-0.0361909;-3.13059;-0.21070999999999998;-0.0972164;-3.0371200000000003;-1.2209;2.01626;-2.0474099999999997;-2.8567400000000003;3.0058599999999998;6.24998;;1970-01-01 00:00:01.232
7086.0;467.333;0.666667;7.71289;455.81300000000005;-44.2055;8.0;0.0;1.0;-0.292222;-0.0361909;-3.13059;-0.21070999999999998;-0.0972164;-3.0371200000000003;-1.2209;2.01626;-2.0474099999999997;-2.8567400000000003;3.0058599999999998;6.24998;;1970-01-01 00:00:01.243
7087.0;467.333;0.666667;7.71289;456.00800000000004;-49.2119;9.0;0.0;1.0;-0.292222;-0.0361909;-3.13059;-0.21070999999999998;-0.0972164;-3.0371200000000003;-1.2209;2.01626;-2.0474099999999997;-2.8567400000000003;3.0058599999999998;6.24998;;1970-01-01 00:00:01.254
7087.0;467.333;0.666667;7.71289;456.00800000000004;-49.2119;9.0;0.0;1.0;-0.292222;-0.0361909;-3.13059;-0.21070999999999998;-0.0972164;-3.0371200000000003;-1.2209;2.01626;-2.0474099999999997;-2.8567400000000003;3.0058599999999998;6.24998;;1970-01-01 00:00:01.265
7088.0;467.333;0.666667;7.71289;-1.0;-1.0;10.0;0.0;0.0;0.0;0.0;0.0;0.0;0.0;0.0;0.0;0.0;0.0;0.0;0.0;0.0;;1970-01-01 00:00:01.276
7089.0;466.0;405.0;6.29402;466.0;405.0;0.0;1.0;1.0;-0.347546;-2.81615;-2.23713;-0.347546;-2.81615;-2.23713;0.0;0.0;0.0;0.0;0.0;0.0;;1970-01-01 00:00:01.287
7089.0;466.0;405.0;6.29402;466.0;405.0;0.0;1.0;1.0;-0.347546;-2.81615;-2.23713;-0.347546;-2.81615;-2.23713;0.0;0.0;0.0;0.0;0.0;0.0;;1970-01-01 00:00:01.298
7090.0;465.14300000000003;404.905;5.29629;466.0;405.0;1.0;0.0;1.0;-0.347546;-2.81615;-2.23713;-0.347546;-2.81615;-2.23713;0.0;0.0;0.0;0.0;0.0;0.0;;1970-01-01 00:00:01.309
7091.0;460.789;416.421;6.29799;466.0;405.0;2.0;0.0;1.0;-0.347546;-2.81615;-2.23713;-0.347546;-2.81615;-2.23713;0.0;0.0;0.0;0.0;0.0;0.0;;1970-01-01 00:00:01.320
7091.0;460.789;416.421;6.29799;466.0;405.0;2.0;0.0;1.0;-0.347546;-2.81615;-2.23713;-0.347546;-2.81615;-2.23713;0.0;0.0;0.0;0.0;0.0;0.0;;1970-01-01 00:00:01.331
7092.0;457.8;434.8;5.997240000000001;466.0;405.0;3.0;0.0;1.0;-0.347546;-2.81615;-2.23713;-0.347546;-2.81615;-2.23713;0.0;0.0;0.0;0.0;0.0;0.0;;1970-01-01 00:00:01.342
7093.0;451.0;445.0;6.00192;466.0;405.0;4.0;0.0;1.0;-0.347546;-2.81615;-2.23713;-0.347546;-2.81615;-2.23713;0.0;0.0;0.0;0.0;0.0;0.0;;1970-01-01 00:00:01.353
7093.0;451.0;445.0;6.00192;466.0;405.0;4.0;0.0;1.0;-0.347546;-2.81615;-2.23713;-0.347546;-2.81615;-2.23713;0.0;0.0;0.0;0.0;0.0;0.0;;1970-01-01 00:00:01.364
7094.0;448.0;447.0;5.97964;466.0;405.0;5.0;0.0;1.0;-0.347546;-2.81615;-2.23713;-0.347546;-2.81615;-2.23713;0.0;0.0;0.0;0.0;0.0;0.0;;1970-01-01 00:00:01.375
7095.0;448.0;447.0;5.97964;466.0;405.0;6.0;0.0;1.0;-0.347546;-2.81615;-2.23713;-0.347546;-2.81615;-2.23713;0.0;0.0;0.0;0.0;0.0;0.0;;1970-01-01 00:00:01.386
7095.0;448.0;447.0;5.97964;466.0;405.0;6.0;0.0;1.0;-0.347546;-2.81615;-2.23713;-0.347546;-2.81615;-2.23713;0.0;0.0;0.0;0.0;0.0;0.0;;1970-01-01 00:00:01.397
7096.0;448.0;450.0;6.32811;458.371;424.07099999999997;0.0;1.0;1.0;-0.203982;-3.1078099999999997;-2.04806;-0.304477;-2.90365;-2.1804099999999997;0.0;0.0;0.0;0.0;0.0;0.0;;1970-01-01 00:00:01.408
7097.0;449.0;453.0;5.88775;458.31;424.224;1.0;0.0;1.0;-0.203982;-3.1078099999999997;-2.04806;-0.304477;-2.90365;-2.1804099999999997;0.0;0.0;0.0;0.0;0.0;0.0;;1970-01-01 00:00:01.419
7098.0;452.455;451.909;6.281680000000001;458.249;424.37699999999995;2.0;0.0;1.0;-0.203982;-3.1078099999999997;-2.04806;-0.304477;-2.90365;-2.1804099999999997;0.0;0.0;0.0;0.0;0.0;0.0;;1970-01-01 00:00:01.430
7098.0;452.455;451.909;6.281680000000001;458.249;424.37699999999995;2.0;0.0;1.0;-0.203982;-3.1078099999999997;-2.04806;-0.304477;-2.90365;-2.1804099999999997;0.0;0.0;0.0;0.0;0.0;0.0;;1970-01-01 00:00:01.441
7099.0;452.85699999999997;453.524;6.39014;458.18800000000005;424.529;3.0;0.0;1.0;-0.203982;-3.1078099999999997;-2.04806;-0.304477;-2.90365;-2.1804099999999997;0.0;0.0;0.0;0.0;0.0;0.0;;1970-01-01 00:00:01.452
7100.0;452.414;458.207;6.47959;458.12699999999995;424.68199999999996;4.0;0.0;1.0;-0.203982;-3.1078099999999997;-2.04806;-0.304477;-2.90365;-2.1804099999999997;0.0;0.0;0.0;0.0;0.0;0.0;;1970-01-01 00:00:01.463
7100.0;452.414;458.207;6.47959;458.12699999999995;424.68199999999996;4.0;0.0;1.0;-0.203982;-3.1078099999999997;-2.04806;-0.304477;-2.90365;-2.1804099999999997;0.0;0.0;0.0;0.0;0.0;0.0;;1970-01-01 00:00:01.474
7101.0;450.6;462.05;6.44172;458.066;424.835;5.0;0.0;1.0;-0.203982;-3.1078099999999997;-2.04806;-0.304477;-2.90365;-2.1804099999999997;0.0;0.0;0.0;0.0;0.0;0.0;;1970-01-01 00:00:01.485
7102.0;450.14;467.814;6.4982;458.005;424.98800000000006;6.0;0.0;1.0;-0.203982;-3.1078099999999997;-2.04806;-0.304477;-2.90365;-2.1804099999999997;0.0;0.0;0.0;0.0;0.0;0.0;;1970-01-01 00:00:01.496
7102.0;450.14;467.814;6.4982;458.005;424.98800000000006;6.0;0.0;1.0;-0.203982;-3.1078099999999997;-2.04806;-0.304477;-2.90365;-2.1804099999999997;0.0;0.0;0.0;0.0;0.0;0.0;;1970-01-01 00:00:01.507
7103.0;449.273;469.273;6.313359999999999;457.944;425.14;7.0;0.0;1.0;-0.203982;-3.1078099999999997;-2.04806;-0.304477;-2.90365;-2.1804099999999997;0.0;0.0;0.0;0.0;0.0;0.0;;1970-01-01 00:00:01.518
7104.0;448.56;471.36;6.42786;457.88300000000004;425.293;8.0;0.0;1.0;-0.203982;-3.1078099999999997;-2.04806;-0.304477;-2.90365;-2.1804099999999997;0.0;0.0;0.0;0.0;0.0;0.0;;1970-01-01 00:00:01.529
7104.0;448.56;471.36;6.42786;457.88300000000004;425.293;8.0;0.0;1.0;-0.203982;-3.1078099999999997;-2.04806;-0.304477;-2.90365;-2.1804099999999997;0.0;0.0;0.0;0.0;0.0;0.0;;1970-01-01 00:00:01.540
7105.0;447.231;471.077;6.40939;457.82199999999995;425.44599999999997;9.0;0.0;1.0;-0.203982;-3.1078099999999997;-2.04806;-0.304477;-2.90365;-2.1804099999999997;0.0;0.0;0.0;0.0;0.0;0.0;;1970-01-01 00:00:01.551
7106.0;445.333;469.333;6.373480000000001;-1.0;-1.0;10.0;0.0;0.0;0.0;0.0;0.0;0.0;0.0;0.0;0.0;0.0;0.0;0.0;0.0;0.0;;1970-01-01 00:00:01.562
