RS_ID;time;imLx_insect; imLy_insect; disparity_insect; imLx_pred_insect; imLy_pred_insect; n_frames_lost_insect; n_frames_tracking_insect; foundL_insect; posX_insect; posY_insect; posZ_insect; sposX_insect; sposY_insect; sposZ_insect; svelX_insect; svelY_insect; svelZ_insect; saccX_insect; saccY_insect; saccZ_insect; 
7008;116.362229;844;149;19;844;149;0;1;1;-1.10615;-0.351541;-1.07649;-1.10615;-0.351541;-1.07649;0;0;0;0;0;0;
7009;116.378925;830.583;150.833;19;842.78;149.167;0;2;1;-1.07098;-0.355704;-1.07409;-1.0956;-0.35279;-1.07577;0;0;0;0;0;0;
7010;116.395623;815.68;155.04;19;838.424;150.111;0;3;1;-1.0319;-0.365257;-1.06858;-1.07649;-0.35653;-1.07361;0;0;0;0;0;0;
7011;116.41232;800.4;158.4;19;830.511;151.836;0;4;1;-0.991842;-0.372887;-1.06418;-1.0511;-0.361437;-1.07078;0;0;0;0;0;0;
7012;116.429017;786.087;163.13;18.3052;819.934;154.524;0;5;1;-0.990539;-0.39819;-1.09813;-1.03293;-0.372463;-1.07899;0;0;0;0;0;0;
7013;116.445714;771.417;167.167;17.7121;807.473;157.769;0;6;1;-0.982452;-0.421357;-1.12924;-1.01779;-0.387131;-1.09406;0;0;0;0;0;0;
7014;116.462411;758;173;17.2937;794.152;161.861;0;7;1;-0.967575;-0.446106;-1.14816;-1.00272;-0.404824;-1.11029;0;0;0;0;0;0;
7015;116.479108;743.875;178.5;16.6008;780.161;166.476;0;8;1;-0.965572;-0.479019;-1.18783;-0.991577;-0.427082;-1.13355;1.03831;-0.741569;-0.576767;4.05551;-6.65547;-6.18797;
7016;116.495806;732.333;182.5;16.3383;766.469;171.046;0;9;1;-0.945902;-0.497281;-1.20083;-0.977875;-0.448142;-1.15373;1.01673;-0.810721;-0.665964;1.92364;-6.33592;-6.88778;
7017;116.512502;714.909;188.727;15.6516;751.391;176.195;0;10;1;-0.931947;-0.536265;-1.24361;-0.964096;-0.474579;-1.1807;0.957397;-0.938174;-0.838434;-1.09583;-6.37394;-8.1573;
7018;116.5292;702.429;193.857;15.2536;736.689;181.463;0;11;1;-0.915501;-0.564765;-1.26768;-0.949518;-0.501634;-1.20679;0.907472;-1.07865;-1.01334;-1.37832;-5.49455;-6.9782;
7019;116.545896;694.333;195.667;15.1132;723.524;185.868;0;12;1;-0.897325;-0.575178;-1.27647;-0.93386;-0.523698;-1.22769;0.879572;-1.19246;-1.14156;-0.936251;-4.55023;-5.14007;
7020;116.562594;678.308;199.077;14.5897;709.207;190.094;0;13;1;-0.874806;-0.605901;-1.31646;-0.916144;-0.548359;-1.25432;0.873426;-1.28857;-1.26001;-0.676293;-3.64443;-4.23417;
7021;116.579291;662.667;201.778;14.3323;694.137;193.984;0;14;1;-0.836158;-0.624916;-1.33541;-0.892148;-0.571326;-1.27865;0.921046;-1.34906;-1.33534;-0.87398;-4.6122;-5.56924;
7022;116.595988;649.538;203.692;13.9064;679.236;197.394;0;15;1;-0.814743;-0.649997;-1.37289;-0.868927;-0.594927;-1.30692;0.987625;-1.39551;-1.41283;-0.640581;-5.10221;-6.32356;
7023;116.612685;639.333;202.417;13.8056;665.32;199.509;0;16;1;-0.783868;-0.650755;-1.38521;-0.843409;-0.611676;-1.33041;1.07444;-1.38469;-1.44545;0.0829832;-4.84415;-6.21778;
7024;116.629383;628;204;13.733;651.794;201.513;0;17;1;-0.746902;-0.659168;-1.38966;-0.814457;-0.625923;-1.34818;1.18392;-1.32707;-1.43181;1.15359;-3.89835;-5.40151;
7025;116.646079;615;205;13.4938;638.058;203.261;0;18;1;-0.712151;-0.67405;-1.41245;-0.783765;-0.640361;-1.36746;1.30964;-1.26204;-1.41714;2.40929;-2.61685;-4.3412;
7026;116.662777;602.706;204.941;13.4864;624.379;204.501;0;19;1;-0.667132;-0.674232;-1.41333;-0.748775;-0.650522;-1.38122;1.45404;-1.16513;-1.35695;3.76378;-1.07727;-2.99176;
7027;116.679473;593.667;204.167;13.4358;611.729;205.151;0;20;1;-0.636132;-0.674284;-1.42009;-0.714982;-0.657651;-1.39288;1.57979;-1.04375;-1.27027;4.88846;0.572658;-1.53526;
7028;116.696171;580;204.111;13.4954;598.436;205.582;0;21;1;-0.582879;-0.67113;-1.41392;-0.675351;-0.661695;-1.39919;1.72077;-0.892834;-1.13058;5.86029;2.35063;0.205772;
7029;116.712868;568.4;206.133;13.0313;585.306;206.488;0;22;1;-0.559295;-0.701726;-1.46041;-0.640534;-0.673704;-1.41756;1.84248;-0.783363;-1.02633;6.58271;3.81132;1.79691;
7030;116.729565;559.263;204.526;13.0586;573.055;206.63;0;23;1;-0.523273;-0.694951;-1.46043;-0.605356;-0.680078;-1.43042;1.94037;-0.686242;-0.944145;6.96987;4.84541;3.02525;
7031;116.746262;547;205.6;12.9609;560.497;207.035;0;24;1;-0.480084;-0.703761;-1.46937;-0.567774;-0.687183;-1.4421;2.02661;-0.598692;-0.864513;7.04457;5.55582;4.02161;
7032;116.762959;534.4;207.2;13.0496;547.617;207.797;0;25;1;-0.428726;-0.704271;-1.45633;-0.52606;-0.69231;-1.44637;2.1052;-0.526059;-0.778837;6.82665;5.88513;4.72121;
7033;116.779656;527;208;12.5306;536.117;208.573;0;26;1;-0.417065;-0.736195;-1.51506;-0.493361;-0.705475;-1.46698;2.14799;-0.506584;-0.763153;6.36462;5.67583;4.85749;
7034;116.796354;514;210;12.9098;523.899;209.731;0;27;1;-0.354652;-0.721252;-1.4667;-0.451749;-0.710208;-1.4669;2.18157;-0.497651;-0.728202;5.65864;4.98335;4.52108;
7035;116.81305;506.706;211.176;12.893;512.939;210.912;0;28;1;-0.326932;-0.726128;-1.46634;-0.414304;-0.714984;-1.46673;2.21222;-0.463409;-0.633233;4.87145;4.26749;4.28215;
7036;116.829748;494.286;213.048;12.9564;501.307;212.327;0;29;1;-0.277582;-0.728808;-1.45557;-0.373287;-0.719131;-1.46338;2.25391;-0.433973;-0.51154;4.17477;3.56773;4.29656;
7037;116.846445;484.267;216.8;12.661;489.943;214.499;0;30;1;-0.24464;-0.758601;-1.48215;-0.334693;-0.730972;-1.46901;2.28297;-0.43522;-0.41436;3.52846;2.79333;4.37526;
7038;116.863142;474.706;217.176;12.5209;478.925;216.167;0;31;1;-0.20934;-0.768387;-1.49799;-0.297087;-0.742197;-1.47771;2.28401;-0.460316;-0.373719;2.83099;1.93849;4.24267;
7039;116.879833;464;217;12.5678;467.81;217.29;0;32;1;-0.166125;-0.764912;-1.49275;-0.257799;-0.749011;-1.48222;2.311;-0.450027;-0.285078;2.34947;1.38893;4.45453;
7040;116.89653;452.4;216;12.4994;456.346;217.757;0;33;1;-0.120805;-0.765645;-1.50291;-0.216701;-0.754001;-1.48843;2.32513;-0.44488;-0.257013;1.98289;1.04407;4.55415;
7041;116.913227;445.333;215;12.4983;446.065;217.746;0;34;1;-0.0926518;-0.762264;-1.50504;-0.179486;-0.75648;-1.49341;2.33269;-0.43262;-0.260745;1.67079;0.749379;4.21982;
7042;116.929924;438.909;211.273;12.3566;436.853;216.527;0;35;1;-0.0678157;-0.757986;-1.5298;-0.145985;-0.756932;-1.50433;2.30722;-0.410508;-0.319939;1.21533;0.543321;3.29695;
7043;116.946621;429.6;206;12.2121;427.516;213.943;0;36;1;-0.0306464;-0.748326;-1.55865;-0.111383;-0.75435;-1.52062;2.276;-0.339652;-0.398038;0.701342;0.707589;2.04334;
7044;116.963319;422.727;202.182;12.0862;418.86;210.829;0;37;1;-0.00263971;-0.742495;-1.58276;-0.0787602;-0.750794;-1.53926;2.23737;-0.238119;-0.484614;0.234575;1.31178;0.783208;
7045;116.980015;418.25;197.75;11.9774;411.462;207.141;0;38;1;0.015957;-0.733274;-1.60634;-0.0503451;-0.745538;-1.55939;2.17072;-0.129003;-0.598881;-0.419328;2.06882;-0.782996;
7046;116.996713;412.25;191.75;11.6528;404.497;202.545;0;39;1;0.0420501;-0.73148;-1.6639;-0.0226265;-0.74132;-1.59074;2.07731;-0.0267706;-0.767846;-1.24105;2.91068;-2.5094;
7047;117.013409;406.714;186.429;11.4622;397.996;197.512;0;40;1;0.066807;-0.723615;-1.70313;0.00420355;-0.736009;-1.62446;1.97981;0.0656742;-0.983949;-2.1536;3.73595;-4.39318;
7048;117.030107;402.25;181.75;11.4148;392.17;192.373;0;41;1;0.0865659;-0.708932;-1.7204;0.0289123;-0.727886;-1.65324;1.8862;0.155377;-1.18494;-2.97319;4.50098;-6.08963;
7049;117.046804;399.231;175.231;11.3025;387.293;186.583;0;42;1;0.100732;-0.691088;-1.75185;0.0504583;-0.716846;-1.68282;1.7779;0.242967;-1.35859;-3.77265;5.02682;-7.48898;
7050;117.063501;396.727;169.091;10.9943;383.264;180.448;0;43;1;0.1149;-0.686369;-1.81487;0.0697907;-0.707703;-1.72244;1.65986;0.317828;-1.54652;-4.56939;5.23583;-8.73326;
7051;117.080198;394.714;164.429;10.5654;380.005;174.542;0;44;1;0.129055;-0.695191;-1.89953;0.0875698;-0.703949;-1.77556;1.54657;0.356747;-1.79104;-5.23368;5.08095;-9.99991;
7052;117.096895;395;159;10.4713;378.027;168.569;0;45;1;0.128855;-0.679069;-1.9295;0.0999554;-0.696485;-1.82174;1.41738;0.393062;-1.99696;-5.77515;4.72485;-10.9074;
7053;117.113592;394.75;154.5;10.4506;376.805;162.851;0;46;1;0.130302;-0.661834;-1.94404;0.109059;-0.68609;-1.85843;1.26908;0.435149;-2.13237;-6.30279;4.31011;-11.1298;
7054;117.13029;396;149.429;9.99679;376.597;157.146;0;47;1;0.129988;-0.669992;-2.04492;0.115338;-0.68126;-1.91438;1.10652;0.447252;-2.32207;-6.89468;3.75144;-11.2181;
7055;117.146986;398;144;9.77124;377.356;151.344;0;48;1;0.122793;-0.661486;-2.10596;0.117575;-0.675328;-1.97185;0.93189;0.434123;-2.54725;-7.51471;3.01409;-11.4768;
7056;117.163684;399.75;139.75;9.49848;378.724;145.856;0;49;1;0.117142;-0.661176;-2.17757;0.117445;-0.671082;-2.03357;0.749403;0.40669;-2.7706;-8.14403;2.16326;-11.7735;
7057;117.18038;402.4;135;9.47075;380.808;140.442;0;50;1;0.103546;-0.641471;-2.19643;0.113275;-0.662199;-2.08243;0.552276;0.410712;-2.88757;-8.85635;1.51342;-11.4422;
7058;117.197078;405.6;128;9.09762;383.574;134.374;0;51;1;0.090272;-0.634582;-2.30567;0.106374;-0.653914;-2.1494;0.356994;0.416402;-3.04077;-9.54762;1.00124;-11.033;
7059;117.213775;407.6;122.8;8.82986;386.438;128.411;0;52;1;0.0817265;-0.628415;-2.39025;0.0989799;-0.646264;-2.22165;0.173953;0.408853;-3.2747;-10.1011;0.495751;-11.1808;
7060;117.230472;410;118;8.71691;389.486;122.658;0;53;1;0.0690706;-0.612799;-2.43493;0.0900071;-0.636225;-2.28564;0.00323279;0.425125;-3.44713;-10.4658;0.209105;-11.2005;
7061;117.247169;413.231;110.769;8.56939;392.919;116.291;0;54;1;0.0514794;-0.586942;-2.49785;0.0784488;-0.62144;-2.3493;-0.154278;0.470234;-3.57532;-10.6162;0.269646;-10.8251;
7062;117.263866;416;104;8.47259;396.468;109.631;0;55;1;0.0357863;-0.559175;-2.54628;0.0656501;-0.60276;-2.40839;-0.299367;0.55493;-3.64176;-10.5572;0.753664;-9.9733;
7063;117.280563;418.222;98.6667;8.53183;399.914;103.223;0;56;1;0.0225633;-0.52832;-2.54416;0.052724;-0.580428;-2.44912;-0.421384;0.659444;-3.64916;-10.2218;1.44531;-9.02477;
7064;117.29726;421.818;90.7273;8.44956;403.709;96.1759;0;57;1;0.00158359;-0.492923;-2.59232;0.0373819;-0.554177;-2.49208;-0.528296;0.793888;-3.55772;-9.66781;2.37438;-7.4789;
7065;117.313957;424.222;82.6667;8.33482;407.364;88.6326;0;58;1;-0.0127625;-0.457981;-2.65208;0.0223386;-0.525318;-2.54008;-0.622985;0.959237;-3.40603;-8.98263;3.62216;-5.01169;
7066;117.330655;426;77;8.22462;410.706;81.4999;0;59;1;-0.0237007;-0.43439;-2.70477;0.00852679;-0.498039;-2.58949;-0.699118;1.12728;-3.25681;-8.19386;4.97678;-2.24709;
7067;117.347351;428.571;70;8.21723;414.06;74.2484;0;60;1;-0.0393102;-0.398025;-2.72841;-0.00582432;-0.468035;-2.63116;-0.755949;1.28887;-3.07948;-7.31861;6.25463;0.631479;
7068;117.364049;430;61;8.00698;417.048;66.2798;0;61;1;-0.0492299;-0.359978;-2.82803;-0.018846;-0.435618;-2.69022;-0.790938;1.44067;-2.97296;-6.35387;7.2893;3.04922;
7069;117.380746;431;53.2;7.99411;419.624;58.1813;0;62;1;-0.0555403;-0.318458;-2.85687;-0.0298543;-0.40047;-2.74022;-0.804274;1.58292;-2.94603;-5.34109;8.06077;4.63691;
7070;117.397443;432;48;8.13085;421.891;50.8251;0;63;1;-0.0607327;-0.285508;-2.82475;-0.0391178;-0.365982;-2.76558;-0.788005;1.70116;-2.85961;-4.2416;8.45894;5.56953;
7071;117.41414;434.222;38.6667;8.05091;424.316;42.6974;0;64;1;-0.0750853;-0.238323;-2.88165;-0.0499081;-0.327684;-2.8004;-0.761263;1.80979;-2.75514;-3.09706;8.47138;5.94053;
7072;117.430837;437;31;7.9651;427.024;34.5475;0;65;1;-0.0932663;-0.199361;-2.93666;-0.0629155;-0.289187;-2.84128;-0.742006;1.91976;-2.65841;-2.02948;8.24699;5.95355;
7073;117.447534;440.222;26.6667;8.02624;430.073;27.4524;0;66;1;-0.112554;-0.174547;-2.92773;-0.0778071;-0.254795;-2.86721;-0.73261;2.00326;-2.53753;-1.1245;7.80056;5.73599;
7074;117.464231;444;19.4286;7.85104;433.537;20.2019;0;67;1;-0.139035;-0.138664;-3.01601;-0.0961754;-0.219956;-2.91185;-0.748319;2.06303;-2.40742;-0.504535;7.16524;5.69961;
7075;117.480928;449.6;12.6;7.87917;437.876;12.9748;0;68;1;-0.173942;-0.100775;-3.02682;-0.119505;-0.184202;-2.94634;-0.806944;2.10132;-2.26746;-0.313379;6.36895;6.12914;
7076;117.497626;455.333;8.66667;7.85128;442.883;6.69203;0;69;1;-0.210936;-0.0795172;-3.05005;-0.146935;-0.152796;-2.97745;-0.914647;2.11198;-2.20644;-0.693671;5.46164;6.28539;
7077;117.514322;460.667;4.22222;7.90628;448.237;0.936021;0;70;1;-0.243071;-0.0547093;-3.04282;-0.175776;-0.12337;-2.99706;-1.05134;2.08295;-2.10909;-1.5744;4.36763;6.35071;
7078;117.53102;467.333;0.666667;7.71289;454.256;-4.15284;0;71;1;-0.292222;-0.0361909;-3.13059;-0.21071;-0.0972164;-3.03712;-1.2209;2.01626;-2.04741;-2.85674;3.00586;6.24998;
7079;117.547717;467.333;0.666667;7.71289;454.451;-9.15931;1;0;1;-0.292222;-0.0361909;-3.13059;-0.21071;-0.0972164;-3.03712;-1.2209;2.01626;-2.04741;-2.85674;3.00586;6.24998;
7080;117.564414;467.333;0.666667;7.71289;454.646;-14.166;2;0;1;-0.292222;-0.0361909;-3.13059;-0.21071;-0.0972164;-3.03712;-1.2209;2.01626;-2.04741;-2.85674;3.00586;6.24998;
7081;117.581111;467.333;0.666667;7.71289;454.84;-19.1724;3;0;1;-0.292222;-0.0361909;-3.13059;-0.21071;-0.0972164;-3.03712;-1.2209;2.01626;-2.04741;-2.85674;3.00586;6.24998;
7082;117.597808;467.333;0.666667;7.71289;455.035;-24.1792;4;0;1;-0.292222;-0.0361909;-3.13059;-0.21071;-0.0972164;-3.03712;-1.2209;2.01626;-2.04741;-2.85674;3.00586;6.24998;
7083;117.614505;467.333;0.666667;7.71289;455.229;-29.1856;5;0;1;-0.292222;-0.0361909;-3.13059;-0.21071;-0.0972164;-3.03712;-1.2209;2.01626;-2.04741;-2.85674;3.00586;6.24998;
7084;117.631202;467.333;0.666667;7.71289;455.424;-34.1923;6;0;1;-0.292222;-0.0361909;-3.13059;-0.21071;-0.0972164;-3.03712;-1.2209;2.01626;-2.04741;-2.85674;3.00586;6.24998;
7085;117.647899;467.333;0.666667;7.71289;455.619;-39.1988;7;0;1;-0.292222;-0.0361909;-3.13059;-0.21071;-0.0972164;-3.03712;-1.2209;2.01626;-2.04741;-2.85674;3.00586;6.24998;
7086;117.664597;467.333;0.666667;7.71289;455.813;-44.2055;8;0;1;-0.292222;-0.0361909;-3.13059;-0.21071;-0.0972164;-3.03712;-1.2209;2.01626;-2.04741;-2.85674;3.00586;6.24998;
7087;117.681293;467.333;0.666667;7.71289;456.008;-49.2119;9;0;1;-0.292222;-0.0361909;-3.13059;-0.21071;-0.0972164;-3.03712;-1.2209;2.01626;-2.04741;-2.85674;3.00586;6.24998;
7088;117.697991;467.333;0.666667;7.71289;-1;-1;10;0;0;0;0;0;0;0;0;0;0;0;0;0;0;
7089;117.714687;466;405;6.29402;466;405;0;1;1;-0.347546;-2.81615;-2.23713;-0.347546;-2.81615;-2.23713;0;0;0;0;0;0;
7090;117.731385;465.143;404.905;5.29629;466;405;1;0;1;-0.347546;-2.81615;-2.23713;-0.347546;-2.81615;-2.23713;0;0;0;0;0;0;
7091;117.748082;460.789;416.421;6.29799;466;405;2;0;1;-0.347546;-2.81615;-2.23713;-0.347546;-2.81615;-2.23713;0;0;0;0;0;0;
7092;117.764779;457.8;434.8;5.99724;466;405;3;0;1;-0.347546;-2.81615;-2.23713;-0.347546;-2.81615;-2.23713;0;0;0;0;0;0;
7093;117.781476;451;445;6.00192;466;405;4;0;1;-0.347546;-2.81615;-2.23713;-0.347546;-2.81615;-2.23713;0;0;0;0;0;0;
7094;117.798173;448;447;5.97964;466;405;5;0;1;-0.347546;-2.81615;-2.23713;-0.347546;-2.81615;-2.23713;0;0;0;0;0;0;
7095;117.81487;448;447;5.97964;466;405;6;0;1;-0.347546;-2.81615;-2.23713;-0.347546;-2.81615;-2.23713;0;0;0;0;0;0;
7096;117.831568;448;450;6.32811;458.371;424.071;0;1;1;-0.203982;-3.10781;-2.04806;-0.304477;-2.90365;-2.18041;0;0;0;0;0;0;
7097;117.848264;449;453;5.88775;458.31;424.224;1;0;1;-0.203982;-3.10781;-2.04806;-0.304477;-2.90365;-2.18041;0;0;0;0;0;0;
7098;117.864962;452.455;451.909;6.28168;458.249;424.377;2;0;1;-0.203982;-3.10781;-2.04806;-0.304477;-2.90365;-2.18041;0;0;0;0;0;0;
7099;117.881661;452.857;453.524;6.39014;458.188;424.529;3;0;1;-0.203982;-3.10781;-2.04806;-0.304477;-2.90365;-2.18041;0;0;0;0;0;0;
7100;117.898359;452.414;458.207;6.47959;458.127;424.682;4;0;1;-0.203982;-3.10781;-2.04806;-0.304477;-2.90365;-2.18041;0;0;0;0;0;0;
7101;117.915055;450.6;462.05;6.44172;458.066;424.835;5;0;1;-0.203982;-3.10781;-2.04806;-0.304477;-2.90365;-2.18041;0;0;0;0;0;0;
7102;117.931753;450.14;467.814;6.4982;458.005;424.988;6;0;1;-0.203982;-3.10781;-2.04806;-0.304477;-2.90365;-2.18041;0;0;0;0;0;0;
7103;117.948449;449.273;469.273;6.31336;457.944;425.14;7;0;1;-0.203982;-3.10781;-2.04806;-0.304477;-2.90365;-2.18041;0;0;0;0;0;0;
7104;117.965147;448.56;471.36;6.42786;457.883;425.293;8;0;1;-0.203982;-3.10781;-2.04806;-0.304477;-2.90365;-2.18041;0;0;0;0;0;0;
7105;117.981844;447.231;471.077;6.40939;457.822;425.446;9;0;1;-0.203982;-3.10781;-2.04806;-0.304477;-2.90365;-2.18041;0;0;0;0;0;0;
7106;117.998541;445.333;469.333;6.37348;-1;-1;10;0;0;0;0;0;0;0;0;0;0;0;0;0;0;
