rs_id;elapsed;imLx_insect;imLy_insect;disparity_insect;size_insect;score_insect;motion_sum_insect;imLx_pred_insect;imLy_pred_insect;n_frames_lost_insect;n_frames_tracking_insect;foundL_insect;pos_valid_insect;posX_insect;posY_insect;posZ_insect;sposX_insect;sposY_insect;sposZ_insect;vel_valid_insect;svelX_insect;svelY_insect;svelZ_insect;acc_valid_insect;saccX_insect;saccY_insect;saccZ_insect;radius_insect;fp;hunt_id;light_level;
265450;2953.776701;684;422;57;2.82843;0;15;-1;-1;0;1;1;1;-0.427773;-0.652114;-0.428313;-0.427773;-0.652114;-0.428313;0;0;0;0;0;0;0;0;0.0023589;fp_not_a_fp;-1;0.205521;
265451;2953.787828;684;422;59.4523;2;0.0892857;6;684;422;0;2;1;1;-0.410129;-0.625216;-0.410646;-0.418951;-0.638665;-0.41948;1;0.202259;0.308332;0.202514;0;0;0;0;0.00159919;fp_not_a_fp;-1;0.205543;
265452;2953.798957;680;424;59.4662;2;0.117467;12;684;422;0;3;1;1;-0.403661;-0.627761;-0.408739;-0.413854;-0.63503;-0.4159;1;0.334184;0.367257;0.282232;0;11.8547;5.29493;7.16345;0.00159882;fp_not_a_fp;-1;0.205478;
265453;2953.810084;678;424;59.5298;2.82843;0.0918652;13;679.458;424.271;0;4;1;1;-0.400036;-0.62711;-0.40829;-0.410399;-0.63305;-0.413997;1;0.38763;0.352223;0.284327;0;8.32889;1.97194;3.67587;0.00225864;fp_not_a_fp;-1;0.205523;
265454;2953.821211;674;424;59.4803;2.82843;0.115968;14;677.042;424.344;0;5;1;1;-0.393975;-0.627671;-0.408604;-0.40195;-0.626939;-0.40907;1;0.429748;0.29466;0.245329;0;6.81432;-0.409766;1.28234;0.00226054;fp_not_a_fp;-1;0.205522;
265455;2953.832340;672;426;59.5599;2;0.111851;15;672.463;424.329;0;6;1;1;-0.390279;-0.6295;-0.406263;-0.396987;-0.62801;-0.407974;1;0.434701;0.212318;0.224751;0;5.222;-2.15713;0.49947;0.00159631;fp_not_a_fp;-1;0.205537;
265456;2953.843467;670;426;59.5721;2.82843;0.0870303;18;670.165;426.548;0;7;1;1;-0.387007;-0.62939;-0.406167;-0.392824;-0.628418;-0.407331;1;0.418809;0.15247;0.188685;1;1.90127;-4.8255;-2.1017;0.00225705;fp_not_a_fp;-1;0.205533;
265457;2953.854594;668;428;59.6291;2;0.108096;12;667.848;426.597;0;8;1;1;-0.383471;-0.631453;-0.403986;-0.388683;-0.629503;-0.406255;1;0.399349;0.0846367;0.174713;1;0.26331;-6.01173;-2.46269;0.00159445;fp_not_a_fp;-1;0.20549;
265458;2953.865723;664;428;59.8757;2.82843;0.103719;13;665.826;428.807;0;9;1;1;-0.375541;-0.628892;-0.402296;-0.384074;-0.629809;-0.404678;1;0.431267;0.0751702;0.166016;1;0.0340338;-4.9311;-1.78189;0.0022456;fp_not_a_fp;-1;0.205516;
265459;2953.876850;662;428;59.6358;2.82843;0.0908211;18;661.568;428.791;0;10;1;1;-0.373863;-0.631441;-0.403902;-0.37997;-0.630294;-0.404088;1;0.40868;0.0324491;0.122844;1;-0.584694;-4.04115;-2.28959;0.00225464;fp_not_a_fp;-1;0.205518;
265460;2953.887977;660;430;60.0962;2;0.108331;23;659.533;428.647;0;11;1;1;-0.367858;-0.629248;-0.399029;-0.375183;-0.630258;-0.402303;1;0.416053;0.0357903;0.145189;1;-0.0619913;-2.62145;-0.977243;0.00158204;fp_not_a_fp;-1;0.205506;
265461;2953.899106;658;430;60.0152;2.82843;0.0305098;22;657.553;430.802;0;12;1;1;-0.365186;-0.630116;-0.399555;-0.370612;-0.629924;-0.401196;1;0.396656;0.0226529;0.129879;1;-0.0605659;-1.39258;-1.00726;0.00224037;fp_not_a_fp;-1;0.205516;
265462;2953.910233;656;430;60.186;2.82843;0.0250605;24;655.629;430.727;0;13;1;1;-0.36099;-0.628347;-0.398408;-0.366974;-0.629788;-0.400223;1;0.386144;0.0346199;0.120135;1;-1.01376;-0.911052;-1.03082;0.00223403;fp_not_a_fp;-1;0.205524;
265463;2953.921360;652;432;60.3152;2;0.0575312;27;653.73;430.605;0;14;1;1;-0.353935;-0.629655;-0.395769;-0.361992;-0.629341;-0.39819;1;0.413418;0.0201513;0.131025;1;0.106473;-0.276261;0.183834;0.0015763;fp_not_a_fp;-1;0.205578;
265464;2953.932488;650;432;60.4247;2.82843;0.0262339;32;649.511;432.769;0;15;1;1;-0.350147;-0.628532;-0.395039;-0.357565;-0.629162;-0.397193;1;0.415385;0.0244692;0.127185;1;-0.0149791;-0.254318;-0.40449;0.00222519;fp_not_a_fp;-1;0.205493;
265465;2953.943616;648;432;60.4787;2.82843;0.0255917;21;647.482;432.706;0;16;1;1;-0.34669;-0.62799;-0.394674;-0.35294;-0.628631;-0.395972;1;0.402834;0.0293474;0.113564;1;0.138827;0.150402;-0.366536;0.00222321;fp_not_a_fp;-1;0.205533;
265466;2953.954744;644;434;60.5681;2;0.0555501;32;645.534;432.589;0;17;1;1;-0.339922;-0.629706;-0.392314;-0.347673;-0.628971;-0.394449;1;0.423841;0.00795121;0.120503;1;0.846968;-0.59917;0.00830106;0.00156973;fp_not_a_fp;-1;0.205522;
265467;2953.965871;642;434;60.6456;2.82843;0.0272846;42;641.321;434.757;0;18;1;1;-0.336353;-0.628921;-0.3918;-0.343278;-0.628787;-0.393457;1;0.419376;0.00709308;0.113888;1;0.133886;-0.293385;-0.385004;0.0022171;fp_not_a_fp;-1;0.205509;
265468;2953.976999;640;434;60.7663;2.82843;0.0224019;36;639.351;434.696;0;19;1;1;-0.332555;-0.62769;-0.391008;-0.33888;-0.628577;-0.392449;1;0.407567;0.0199453;0.105699;1;-0.175598;-0.101671;-0.482678;0.00221269;fp_not_a_fp;-1;0.205548;
265469;2953.988127;636;436;60.7235;2;0.0548275;33;637.441;434.583;0;20;1;1;-0.32655;-0.630769;-0.389511;-0.333845;-0.629271;-0.391158;1;0.419542;-0.0125777;0.105997;1;0.375405;-0.941966;-0.170007;0.00156571;fp_not_a_fp;-1;0.205529;
265470;2953.999254;634;436;60.812;2.82843;0.0276848;39;633.264;436.75;0;21;1;1;-0.322948;-0.62987;-0.388932;-0.329601;-0.629312;-0.390313;1;0.412264;-0.0141147;0.0992394;1;-0.260092;-0.495795;-0.477724;0.00221102;fp_not_a_fp;-1;0.20553;
265471;2954.010382;630;436;60.84;4.47214;0.0840957;36;631.313;436.692;0;22;1;1;-0.316549;-0.629618;-0.388728;-0.32465;-0.629487;-0.389545;1;0.430019;-0.0100591;0.0861314;1;0.239097;-0.385405;-0.623556;0.00349431;fp_not_a_fp;-1;0.205564;
265472;2954.021510;628;438;61.2184;2;0.0580741;27;627.132;436.579;0;23;1;1;-0.311509;-0.628322;-0.384579;-0.319389;-0.629645;-0.387937;1;0.44028;0.00775207;0.117285;1;0.734921;-0.273969;0.260324;0.00155305;fp_not_a_fp;-1;0.205532;
265473;2954.032637;624;438;60.9055;4.47214;0.07931;36;625.15;438.752;0;24;1;1;-0.306865;-0.631588;-0.386529;-0.314468;-0.629849;-0.387192;1;0.441593;-0.0233076;0.0928442;1;0.49537;-0.241092;-0.295482;0.00349054;fp_not_a_fp;-1;0.205544;
265474;2954.043765;622;438;61.2287;2.82843;0.0169668;35;621.03;438.689;0;25;1;1;-0.30214;-0.628272;-0.384476;-0.309265;-0.62945;-0.386078;1;0.439971;0.00482817;0.0944326;1;0.622461;0.425512;-0.107984;0.00219597;fp_not_a_fp;-1;0.20552;
265475;2954.054893;620;440;61.1664;4.47214;0.0723382;39;619.083;438.58;0;26;1;1;-0.299362;-0.631511;-0.38312;-0.304969;-0.629923;-0.384676;1;0.415026;-0.0212842;0.0985834;1;-0.336839;-0.252261;0.279743;0.00347567;fp_not_a_fp;-1;0.20553;
265476;2954.066020;616;440;61.2311;2.82843;0.0269807;47;617.263;440.748;0;27;1;1;-0.292834;-0.630881;-0.38269;-0.3003;-0.630563;-0.384204;1;0.4266;-0.0221415;0.092654;1;-0.307339;-0.671686;-0.553396;0.00219589;fp_not_a_fp;-1;0.205523;
265477;2954.077148;612;440;61.3933;2.82843;0.0289455;47;613.139;440.69;0;28;1;1;-0.285866;-0.629252;-0.381654;-0.29505;-0.629979;-0.382985;1;0.456835;-0.000997806;0.0902611;1;0.342398;0.501137;-0.0580362;0.0021901;fp_not_a_fp;-1;0.205571;
265478;2954.088276;610;442;61.3137;4.47214;0.0632077;56;608.933;440.579;0;29;1;1;-0.283159;-0.632661;-0.380406;-0.290305;-0.631076;-0.381968;1;0.442098;-0.0312047;0.0920664;1;0.047734;-0.809602;-0.0531568;0.00346729;fp_not_a_fp;-1;0.205525;
265479;2954.099403;606;442;61.46;4.47214;0.051019;51;606.993;442.746;0;30;1;1;-0.276297;-0.631192;-0.379476;-0.284539;-0.630996;-0.381057;1;0.458271;-0.0228775;0.0917341;1;0.971518;-0.0358492;-0.153879;0.00345905;fp_not_a_fp;-1;0.205552;
265480;2954.110531;602;442;61.3522;2.82843;0.041073;40;602.847;442.69;0;31;1;1;-0.270584;-0.632339;-0.380117;-0.278977;-0.631361;-0.380413;1;0.471984;-0.0296549;0.0725448;1;1.01957;-0.16884;-0.45175;0.00219156;fp_not_a_fp;-1;0.205537;
265481;2954.121659;600;444;61.4327;4;0.0361553;49;598.688;442.576;0;32;1;1;-0.267157;-0.634097;-0.377879;-0.274299;-0.632572;-0.379469;1;0.456733;-0.0488326;0.0810129;1;-0.00230682;-1.0747;-0.207741;0.00309526;fp_not_a_fp;-1;0.20554;
265482;2954.132786;596;444;61.548;2;0.0812161;38;596.816;444.745;0;33;1;1;-0.260478;-0.632947;-0.377146;-0.268629;-0.632644;-0.378655;1;0.468737;-0.0373428;0.082581;1;0.59849;-0.137883;-0.21307;0.00154473;fp_not_a_fp;-1;0.205552;
265483;2954.143914;592;444;61.4355;2.82843;0.0386184;42;592.727;444.688;0;34;1;1;-0.254765;-0.634143;-0.377812;-0.263246;-0.633381;-0.378239;1;0.479392;-0.0415447;0.0650675;1;0.4745;-0.419367;-0.599046;0.00218859;fp_not_a_fp;-1;0.205518;
265484;2954.155042;590;444;61.4407;4.47214;0.052672;39;588.607;444.575;0;35;1;1;-0.251648;-0.634108;-0.377767;-0.258512;-0.633824;-0.377651;1;0.458371;-0.037579;0.0500421;1;-0.305855;-0.178017;-0.505531;0.00346014;fp_not_a_fp;-1;0.20555;
265485;2954.166169;588;444;61.7424;2.82843;0.0419318;51;586.764;444.456;0;36;1;1;-0.247339;-0.631028;-0.375909;-0.253557;-0.633057;-0.377158;1;0.440617;0.00415982;0.0587536;1;-0.362119;1.19061;-0.500058;0.00217771;fp_not_a_fp;-1;0.205557;
265486;2954.177298;584;446;61.8347;2;0.0852212;31;584.971;444.318;0;37;1;1;-0.240842;-0.632674;-0.373606;-0.248648;-0.632988;-0.376273;1;0.451546;0.00200854;0.081251;1;-0.386275;0.884137;-0.0298871;0.00153758;fp_not_a_fp;-1;0.205511;
265487;2954.188425;582;444;61.9307;2.82843;0.0492069;39;580.932;446.509;0;38;1;1;-0.237376;-0.629165;-0.374729;-0.244301;-0.631744;-0.375503;1;0.438194;0.0410851;0.0673188;1;-0.925631;1.85646;0.0505413;0.0021711;fp_not_a_fp;-1;0.205524;
265488;2954.199552;580;444;61.9938;2.82843;0.028937;48;579.08;444.234;0;39;1;1;-0.234067;-0.628543;-0.374334;-0.239906;-0.630353;-0.374644;1;0.414715;0.0591269;0.0574923;1;-0.980885;2.17273;0.167335;0.00216889;fp_not_a_fp;-1;0.205479;
265489;2954.210680;578;446;62.1418;2;0.0773947;61;577.256;444.091;0;40;1;1;-0.230472;-0.629604;-0.371723;-0.235689;-0.629997;-0.373598;1;0.39332;0.0468869;0.076032;1;-1.06261;0.959991;0.388104;0.00152996;fp_not_a_fp;-1;0.205538;
265490;2954.221808;576;446;62.0649;2;0.0517861;57;575.419;446.31;0;41;1;1;-0.227694;-0.630402;-0.372171;-0.232402;-0.629429;-0.373239;1;0.366156;0.0266969;0.0688607;1;-1.91845;0.554712;-0.278417;0.00153186;fp_not_a_fp;-1;0.205527;
265491;2954.232935;574;446;62.2314;2;0.0466288;59;573.597;446.327;0;42;1;1;-0.224029;-0.628734;-0.371163;-0.229066;-0.629321;-0.372348;1;0.350233;0.0340685;0.0686695;1;-1.97619;-0.157598;0.0303012;0.00152777;fp_not_a_fp;-1;0.205535;
265492;2954.244064;570;446;62.291;2;0.0514221;59;571.714;446.326;0;43;1;1;-0.21771;-0.628169;-0.370783;-0.224976;-0.629227;-0.37146;1;0.371412;0.0392418;0.0641862;1;-0.97288;-0.446739;0.150365;0.00152631;fp_not_a_fp;-1;0.205519;
265493;2954.255191;568;446;62.4224;2;0.037931;56;567.51;446.283;0;44;1;1;-0.214205;-0.626865;-0.36999;-0.22091;-0.628543;-0.371026;1;0.372961;0.0513215;0.0632354;1;-0.457457;0.0996247;-0.287491;0.0015231;fp_not_a_fp;-1;0.205529;
265494;2954.266319;566;446;62.543;2;0.0337602;51;565.483;446.198;0;45;1;1;-0.210752;-0.625675;-0.369264;-0.216674;-0.627361;-0.3703;1;0.365613;0.0634116;0.0630957;1;-0.012248;0.82486;-0.129512;0.00152015;fp_not_a_fp;-1;0.205489;
265495;2954.277447;564;446;62.4201;2;0.0200613;59;563.534;446.138;0;46;1;1;-0.208121;-0.626925;-0.369978;-0.212697;-0.626909;-0.370004;1;0.346103;0.0459941;0.0468014;1;-0.0928051;0.267947;-0.491276;0.00152316;fp_not_a_fp;-1;0.205525;
265496;2954.288574;562;444;62.4801;2.82843;0.057003;73;561.621;446.095;0;47;1;1;-0.204856;-0.623817;-0.37131;-0.209483;-0.62582;-0.370136;1;0.331321;0.0685579;0.0188387;1;-0.900699;0.658667;-1.01879;0.002152;fp_not_a_fp;-1;0.205537;
265497;2954.299701;560;444;62.3808;2.82843;0.0324233;66;559.734;443.776;0;48;1;1;-0.202134;-0.624828;-0.371889;-0.206466;-0.625311;-0.37061;1;0.314154;0.0575427;-0.00175523;1;-1.32118;0.139792;-1.46012;0.00215543;fp_not_a_fp;-1;0.205582;
265498;2954.310830;558;444;62.3063;4.47214;0.0868523;74;557.819;443.675;0;49;1;1;-0.199324;-0.625594;-0.372321;-0.203608;-0.625291;-0.371374;1;0.299198;0.0368783;-0.0149954;1;-1.49208;-0.596062;-1.75443;0.00341208;fp_not_a_fp;-1;0.205504;
265499;2954.321957;554;444;62.4368;2.82843;0.0407912;83;555.88;443.675;0;50;1;1;-0.192816;-0.624323;-0.371518;-0.199782;-0.62464;-0.371759;1;0.329448;0.0381993;-0.0093515;1;-0.374152;-0.175089;-1.26156;0.00215349;fp_not_a_fp;-1;0.205574;
265500;2954.333085;552;444;62.4539;2.82843;0.0208274;88;551.628;443.716;0;51;1;1;-0.189719;-0.62417;-0.371404;-0.195998;-0.624729;-0.371783;1;0.335432;0.0356212;-0.0045189;1;0.0924059;-0.739949;-0.524754;0.0021529;fp_not_a_fp;-1;0.205546;
265501;2954.344213;550;444;62.3054;2.82843;0.0167949;84;549.573;443.801;0;52;1;1;-0.187119;-0.625676;-0.372276;-0.192244;-0.624941;-0.37188;1;0.324919;0.0127581;-0.0119446;1;0.241925;-1.00609;-0.228881;0.00215803;fp_not_a_fp;-1;0.205537;
265502;2954.355340;548;444;62.3156;2.82843;0.0121967;78;547.611;443.862;0;53;1;1;-0.184037;-0.625592;-0.372203;-0.188423;-0.62494;-0.37185;1;0.314457;0.00263875;-0.0126529;1;0.342847;-0.769211;0.0526471;0.00215769;fp_not_a_fp;-1;0.20548;
265503;2954.366468;544;444;62.2455;4.47214;0.0785173;93;545.674;443.904;0;54;1;1;-0.178135;-0.626334;-0.372598;-0.184752;-0.625443;-0.37212;1;0.337681;-0.0103807;-0.0158534;1;0.184999;-1.0914;-0.146065;0.00341541;fp_not_a_fp;-1;0.205504;
265504;2954.377595;542;444;62.3294;2.82843;0.0127155;80;541.492;443.934;0;55;1;1;-0.174844;-0.625509;-0.372083;-0.181034;-0.625778;-0.37229;1;0.341926;-0.00497919;-0.00925976;1;0.145919;-0.912128;-0.106499;0.00215719;fp_not_a_fp;-1;0.205489;
265505;2954.388724;540;444;62.2154;2.82843;0.0162481;78;539.478;443.955;0;56;1;1;-0.172109;-0.626674;-0.372753;-0.177281;-0.626027;-0.372409;1;0.331424;-0.0154631;-0.0130281;1;0.146175;-0.634028;-0.0243373;0.00216116;fp_not_a_fp;-1;0.205545;
265506;2954.399851;536;444;62.1561;4.47214;0.0605351;96;537.545;443.969;0;57;1;1;-0.166154;-0.627309;-0.373084;-0.17281;-0.626456;-0.372629;1;0.353062;-0.0251013;-0.0167154;1;0.867396;-0.623224;-0.0912675;0.00342032;fp_not_a_fp;-1;0.205552;
265507;2954.410978;534;444;62.3299;2.82843;0.0273387;89;533.346;443.979;0;58;1;1;-0.16264;-0.625577;-0.372031;-0.168937;-0.626267;-0.372488;1;0.357253;-0.00603718;-0.00403694;1;0.439765;0.0976112;0.265492;0.00215719;fp_not_a_fp;-1;0.20551;
265508;2954.422107;532;444;62.1303;2.82843;0.0270473;95;531.371;443.986;0;59;1;1;-0.160102;-0.627606;-0.373214;-0.165251;-0.626791;-0.37277;1;0.342506;-0.0206356;-0.011839;1;0.0130955;-0.351698;-0.0579201;0.00216411;fp_not_a_fp;-1;0.205518;
265509;2954.433234;528;444;61.9981;2.82843;0.0303716;110;529.474;443.99;0;60;1;1;-0.15431;-0.628981;-0.373985;-0.160802;-0.627368;-0.373078;1;0.359121;-0.0398055;-0.0223932;1;0.622313;-0.546866;-0.210384;0.00216873;fp_not_a_fp;-1;0.205534;
265510;2954.444361;526;444;61.9123;2.82843;0.0216201;96;525.301;443.993;0;61;1;1;-0.151453;-0.629871;-0.37449;-0.157126;-0.628009;-0.37343;1;0.352936;-0.0528518;-0.0296941;1;-0.00281858;-0.623432;-0.29157;0.00217173;fp_not_a_fp;-1;0.205544;
265511;2954.455490;522;444;61.7432;2.82843;0.0290211;113;523.354;443.996;0;62;1;1;-0.145708;-0.631633;-0.375491;-0.152893;-0.629523;-0.374295;1;0.371205;-0.0717006;-0.0403928;1;0.313453;-1.4752;-0.816774;0.00217768;fp_not_a_fp;-1;0.205525;
265512;2954.466617;518;444;61.5782;4.47214;0.0564499;105;519.183;443.997;0;63;1;1;-0.139923;-0.633363;-0.376472;-0.147848;-0.630962;-0.375109;1;0.397724;-0.0901679;-0.0509053;1;1.24055;-1.56215;-0.877685;0.00345241;fp_not_a_fp;-1;0.205559;
265513;2954.477745;516;444;61.5404;2.82843;0.03187;119;514.94;443.998;0;64;1;1;-0.136919;-0.633771;-0.376691;-0.143501;-0.632159;-0.375786;1;0.392384;-0.0909803;-0.0512683;1;0.747271;-1.14971;-0.648719;0.00218486;fp_not_a_fp;-1;0.205548;
265514;2954.488873;512;444;61.5154;2.82843;0.0250847;95;513.005;443.999;0;65;1;1;-0.130793;-0.634066;-0.376819;-0.138336;-0.633208;-0.376368;1;0.410347;-0.083089;-0.0463441;1;1.2898;-0.679323;-0.374066;0.00218575;fp_not_a_fp;-1;0.205537;
265515;2954.500000;510;444;61.3028;4.47214;0.0557602;99;508.878;443.999;0;66;1;1;-0.128144;-0.636283;-0.378113;-0.133945;-0.634371;-0.377024;1;0.395787;-0.0946486;-0.0532318;1;0.552237;-0.515587;-0.28846;0.00346793;fp_not_a_fp;-1;0.205526;
265516;2954.511128;506;444;61.4323;2.82843;0.0314846;99;507.01;443.999;0;67;1;1;-0.121684;-0.63498;-0.377291;-0.129385;-0.634775;-0.377228;1;0.413343;-0.0724087;-0.0398645;1;0.35088;0.39899;0.248052;0.0021887;fp_not_a_fp;-1;0.205522;
265517;2954.522256;504;444;61.0583;4.47214;0.0551844;102;502.929;444;0;68;1;1;-0.119315;-0.638888;-0.379589;-0.124984;-0.636054;-0.377953;1;0.395027;-0.0987741;-0.0555979;1;0.0593991;-0.175056;-0.0972444;0.00348184;fp_not_a_fp;-1;0.205551;
265518;2954.533384;500;444;60.7911;4.47214;0.0488441;94;501.054;444;0;69;1;1;-0.113584;-0.641734;-0.381232;-0.120682;-0.637971;-0.379056;1;0.402765;-0.129698;-0.0738447;1;-0.170304;-1.04707;-0.617808;0.00349714;fp_not_a_fp;-1;0.205514;
265519;2954.544511;496;444;60.7159;2.82843;0.0371842;111;496.985;444;0;70;1;1;-0.107461;-0.642566;-0.381679;-0.115511;-0.639542;-0.379948;1;0.424775;-0.135471;-0.0770832;1;0.651321;-0.917084;-0.535822;0.00221452;fp_not_a_fp;-1;0.205566;
265520;2954.555640;494;444;60.5703;4.47214;0.044692;91;492.804;444;0;71;1;1;-0.10458;-0.64413;-0.382584;-0.111235;-0.641829;-0.381271;1;0.41271;-0.138505;-0.0789628;1;-0.014158;-1.48491;-0.878376;0.00350989;fp_not_a_fp;-1;0.205521;
265521;2954.566767;490;444;60.5257;2;0.0834473;99;490.921;444;0;72;1;1;-0.098374;-0.644642;-0.38284;-0.106;-0.643268;-0.382084;1;0.426222;-0.127963;-0.0726036;1;0.700872;-0.655757;-0.382054;0.00157083;fp_not_a_fp;-1;0.205542;
265522;2954.577895;486;442;60.3964;2.82843;0.0538508;86;486.825;444;0;73;1;1;-0.0922651;-0.643448;-0.385391;-0.10067;-0.643697;-0.383123;1;0.447463;-0.0935993;-0.089959;1;1.00423;0.811007;-0.362026;0.00222624;fp_not_a_fp;-1;0.205494;
265523;2954.589023;484;442;60.2508;2.82843;0.0384153;92;482.69;441.718;0;74;1;1;-0.0893321;-0.645022;-0.386309;-0.0961377;-0.644311;-0.384281;1;0.432784;-0.0854958;-0.0961823;1;0.17998;1.12277;-0.429073;0.00223162;fp_not_a_fp;-1;0.205537;
265524;2954.600151;482;442;59.9055;4.47214;0.0481112;103;480.838;441.637;0;75;1;1;-0.0866729;-0.648759;-0.388523;-0.0916609;-0.645468;-0.385766;1;0.401997;-0.114079;-0.111862;1;-0.240666;0.548745;-0.73912;0.00354884;fp_not_a_fp;-1;0.205551;
265525;2954.611279;478;442;59.5286;2;0.0832656;89;479.065;441.651;0;76;1;1;-0.0808334;-0.652905;-0.390957;-0.0872758;-0.647534;-0.387795;1;0.404935;-0.158867;-0.131974;1;-0.47823;-0.69434;-1.33384;0.00159714;fp_not_a_fp;-1;0.205502;
265526;2954.622407;476;440;59.5275;2.82843;0.0428762;61;475.045;441.703;0;77;1;1;-0.0776173;-0.650286;-0.392734;-0.0836138;-0.649243;-0.389631;1;0.391361;-0.127089;-0.143816;1;-1.26039;-0.752463;-1.20996;0.00225874;fp_not_a_fp;-1;0.205521;
265527;2954.633534;474;440;59.4054;2.82843;0.0310684;66;473.183;439.513;0;78;1;1;-0.0745761;-0.651642;-0.393528;-0.0799248;-0.650898;-0.391436;1;0.370694;-0.113291;-0.139473;1;-1.39496;-0.624501;-0.972566;0.00226338;fp_not_a_fp;-1;0.20557;
265528;2954.644662;472;438;59.0822;2.82843;0.0329434;61;471.353;439.495;0;79;1;1;-0.0717422;-0.652555;-0.397464;-0.0761921;-0.651847;-0.393671;1;0.347353;-0.103607;-0.164999;1;-1.22765;0.235236;-1.19379;0.00227576;fp_not_a_fp;-1;0.205509;
265529;2954.655790;470;438;58.9111;4.47214;0.0598884;46;469.519;437.274;0;80;1;1;-0.068723;-0.65447;-0.398605;-0.0731645;-0.652238;-0.395583;1;0.328008;-0.108341;-0.167587;1;-1.72824;1.13512;-0.800076;0.00360875;fp_not_a_fp;-1;0.20552;
265530;2954.666918;466;436;58.6226;2.82843;0.0383399;53;467.685;437.274;0;81;1;1;-0.0625505;-0.655039;-0.402351;-0.0693978;-0.653427;-0.397987;1;0.348929;-0.103001;-0.190217;1;-0.953269;0.541187;-1.04248;0.00229361;fp_not_a_fp;-1;0.205534;
265531;2954.678046;464;436;58.4033;2.82843;0.0188062;59;463.527;435.121;0;82;1;1;-0.0595296;-0.657519;-0.403849;-0.0656362;-0.654896;-0.400567;1;0.347695;-0.116074;-0.192472;1;-0.51666;-0.062524;-1.19072;0.00230222;fp_not_a_fp;-1;0.20556;
265532;2954.689174;462;434;58.0654;2.82843;0.0255676;75;461.528;435.169;0;83;1;1;-0.0565775;-0.658647;-0.408013;-0.061845;-0.656419;-0.403204;1;0.336673;-0.119606;-0.216583;1;-0.239899;-0.359424;-1.15888;0.00231561;fp_not_a_fp;-1;0.205497;
265533;2954.700301;460;432;57.6783;2.82843;0.0239184;66;459.603;433.051;0;84;1;1;-0.0536366;-0.660352;-0.412578;-0.0580734;-0.657889;-0.406697;1;0.322886;-0.12535;-0.251245;1;-0.115061;-0.382129;-1.87949;0.00233115;fp_not_a_fp;-1;0.205547;
265534;2954.711429;458;432;57.4104;2.82843;0.0247136;64;457.7;430.849;0;85;1;1;-0.0505749;-0.663454;-0.41449;-0.0550795;-0.659993;-0.409732;1;0.311099;-0.147293;-0.255442;1;-0.849907;-0.995071;-1.46534;0.00234204;fp_not_a_fp;-1;0.20553;
265535;2954.722558;456;432;56.8323;0;0.13524;51;455.818;430.941;0;86;1;1;-0.0477436;-0.670223;-0.418692;-0.052133;-0.663169;-0.413443;1;0.298998;-0.215157;-0.272764;1;-1.09403;-2.22593;-1.80383;0;fp_not_a_fp;-1;0.205534;
265536;2954.733685;452;430;56.7153;2.82843;0.0330739;45;453.914;431.122;0;87;1;1;-0.0411123;-0.668863;-0.421399;-0.0482667;-0.665723;-0.41679;1;0.331872;-0.200172;-0.27616;1;-0.107842;-1.80994;-1.33848;0.00237074;fp_not_a_fp;-1;0.205508;
265537;2954.744813;450;430;56.585;2.82843;0.017417;39;449.691;429.061;0;88;1;1;-0.0378467;-0.670424;-0.422357;-0.0443193;-0.668241;-0.419234;1;0.340559;-0.186345;-0.253312;1;0.397075;-1.37024;-0.0464184;0.0023762;fp_not_a_fp;-1;0.205549;
265538;2954.755941;450;430;56.5536;2;0.0376838;40;447.641;429.183;0;89;1;1;-0.0378677;-0.670796;-0.422591;-0.0411425;-0.670076;-0.42126;1;0.30047;-0.161126;-0.214246;1;-0.238707;-0.310706;0.925495;0.00168116;fp_not_a_fp;-1;0.205534;
265539;2954.767069;448;428;56.3581;2.82843;0.0259432;48;447.945;429.336;0;90;1;1;-0.0346006;-0.670344;-0.425926;-0.0378567;-0.670107;-0.423068;1;0.283026;-0.124962;-0.208999;1;-0.358758;2.02633;1.43251;0.00238576;fp_not_a_fp;-1;0.205541;
265540;2954.778196;446;428;56.1539;2.82843;0.0271822;45;446.089;427.207;0;91;1;1;-0.0313403;-0.672802;-0.427461;-0.0354137;-0.671091;-0.424583;1;0.27709;-0.122258;-0.197771;1;-1.2307;1.75043;1.76106;0.00239444;fp_not_a_fp;-1;0.205512;
265541;2954.789325;444;428;55.9223;2.82843;0.0264235;55;444.176;427.285;0;92;1;1;-0.0280699;-0.675609;-0.429218;-0.0329695;-0.672388;-0.426299;1;0.276778;-0.137722;-0.18804;1;-1.43288;1.09239;1.46636;0.00240436;fp_not_a_fp;-1;0.205575;
265542;2954.800452;442;428;55.9262;2.82843;0.0250127;43;442.198;427.409;0;93;1;1;-0.024668;-0.675582;-0.429174;-0.0296696;-0.673584;-0.427944;1;0.28034;-0.126234;-0.159528;1;-0.45225;0.783906;1.2293;0.00240419;fp_not_a_fp;-1;0.205522;
265543;2954.811580;440;428;55.8081;2.82843;0.0233499;50;440.15;427.535;0;94;1;1;-0.0213131;-0.677032;-0.430068;-0.0263477;-0.675256;-0.42898;1;0.284511;-0.122011;-0.137651;1;0.0333559;0.0663232;1.60295;0.00240928;fp_not_a_fp;-1;0.205505;
265544;2954.822707;438;428;55.6397;2.82843;0.0215363;50;438.117;427.678;0;95;1;1;-0.0179601;-0.679102;-0.431356;-0.0230027;-0.676831;-0.429954;1;0.288378;-0.12843;-0.125815;1;0.253605;-0.138645;1.6166;0.00241657;fp_not_a_fp;-1;0.205525;
265545;2954.833836;436;428;55.7205;2.82843;0.0202739;47;436.095;427.778;0;96;1;1;-0.0145216;-0.678138;-0.430717;-0.0196156;-0.677464;-0.430328;1;0.292605;-0.103649;-0.0975461;1;0.355572;0.765453;2.03305;0.00241306;fp_not_a_fp;-1;0.205533;
265546;2954.844963;434;430;55.4916;2;0.0660138;55;434.07;427.848;0;97;1;1;-0.0111799;-0.6838;-0.430567;-0.0162436;-0.679518;-0.430677;1;0.295335;-0.145084;-0.0717091;1;0.33688;-0.423531;1.97297;0.00171333;fp_not_a_fp;-1;0.20558;
265547;2954.856091;432;430;55.4889;2;0.0379312;55;432.062;430.178;0;98;1;1;-0.00775367;-0.683853;-0.430574;-0.0128537;-0.681223;-0.430803;1;0.298065;-0.144314;-0.0519609;1;0.304518;-0.501122;1.92512;0.00171341;fp_not_a_fp;-1;0.205527;
265548;2954.867219;432;430;55.5145;2;0.0316547;63;430.049;430.293;0;99;1;1;-0.0077501;-0.683538;-0.430376;-0.0103012;-0.682332;-0.430558;1;0.261216;-0.121982;-0.0349018;1;-0.610176;0.144772;2.04245;0.00171262;fp_not_a_fp;-1;0.205544;
265549;2954.878347;430;430;55.4801;2.82843;0.0171115;59;430.321;430.304;0;100;1;1;-0.00432763;-0.683983;-0.430629;-0.00775271;-0.683793;-0.430536;1;0.251899;-0.102287;-0.0262976;1;-0.914448;0.0305478;1.60069;0.00242352;fp_not_a_fp;-1;0.205534;
265550;2954.889474;428;430;55.3512;2.82843;0.0175414;44;428.397;430.269;0;101;1;1;-0.000902444;-0.685596;-0.431617;-0.00518335;-0.684242;-0.430799;1;0.255182;-0.0995898;-0.0307184;1;-0.902038;1.02206;0.920886;0.00242916;fp_not_a_fp;-1;0.205527;
265551;2954.900603;426;430;55.2225;2.82843;0.0168607;57;426.382;430.189;0;102;1;1;0.00253872;-0.687214;-0.432609;-0.00261025;-0.685083;-0.431307;1;0.26343;-0.104325;-0.0399971;1;-0.778085;0.898373;0.268774;0.00243482;fp_not_a_fp;-1;0.205561;
265552;2954.911731;424;430;54.95;2.82843;0.015982;45;424.331;430.131;0;103;1;1;0.00601165;-0.690644;-0.434741;0.000830185;-0.686859;-0.432399;1;0.273048;-0.132286;-0.063164;1;0.265801;-0.23149;-0.634948;0.0024469;fp_not_a_fp;-1;0.205511;
265553;2954.922858;422;430;54.8169;2.82843;0.014802;59;422.246;430.09;0;104;1;1;0.00949498;-0.692341;-0.435782;0.00428584;-0.688948;-0.433687;1;0.282123;-0.146422;-0.0766147;1;0.679014;-0.991551;-1.13045;0.00245284;fp_not_a_fp;-1;0.205571;
265554;2954.933987;420;430;54.6621;2.82843;0.013947;55;420.185;430.062;0;105;1;1;0.0130004;-0.694323;-0.437002;0.00776156;-0.69113;-0.435033;1;0.290066;-0.156306;-0.0863878;1;0.78371;-1.27419;-1.25067;0.00245979;fp_not_a_fp;-1;0.20553;
265555;2954.945114;418;430;54.5317;2.82843;0.013393;64;418.142;430.042;0;106;1;1;0.0165184;-0.696005;-0.438033;0.0112565;-0.693328;-0.436389;1;0.296676;-0.159732;-0.091227;1;0.746917;-1.24479;-1.15096;0.00246567;fp_not_a_fp;-1;0.205562;
265556;2954.956242;416;430;54.2618;2.82843;0.0129712;49;416.112;430.029;0;107;1;1;0.0201048;-0.699487;-0.440197;0.0147798;-0.695539;-0.437753;1;0.302675;-0.18069;-0.106396;1;0.665622;-1.08745;-0.971267;0.00247793;fp_not_a_fp;-1;0.205539;
265557;2954.967370;416;430;54.3563;2.82843;0.00754319;44;414.096;430.02;0;108;1;1;0.0200699;-0.698272;-0.439433;0.0174235;-0.697022;-0.438666;1;0.266148;-0.152376;-0.0903292;1;-0.358869;-0.13379;-0.308122;0.00247362;fp_not_a_fp;-1;0.205551;
265558;2954.978498;414;430;54.1597;2.82843;0.00825258;36;414.353;430.013;0;109;1;1;0.0236536;-0.700828;-0.441013;0.0200868;-0.698648;-0.439669;1;0.258182;-0.150535;-0.0902879;1;-0.71626;0.129613;-0.0876471;0.0024826;fp_not_a_fp;-1;0.205535;
265559;2954.989625;412;430;54.1161;2.82843;0.00547117;45;412.426;430.009;0;110;1;1;0.0271863;-0.701414;-0.441354;0.0227537;-0.7;-0.440499;1;0.262454;-0.137286;-0.0826626;1;-0.768803;0.504244;0.192393;0.0024846;fp_not_a_fp;-1;0.205536;
265560;2955.000754;410;430;53.93;2.82843;0.00517237;56;410.403;430.006;0;111;1;1;0.0308059;-0.703855;-0.442863;0.025429;-0.701092;-0.441166;1;0.272229;-0.14228;-0.086255;1;-0.683995;0.862913;0.452493;0.00249318;fp_not_a_fp;-1;0.205528;
265561;2955.011882;408;430;53.7968;2.82843;0.00448129;35;408.349;430.004;0;112;1;1;0.0344166;-0.705619;-0.443945;0.0290157;-0.702928;-0.442294;1;0.282934;-0.146413;-0.0891403;1;0.377127;0.133966;0.0267203;0.00249935;fp_not_a_fp;-1;0.205545;
265562;2955.023009;406;430;53.586;2;0.0461793;37;406.256;430.003;0;113;1;1;0.0381005;-0.708417;-0.445677;0.0326274;-0.704826;-0.44346;1;0.293497;-0.161524;-0.0988257;1;0.793395;-0.246895;-0.191808;0.00177426;fp_not_a_fp;-1;0.205528;
265563;2955.034137;404;430;53.4426;2;0.0418186;33;404.193;430.002;0;114;1;1;0.0417607;-0.710339;-0.446859;0.036271;-0.707057;-0.444836;1;0.302379;-0.169195;-0.103761;1;0.896945;-0.716859;-0.474006;0.00177902;fp_not_a_fp;-1;0.205516;
265564;2955.045265;404;430;53.3589;0;0.11349;40;402.148;430.001;0;115;1;1;0.0418262;-0.711453;-0.44756;0.0390261;-0.708957;-0.44601;1;0.268231;-0.163558;-0.100602;1;-0.0898096;-0.478059;-0.322325;0;fp_not_a_fp;-1;0.205548;
265565;2955.056393;402;430;53.335;2.82843;0.0268177;37;402.395;430.001;0;116;1;1;0.0454101;-0.711794;-0.447746;0.0417745;-0.710501;-0.44696;1;0.260987;-0.14427;-0.0885985;1;-0.49309;0.0481583;0.0121822;0.00252099;fp_not_a_fp;-1;0.205517;
265566;2955.067521;400;430;53.1205;2.82843;0.0274122;34;400.45;430.001;0;117;1;1;0.0491729;-0.714689;-0.449539;0.0445426;-0.712069;-0.447926;1;0.267832;-0.151084;-0.0928898;1;-0.576638;0.234591;0.133379;0.00253117;fp_not_a_fp;-1;0.205488;
265567;2955.078649;398;430;52.8931;2;0.027224;48;398.424;430;0;118;1;1;0.0529792;-0.717784;-0.451457;0.0473472;-0.71393;-0.449075;1;0.280129;-0.170097;-0.1048;1;-0.499873;-0.0202503;-0.0233343;0.0017975;fp_not_a_fp;-1;0.205519;
265568;2955.089777;396;430;52.8031;2.82843;0.030743;43;396.367;430;0;119;1;1;0.0566706;-0.719029;-0.452212;0.0510583;-0.715824;-0.450238;1;0.291792;-0.17053;-0.105008;1;0.529322;-0.156621;-0.0989764;0.00254639;fp_not_a_fp;-1;0.205552;
265569;2955.100905;396;430;52.6383;2;0.0172826;45;394.268;430;0;120;1;1;0.056848;-0.72128;-0.453628;0.0539178;-0.718195;-0.451709;1;0.261428;-0.174767;-0.107931;1;0.00993873;-0.685127;-0.434323;0.0018062;fp_not_a_fp;-1;0.205533;
265570;2955.112033;394;430;52.5211;2;0.019155;48;394.481;430;0;121;1;1;0.0605953;-0.722912;-0.454626;0.0567734;-0.720251;-0.452981;1;0.258486;-0.172926;-0.106807;1;-0.209914;-0.49071;-0.312667;0.00181024;fp_not_a_fp;-1;0.205506;
265571;2955.123160;392;430;52.4705;2;0.0148354;35;392.514;430;0;122;1;1;0.0642775;-0.723631;-0.455049;0.0595979;-0.721713;-0.453879;1;0.26651;-0.158349;-0.0975754;1;-0.305937;0.263951;0.16233;0.00181198;fp_not_a_fp;-1;0.20551;
265572;2955.134289;390;428;52.3417;2.82843;0.0674779;36;390.464;430;0;123;1;1;0.0680948;-0.722418;-0.458181;0.062454;-0.72256;-0.455371;1;0.279583;-0.118225;-0.117209;1;-0.274265;1.17506;-0.27406;0.00256883;fp_not_a_fp;-1;0.205505;
265573;2955.145416;390;428;52.227;2;0.00794971;39;388.39;427.719;0;124;1;1;0.0682444;-0.724005;-0.459188;0.0653031;-0.723241;-0.456761;1;0.25104;-0.104758;-0.121911;1;-0.233406;1.57279;-0.314043;0.00182043;fp_not_a_fp;-1;0.205522;
265574;2955.156544;388;428;52.0297;2.82843;0.0441212;51;388.564;427.637;0;125;1;1;0.0721578;-0.726773;-0.460914;0.0681938;-0.724206;-0.458333;1;0.252082;-0.117558;-0.128097;1;-0.143922;1.24385;-0.478277;0.00258424;fp_not_a_fp;-1;0.205557;
265575;2955.167672;386;428;51.7616;2.82843;0.0286712;44;386.573;427.651;0;126;1;1;0.0762051;-0.73056;-0.463287;0.0711756;-0.725939;-0.460392;1;0.266748;-0.151257;-0.141509;1;0.00528964;0.159304;-0.98697;0.00259762;fp_not_a_fp;-1;0.205543;
265576;2955.178800;386;426;51.5676;2.82843;0.0468209;23;384.512;427.702;0;127;1;1;0.0765186;-0.730248;-0.467087;0.0732816;-0.727896;-0.462619;1;0.242378;-0.14232;-0.172565;1;-0.835906;-0.541281;-1.24365;0.0026074;fp_not_a_fp;-1;0.205557;
265577;2955.189927;384;426;51.552;2.82843;0.0313845;24;384.708;425.513;0;128;1;1;0.0802301;-0.730491;-0.467214;0.076278;-0.729518;-0.464625;1;0.243936;-0.123257;-0.164835;1;-0.159634;-0.415561;-0.964319;0.00260818;fp_not_a_fp;-1;0.205504;
265578;2955.201056;382;426;51.3526;2.82843;0.026934;29;382.672;425.494;0;129;1;1;0.0842444;-0.73335;-0.469012;0.0792996;-0.731162;-0.46665;1;0.259474;-0.13242;-0.161233;1;0.166032;-0.333809;-0.744433;0.00261831;fp_not_a_fp;-1;0.205548;
265579;2955.212183;382;424;50.98;2.82843;0.0426247;19;380.579;425.553;0;130;1;1;0.0848872;-0.735615;-0.474522;0.0814702;-0.732426;-0.469459;1;0.240169;-0.145281;-0.202335;1;-0.597169;0.13428;-1.36657;0.00263745;fp_not_a_fp;-1;0.205523;
265580;2955.223311;380;424;50.8499;2.82843;0.0249404;25;380.758;423.357;0;131;1;1;0.0888438;-0.737519;-0.475721;0.0845515;-0.734244;-0.471617;1;0.246909;-0.153898;-0.207254;1;0.101746;-0.2601;-0.77936;0.0026442;fp_not_a_fp;-1;0.205543;
265581;2955.234440;380;424;50.575;2.82843;0.00754319;30;378.71;423.387;0;132;1;1;0.0893268;-0.741529;-0.478307;0.0868256;-0.737003;-0.474391;1;0.223736;-0.183781;-0.212493;1;-0.453808;-1.3597;-1.07073;0.00265857;fp_not_a_fp;-1;0.205548;
265582;2955.245567;378;422;50.5054;2.82843;0.0275088;21;378.888;423.48;0;133;1;1;0.0932421;-0.739449;-0.481052;0.0890751;-0.738528;-0.477401;1;0.230502;-0.148852;-0.219018;1;-0.650859;-0.369117;-1.29823;0.00266223;fp_not_a_fp;-1;0.205525;
265583;2955.256695;378;422;50.2439;2.82843;0.00371551;25;376.854;421.306;0;134;1;1;0.0937273;-0.743297;-0.483555;0.0912851;-0.740448;-0.479659;1;0.209459;-0.159536;-0.222471;1;-0.68989;-0.320193;-0.452381;0.00267608;fp_not_a_fp;-1;0.205528;
265584;2955.267823;376;422;50.1079;2.82843;0.0162744;36;376.988;421.353;0;135;1;1;0.0977764;-0.745337;-0.484852;0.0935183;-0.742403;-0.481942;1;0.22046;-0.166991;-0.210389;1;-0.594152;-0.294077;-0.0704229;0.00268335;fp_not_a_fp;-1;0.20553;
265585;2955.278951;376;420;49.6609;2.82843;0.0249386;33;374.924;421.455;0;136;1;1;0.0986844;-0.748869;-0.491353;0.0958577;-0.744238;-0.485203;1;0.207293;-0.189249;-0.253072;1;-0.369386;-0.122778;-0.911568;0.0027075;fp_not_a_fp;-1;0.205506;
265586;2955.290079;374;420;49.5678;2.82843;0.0176586;39;375.04;419.293;0;137;1;1;0.102706;-0.7503;-0.492261;0.0982236;-0.746951;-0.488005;1;0.221509;-0.190709;-0.248839;1;-0.202012;-0.940338;-0.669885;0.00271259;fp_not_a_fp;-1;0.205526;
265587;2955.301206;374;420;49.5016;2.82843;7.3757e-08;38;372.962;419.344;0;138;1;1;0.102843;-0.751302;-0.492919;0.100503;-0.748952;-0.490346;1;0.200703;-0.178478;-0.222889;1;-0.196693;-0.425503;-0.00929472;0.00271621;fp_not_a_fp;-1;0.205565;
265588;2955.312335;372;420;49.4456;2.82843;0.0167589;39;373.058;419.448;0;139;1;1;0.106805;-0.752176;-0.493461;0.10276;-0.750662;-0.492499;1;0.211916;-0.160677;-0.189955;1;-0.191961;0.141864;0.459111;0.00271929;fp_not_a_fp;-1;0.205526;
265589;2955.323462;372;418;49.3102;2.82843;0.0262622;37;370.97;419.561;0;140;1;1;0.107126;-0.751041;-0.496968;0.10487;-0.751205;-0.493902;1;0.193202;-0.119819;-0.192312;1;-0.316601;1.55984;1.365;0.00272676;fp_not_a_fp;-1;0.205528;
265590;2955.334590;370;418;49.1357;2.82843;0.0170353;50;371.064;417.416;0;141;1;1;0.111377;-0.753734;-0.498718;0.107038;-0.752063;-0.495517;1;0.209546;-0.118508;-0.188818;1;-0.2688;1.62209;1.34842;0.00273644;fp_not_a_fp;-1;0.205524;
265591;2955.345719;370;418;48.7448;2.82843;7.3757e-08;47;368.974;417.429;0;142;1;1;0.11227;-0.759778;-0.502718;0.109395;-0.754182;-0.497966;1;0.19981;-0.172129;-0.209129;1;-0.0200784;0.142724;0.309117;0.00275839;fp_not_a_fp;-1;0.205548;
265592;2955.356846;368;416;48.5949;2.82843;0.0265168;41;369.073;417.511;0;143;1;1;0.116558;-0.758898;-0.506436;0.111833;-0.755863;-0.50121;1;0.219448;-0.162246;-0.23347;1;0.169239;-0.0351354;-0.977584;0.00276689;fp_not_a_fp;-1;0.205539;
265593;2955.367974;368;416;48.4144;2.82843;7.3757e-08;64;366.984;415.329;0;144;1;1;0.116992;-0.761727;-0.508324;0.114299;-0.758534;-0.504049;1;0.204553;-0.169892;-0.235388;1;0.255033;-1.12486;-0.967725;0.00277721;fp_not_a_fp;-1;0.205562;
265594;2955.379102;366;416;48.3024;2.82843;0.0178487;59;367.076;415.369;0;145;1;1;0.1212;-0.763518;-0.509487;0.116755;-0.76098;-0.506741;1;0.220537;-0.17191;-0.219491;1;0.246931;-1.19964;-0.689101;0.00278366;fp_not_a_fp;-1;0.205518;
265595;2955.390230;366;414;47.9664;2.82843;0.0255134;83;364.985;415.466;0;146;1;1;0.122078;-0.765575;-0.515267;0.119207;-0.762429;-0.509879;1;0.209073;-0.174401;-0.251181;1;0.208091;-0.0510391;-0.944787;0.00280315;fp_not_a_fp;-1;0.205549;
265596;2955.401358;366;414;47.6581;2;0.0428933;64;365.079;413.299;0;147;1;1;0.122868;-0.770529;-0.518601;0.120785;-0.765337;-0.51292;1;0.186721;-0.209964;-0.270453;1;-0.73527;-1.07204;-0.830896;0.00199495;fp_not_a_fp;-1;0.20556;
265597;2955.412486;364;412;47.5721;2.82843;0.0309583;83;365.268;413.35;0;148;1;1;0.127116;-0.768629;-0.521753;0.123315;-0.767063;-0.516277;1;0.20236;-0.176108;-0.280049;1;-0.0493093;-0.139711;-1.0034;0.00282638;fp_not_a_fp;-1;0.205527;
265598;2955.423614;364;412;47.4495;2.82843;0.00371551;91;363.161;411.177;0;149;1;1;0.127444;-0.770615;-0.523101;0.124877;-0.768837;-0.519681;1;0.186776;-0.16242;-0.263747;1;-0.75851;0.213178;-0.994272;0.00283369;fp_not_a_fp;-1;0.205492;
265599;2955.434741;364;412;47.1657;0;0.11651;82;363.253;411.207;0;150;1;1;0.128211;-0.775251;-0.526248;0.12641;-0.771256;-0.522426;1;0.165301;-0.189182;-0.259439;1;-0.983434;-0.332123;-0.185507;0;fp_not_a_fp;-1;0.205541;
265600;2955.445870;362;410;46.8938;2.82843;0.0463823;86;363.389;411.355;0;151;1;1;0.133039;-0.776407;-0.531547;0.128953;-0.772726;-0.525662;1;0.190678;-0.189365;-0.285299;1;0.08882;0.462736;-0.333477;0.00286727;fp_not_a_fp;-1;0.205532;
265601;2955.456997;362;408;46.6982;2.82843;0.0386431;92;361.247;409.223;0;152;1;1;0.133626;-0.776281;-0.536046;0.13058;-0.774638;-0.529236;1;0.183571;-0.163835;-0.311163;1;-0.422163;0.275753;-0.698972;0.00287928;fp_not_a_fp;-1;0.205554;
265602;2955.468125;362;408;46.5318;2.82843;0.017278;78;361.314;407.02;0;153;1;1;0.134104;-0.779056;-0.537962;0.132245;-0.776749;-0.532951;1;0.162696;-0.164204;-0.304134;1;-0.541034;-0.0400879;-0.907302;0.00288957;fp_not_a_fp;-1;0.205532;
265603;2955.479254;362;406;46.3431;2.82843;0.0351797;82;361.429;407.059;0;154;1;1;0.13468;-0.778824;-0.542443;0.133862;-0.777642;-0.537;1;0.139918;-0.140751;-0.313789;1;-0.570249;1.08805;-1.221;0.00290134;fp_not_a_fp;-1;0.205526;
265604;2955.490381;362;406;46.1029;2;0.0259226;89;361.55;404.92;0;155;1;1;0.135381;-0.782881;-0.545268;0.134448;-0.77926;-0.54043;1;0.1207;-0.159607;-0.310144;1;-1.57212;0.668532;-0.558164;0.00206224;fp_not_a_fp;-1;0.205573;
265605;2955.501508;360;404;45.894;2.82843;0.0518283;82;361.69;405.031;0;156;1;1;0.140171;-0.783031;-0.550046;0.136084;-0.780948;-0.54393;1;0.152264;-0.148767;-0.323839;1;-0.703288;0.338501;-0.284789;0.00292974;fp_not_a_fp;-1;0.205555;
265606;2955.512637;360;404;45.6796;2.82843;0.0215293;83;359.51;402.956;0;157;1;1;0.140828;-0.786707;-0.552628;0.137765;-0.782861;-0.547596;1;0.153428;-0.167437;-0.317786;1;-0.20816;-0.0726389;-0.306716;0.00294347;fp_not_a_fp;-1;0.205544;
265607;2955.523764;360;402;45.5151;2.82843;0.03505;98;359.497;403.057;0;158;1;1;0.141368;-0.786084;-0.556957;0.139437;-0.784676;-0.551225;1;0.140524;-0.146662;-0.324377;1;0.0136179;-0.132752;-0.2379;0.00295413;fp_not_a_fp;-1;0.205565;
265608;2955.534892;360;402;45.348;2.82843;0.017278;91;359.556;400.974;0;159;1;1;0.141889;-0.78898;-0.559009;0.141064;-0.786201;-0.55466;1;0.123237;-0.152563;-0.309245;1;0.0569983;0.158296;0.0201665;0.00296501;fp_not_a_fp;-1;0.205512;
265609;2955.546020;360;400;45.1533;2.82843;0.034407;112;359.637;401.069;0;160;1;1;0.142531;-0.788888;-0.563769;0.141654;-0.787665;-0.558091;1;0.107737;-0.134482;-0.318112;1;-1.00038;0.320954;0.128664;0.00297779;fp_not_a_fp;-1;0.205544;
265610;2955.557147;360;400;44.9021;2;0.0392779;106;359.749;398.982;0;161;1;1;0.143329;-0.793301;-0.566923;0.142279;-0.789313;-0.561664;1;0.096729;-0.160442;-0.317351;1;-1.27384;0.157161;0.00976948;0.00211738;fp_not_a_fp;-1;0.205511;
265611;2955.568274;360;398;44.7043;2;0.0525621;138;359.827;399.076;0;162;1;1;0.143994;-0.793281;-0.571805;0.142936;-0.791112;-0.565376;1;0.0874662;-0.150484;-0.332523;1;-1.19203;-0.0858822;-0.18301;0.00212676;fp_not_a_fp;-1;0.20555;
265612;2955.579403;358;398;44.6904;2.82843;0.0427381;79;359.882;396.988;0;163;1;1;0.148293;-0.793555;-0.571966;0.144537;-0.792256;-0.568616;1;0.121764;-0.130308;-0.298227;1;-0.0331475;0.499957;0.247478;0.00300863;fp_not_a_fp;-1;0.205541;
265613;2955.590530;358;396;44.5084;2.82843;0.0290465;87;357.641;397.075;0;164;1;1;0.148931;-0.793255;-0.576689;0.146137;-0.793348;-0.571846;1;0.127715;-0.101914;-0.300157;1;0.448764;0.731679;0.403338;0.00302094;fp_not_a_fp;-1;0.205585;
265614;2955.601657;358;396;44.392;2.82843;0.0114881;99;357.585;394.985;0;165;1;1;0.149321;-0.795334;-0.578201;0.147635;-0.793856;-0.574665;1;0.118358;-0.101013;-0.279994;1;0.485865;1.33516;0.839225;0.00302885;fp_not_a_fp;-1;0.205561;
265615;2955.612786;358;394;44.2603;2.82843;0.0252189;84;357.615;395.074;0;166;1;1;0.149797;-0.794137;-0.582319;0.149086;-0.79407;-0.577294;1;0.104847;-0.0740282;-0.283153;1;0.390448;1.71764;1.10913;0.00303788;fp_not_a_fp;-1;0.205528;
265616;2955.623913;358;394;44.2371;2.82843;0.00754319;95;357.677;392.982;0;167;1;1;0.149875;-0.794552;-0.582624;0.149481;-0.794319;-0.579958;1;0.0867884;-0.0581964;-0.251835;1;-0.785773;1.62009;1.04232;0.00303947;fp_not_a_fp;-1;0.205526;
265617;2955.635041;358;392;44.1292;2.82843;0.0244869;78;357.775;393.07;0;168;1;1;0.150273;-0.792919;-0.586453;0.149817;-0.794235;-0.582399;1;0.0728155;-0.0255169;-0.250664;1;-1.2334;1.71636;1.11199;0.00304689;fp_not_a_fp;-1;0.205553;
265618;2955.646169;358;392;43.9094;2.82843;0.00754319;72;357.844;390.977;0;169;1;1;0.151026;-0.79689;-0.58939;0.150243;-0.794624;-0.585197;1;0.0663784;-0.0542688;-0.251868;1;-1.1678;1.05019;0.631941;0.00306215;fp_not_a_fp;-1;0.205527;
265619;2955.657296;358;390;43.7571;2.82843;0.024569;51;357.893;391.071;0;170;1;1;0.151583;-0.796058;-0.593867;0.150689;-0.795105;-0.588084;1;0.0616395;-0.049688;-0.271553;1;-0.970739;0.546901;0.260618;0.00307281;fp_not_a_fp;-1;0.205581;
265620;2955.668423;358;390;43.6048;2.82843;0.00754319;85;357.927;388.98;0;171;1;1;0.152112;-0.798837;-0.59594;0.151249;-0.796176;-0.591412;1;0.0578852;-0.0733142;-0.268818;1;-0.649359;-0.339608;-0.381568;0.00308354;fp_not_a_fp;-1;0.205526;
265621;2955.679552;358;388;43.4318;2.82843;0.0206983;64;357.95;389.072;0;172;1;1;0.15275;-0.798386;-0.600757;0.151868;-0.797543;-0.594988;1;0.0562599;-0.0685592;-0.288612;1;-0.371945;-0.96699;-0.852561;0.00309581;fp_not_a_fp;-1;0.205566;
265622;2955.690679;358;388;43.3096;2.82843;7.3757e-08;87;357.966;386.983;0;173;1;1;0.153181;-0.80064;-0.602453;0.152407;-0.79848;-0.598254;1;0.0533556;-0.0836857;-0.279421;1;-0.292583;-0.660912;-0.619008;0.00310455;fp_not_a_fp;-1;0.205568;
265623;2955.701806;358;388;43.4316;2;0.0428933;58;357.977;387.074;0;174;1;1;0.152751;-0.79839;-0.60076;0.152699;-0.799063;-0.599977;1;0.0404141;-0.0534654;-0.220572;1;-0.476872;-0.0848585;1.14546;0.00218908;fp_not_a_fp;-1;0.205562;
265624;2955.712934;358;386;43.1656;2.82843;0.0237656;74;357.984;387.256;0;175;1;1;0.153724;-0.799656;-0.606921;0.153102;-0.799268;-0.602723;1;0.0410713;-0.0486701;-0.238743;1;-0.37776;0.553686;0.675754;0.00311492;fp_not_a_fp;-1;0.205503;
265625;2955.724062;358;386;42.9826;2.82843;0.00371551;65;357.99;385.151;0;176;1;1;0.154379;-0.80306;-0.609505;0.153509;-0.800436;-0.60491;1;0.0436064;-0.0795054;-0.245421;1;-0.284294;-0.245869;0.970399;0.00312818;fp_not_a_fp;-1;0.205524;
265626;2955.735189;358;384;42.861;2;0.0594215;92;357.993;385.247;0;177;1;1;0.154849;-0.801657;-0.61371;0.153926;-0.800691;-0.607724;1;0.044481;-0.0660189;-0.265073;1;-0.199393;0.396978;0.322394;0.00221823;fp_not_a_fp;-1;0.205568;
265627;2955.746316;358;384;42.5481;2;0.035534;60;357.995;383.103;0;178;1;1;0.155988;-0.807552;-0.618223;0.154735;-0.802981;-0.61209;1;0.0522229;-0.119606;-0.29112;1;0.265311;-1.48598;-1.58502;0.00223454;fp_not_a_fp;-1;0.205539;
265628;2955.757445;356;384;42.4701;2;0.0642634;84;357.997;383.161;0;179;1;1;0.160751;-0.809063;-0.619341;0.156492;-0.805333;-0.615195;1;0.103362;-0.14381;-0.277562;1;1.39939;-2.13746;-0.872193;0.00223865;fp_not_a_fp;-1;0.205506;
265629;2955.768572;356;382;42.4265;2.82843;0.0375809;77;355.72;383.322;0;180;1;1;0.160949;-0.806175;-0.622478;0.158134;-0.806112;-0.618438;1;0.113578;-0.102366;-0.272517;1;1.57197;-0.513604;-0.608805;0.00316918;fp_not_a_fp;-1;0.205539;
265630;2955.779700;356;382;42.3502;2;0.0276324;73;355.638;381.195;0;181;1;1;0.161239;-0.807627;-0.623599;0.159732;-0.807604;-0.62091;1;0.106636;-0.0888225;-0.248522;1;1.39633;-0.512325;0.371807;0.00224498;fp_not_a_fp;-1;0.205514;
265631;2955.790828;356;380;42.1726;2.82843;0.0412937;70;355.651;381.274;0;182;1;1;0.161951;-0.807288;-0.628742;0.161223;-0.807538;-0.62354;1;0.098327;-0.068013;-0.265859;1;1.03573;1.15915;0.56755;0.00318825;fp_not_a_fp;-1;0.205541;
265632;2955.801955;356;380;42.1918;2.82843;0.019752;65;355.701;379.122;0;183;1;1;0.161877;-0.80692;-0.628456;0.161504;-0.807002;-0.625819;1;0.0815054;-0.0465211;-0.235828;1;-0.491044;2.18576;0.937697;0.0031868;fp_not_a_fp;-1;0.205505;
265633;2955.813083;356;380;41.4638;2;0.0234592;57;355.791;379.166;0;184;1;1;0.164719;-0.821087;-0.63949;0.162447;-0.81073;-0.630072;1;0.096736;-0.194101;-0.319817;1;-0.378393;-2.06104;-1.06264;0.00229297;fp_not_a_fp;-1;0.20554;
265634;2955.824211;356;378;41.6342;2;0.0458418;117;355.858;379.335;0;185;1;1;0.164078;-0.813937;-0.639421;0.163157;-0.812308;-0.634027;1;0.0833457;-0.148381;-0.312951;1;-0.523219;-1.33822;-1.44748;0.00228358;fp_not_a_fp;-1;0.205532;
265635;2955.835338;354;378;41.6818;2.82843;0.0574164;56;355.901;377.204;0;186;1;1;0.168453;-0.813035;-0.638673;0.164782;-0.813745;-0.63651;1;0.117326;-0.100222;-0.261613;1;0.426877;-0.723682;0.0954342;0.00322581;fp_not_a_fp;-1;0.205542;
265636;2955.846466;354;376;41.71;2.82843;0.0459586;77;353.653;377.278;0;187;1;1;0.168372;-0.808702;-0.640784;0.166406;-0.81419;-0.639592;1;0.115475;-0.0178605;-0.231231;1;0.763241;0.643848;0.10329;0.00322362;fp_not_a_fp;-1;0.205515;
265637;2955.857594;354;376;41.5934;2.82843;0.019752;54;353.59;375.119;0;188;1;1;0.168844;-0.810969;-0.642581;0.167437;-0.811661;-0.640365;1;0.105392;-0.00753308;-0.209773;1;0.194534;4.19153;2.47236;0.00323265;fp_not_a_fp;-1;0.205526;
265638;2955.868721;354;376;41.5236;2;0.0276324;71;353.617;375.165;0;189;1;1;0.169128;-0.812334;-0.643662;0.168699;-0.81126;-0.641425;1;0.0910399;-0.0179502;-0.186545;1;0.17289;2.93039;2.83995;0.00228967;fp_not_a_fp;-1;0.20551;
265639;2955.879848;354;374;41.421;2.82843;0.0382394;75;353.678;375.322;0;190;1;1;0.16958;-0.810535;-0.647817;0.168981;-0.810635;-0.643711;1;0.0786778;0.000650539;-0.200782;1;-0.868296;2.26628;1.36666;0.00324611;fp_not_a_fp;-1;0.205565;
265640;2955.890977;354;374;41.31;2;0.0276324;65;353.776;373.192;0;191;1;1;0.170036;-0.812714;-0.649559;0.169397;-0.811638;-0.645905;1;0.0687586;-0.0167194;-0.201016;1;-1.04956;0.0256692;0.678824;0.00230151;fp_not_a_fp;-1;0.205522;
265641;2955.902104;352;372;41.239;2.82843;0.0537607;68;353.845;373.273;0;192;1;1;0.174973;-0.810314;-0.65323;0.170929;-0.811474;-0.648567;1;0.112479;0.00574708;-0.217561;1;0.159227;0.298406;-0.174997;0.00326043;fp_not_a_fp;-1;0.205544;
265642;2955.913232;352;372;41.2277;2.82843;0.0155558;51;351.611;371.117;0;193;1;1;0.175021;-0.810537;-0.65341;0.172403;-0.811025;-0.651004;1;0.116751;0.0117502;-0.198703;1;0.577657;0.667321;-0.273147;0.00326132;fp_not_a_fp;-1;0.205553;
265643;2955.924360;352;372;41.1121;2.82843;0.0155558;76;351.562;371.163;0;194;1;1;0.175513;-0.812817;-0.655248;0.173886;-0.811595;-0.652862;1;0.109268;-0.0134059;-0.186636;1;0.68731;-0.31572;0.317788;0.0032705;fp_not_a_fp;-1;0.205526;
265644;2955.935487;352;370;41.0697;2.82843;0.0348194;43;351.599;371.322;0;195;1;1;0.175728;-0.809813;-0.658507;0.175309;-0.81087;-0.655099;1;0.0946987;0.0123435;-0.195204;1;0.582803;0.653018;0.130551;0.00327387;fp_not_a_fp;-1;0.205546;
265645;2955.946615;350;370;40.9345;2.82843;0.0388039;57;351.665;369.191;0;196;1;1;0.180953;-0.812515;-0.660663;0.176804;-0.81142;-0.656957;1;0.136497;-0.00956729;-0.198558;1;0.539614;-0.344003;0.426934;0.00328468;fp_not_a_fp;-1;0.205579;
265646;2955.957743;350;370;40.7496;2;0.035534;70;349.485;369.272;0;197;1;1;0.181775;-0.816203;-0.663661;0.178492;-0.812837;-0.65952;1;0.145772;-0.0596657;-0.208983;1;0.652022;-1.60434;-0.230975;0.00233317;fp_not_a_fp;-1;0.205506;
265647;2955.968870;350;368;40.6422;2.82843;0.0369728;60;349.477;369.401;0;198;1;1;0.182289;-0.814478;-0.668027;0.180186;-0.813252;-0.662715;1;0.13691;-0.0529871;-0.236674;1;0.62099;-0.889152;-1.12419;0.00330831;fp_not_a_fp;-1;0.205558;
265648;2955.979998;350;368;40.6551;2.82843;0.0114881;54;349.541;367.249;0;199;1;1;0.182231;-0.814219;-0.667814;0.181812;-0.814354;-0.665041;1;0.115121;-0.0405032;-0.215498;1;0.458799;-1.1872;-0.455956;0.00330726;fp_not_a_fp;-1;0.205527;
265649;2955.991126;350;368;40.5727;0;0.11349;48;349.625;367.311;0;200;1;1;0.182601;-0.815873;-0.66917;0.182224;-0.815193;-0.667168;1;0.0956738;-0.0491281;-0.194801;1;-0.917163;-0.888695;0.0843646;0;fp_not_a_fp;-1;0.20558;
265650;2956.002253;350;366;40.3662;2;0.0469541;51;349.739;367.425;0;201;1;1;0.18357;-0.816138;-0.675223;0.182673;-0.815177;-0.670059;1;0.0865349;-0.0494679;-0.230779;1;-1.33086;0.229133;-0.489733;0.00235533;fp_not_a_fp;-1;0.205524;
265651;2956.013381;348;366;40.4482;2.82843;0.0557635;56;349.821;365.267;0;202;1;1;0.187898;-0.814511;-0.673834;0.184075;-0.815185;-0.671511;1;0.121339;-0.0246532;-0.200297;1;-0.349795;0.636586;0.817253;0.00332418;fp_not_a_fp;-1;0.205504;
265652;2956.024509;348;364;40.3834;2.82843;0.0448695;50;347.594;365.321;0;203;1;1;0.188234;-0.811912;-0.677544;0.185576;-0.814608;-0.673943;1;0.124096;0.0185429;-0.204668;1;0.201664;1.32653;0.243298;0.00332951;fp_not_a_fp;-1;0.205546;
265653;2956.035636;348;364;40.3158;2.82843;0.0215293;37;347.551;363.149;0;204;1;1;0.18855;-0.813273;-0.67868;0.187063;-0.813959;-0.67632;1;0.113024;0.0184255;-0.193391;1;0.389805;1.51766;0.0316988;0.00333509;fp_not_a_fp;-1;0.205563;
265654;2956.046764;348;364;39.9923;2;0.0216843;54;347.591;363.186;0;205;1;1;0.190075;-0.819852;-0.68417;0.18869;-0.814887;-0.678557;1;0.111516;-0.0593871;-0.226996;1;0.561253;-0.222954;0.0849791;0.00237735;fp_not_a_fp;-1;0.20552;
265655;2956.057892;348;362;39.9984;2.82843;0.050049;46;347.662;363.342;0;206;1;1;0.19008;-0.815781;-0.686718;0.189235;-0.815205;-0.681778;1;0.0967301;-0.0373101;-0.241132;1;-0.552869;-0.284504;-0.917427;0.00336156;fp_not_a_fp;-1;0.205538;
265656;2956.069019;348;362;39.658;2;0.0172826;51;347.764;361.206;0;207;1;1;0.191712;-0.822785;-0.692613;0.190105;-0.817923;-0.685545;1;0.0969878;-0.10371;-0.283798;1;-0.609007;-2.74676;-1.77782;0.00239738;fp_not_a_fp;-1;0.205533;
265657;2956.080147;348;360;39.5589;2.82843;0.0485486;53;347.838;361.287;0;208;1;1;0.192227;-0.820857;-0.69703;0.191024;-0.819819;-0.690133;1;0.0906274;-0.0958219;-0.315864;1;-0.503161;-2.5669;-2.75162;0.0033989;fp_not_a_fp;-1;0.205539;
265658;2956.091275;348;360;39.5877;2.82843;0.025918;57;347.889;359.132;0;209;1;1;0.192088;-0.82026;-0.696523;0.191527;-0.819921;-0.693221;1;0.0748368;-0.0734977;-0.283017;1;-0.824021;-0.317136;-1.25868;0.00339643;fp_not_a_fp;-1;0.205555;
265659;2956.102402;348;358;39.5342;2.82843;0.0462334;67;347.924;359.173;0;210;1;1;0.192382;-0.817378;-0.70015;0.192103;-0.82032;-0.696579;1;0.0621454;-0.0218678;-0.27491;1;-0.776984;0.346871;-0.758984;0.00340103;fp_not_a_fp;-1;0.205509;
265660;2956.113530;348;358;39.3214;2.82843;0.0114881;57;347.948;357.048;0;211;1;1;0.193423;-0.821801;-0.703938;0.19253;-0.820074;-0.69941;1;0.060907;-0.0484426;-0.279924;1;-0.810598;1.24164;0.0869558;0.00341944;fp_not_a_fp;-1;0.205537;
265661;2956.124658;348;356;39.3891;2.82843;0.0273387;35;347.965;357.119;0;212;1;1;0.193126;-0.816384;-0.705424;0.192755;-0.818956;-0.701509;1;0.0492215;0.00884264;-0.263315;1;-0.930209;2.35132;1.18053;0.00341357;fp_not_a_fp;-1;0.205561;
265662;2956.135785;348;356;39.2961;2.82843;0.00754319;44;347.976;355.007;0;213;1;1;0.193583;-0.818316;-0.707093;0.193129;-0.81847;-0.704151;1;0.043353;0.00924338;-0.241999;1;-0.707325;1.85881;0.921521;0.00342164;fp_not_a_fp;-1;0.205512;
265663;2956.146913;348;354;39.1892;2.82843;0.0267774;44;347.984;355.088;0;214;1;1;0.194147;-0.816521;-0.711729;0.19357;-0.818256;-0.707046;1;0.0418532;0.0288028;-0.255463;1;-0.455884;1.13829;0.436893;0.00343096;fp_not_a_fp;-1;0.205567;
265664;2956.158040;348;354;39.104;2.82843;0.00754319;47;347.989;352.988;0;215;1;1;0.19457;-0.818302;-0.713281;0.193857;-0.817381;-0.709381;1;0.0407476;0.012804;-0.246231;1;-0.452899;1.37591;0.756966;0.00343845;fp_not_a_fp;-1;0.205509;
265665;2956.169168;348;352;38.9841;2.82843;0.0227257;38;347.993;353.075;0;216;1;1;0.195204;-0.816772;-0.718197;0.194376;-0.817478;-0.712575;1;0.04236;0.0220979;-0.267358;1;-0.154161;0.297792;-0.0908019;0.00344902;fp_not_a_fp;-1;0.205531;
265666;2956.180296;348;352;38.7787;2.82843;0.00371551;50;347.995;350.981;0;217;1;1;0.196238;-0.821098;-0.722001;0.19504;-0.818173;-0.716302;1;0.0494756;-0.0264732;-0.285594;1;0.137557;-0.802479;-0.979435;0.00346729;fp_not_a_fp;-1;0.205536;
265667;2956.191423;348;350;38.6058;2.82843;0.018991;53;347.997;351.074;0;218;1;1;0.197152;-0.820687;-0.727982;0.195791;-0.819215;-0.720365;1;0.0565882;-0.0384617;-0.325269;1;0.331056;-1.51127;-1.56832;0.00348281;fp_not_a_fp;-1;0.205531;
265668;2956.202551;348;350;38.538;2.82843;7.3757e-08;56;347.998;348.984;0;219;1;1;0.197499;-0.82213;-0.729262;0.196523;-0.820172;-0.724361;1;0.0562831;-0.05505;-0.314847;1;0.349039;-1.52448;-1.5416;0.00348895;fp_not_a_fp;-1;0.205531;
265669;2956.213679;348;348;38.3808;2.82843;0.0189817;50;347.999;349.073;0;220;1;1;0.198344;-0.821389;-0.735016;0.197309;-0.821326;-0.728565;1;0.0586688;-0.0463815;-0.336331;1;0.366415;-1.53852;-1.54965;0.00350324;fp_not_a_fp;-1;0.205532;
265670;2956.224806;348;348;38.2514;2.82843;7.3757e-08;52;347.999;346.983;0;221;1;1;0.199015;-0.824167;-0.737502;0.198003;-0.822093;-0.732441;1;0.0598622;-0.0687319;-0.330811;1;0.233361;-0.949408;-1.01592;0.00351509;fp_not_a_fp;-1;0.205514;
265671;2956.235934;348;348;38.0754;2;0.0428933;59;347.999;347.074;0;222;1;1;0.199935;-0.827976;-0.74091;0.198699;-0.823915;-0.735673;1;0.0632611;-0.112855;-0.325397;1;0.149914;-1.67128;-0.00291437;0.00249703;fp_not_a_fp;-1;0.205544;
265672;2956.247062;348;346;37.9556;2.82843;0.026822;49;348;347.263;0;223;1;1;0.200602;-0.826432;-0.746044;0.199474;-0.824991;-0.739868;1;0.0642471;-0.0989965;-0.340504;1;0.17892;-0.987269;-0.576457;0.00354247;fp_not_a_fp;-1;0.205485;
265673;2956.258189;348;344;37.8324;2.82843;0.0246621;49;348;345.157;0;224;1;1;0.201292;-0.824952;-0.751279;0.200211;-0.825882;-0.743934;1;0.0643673;-0.0636853;-0.363318;1;0.128022;-0.388673;-0.606335;0.00355401;fp_not_a_fp;-1;0.205548;
265674;2956.269318;348;344;37.7721;2;0.0392779;38;348;342.971;0;225;1;1;0.201614;-0.826269;-0.752478;0.200861;-0.826407;-0.747678;1;0.0598902;-0.0560647;-0.340152;1;0.000630278;0.28468;-0.209925;0.00251709;fp_not_a_fp;-1;0.205529;
265675;2956.280445;348;344;37.9013;0;0.11349;38;348;343.023;0;226;1;1;0.200926;-0.823453;-0.749913;0.201109;-0.825277;-0.749929;1;0.0425239;-0.0134822;-0.257791;1;-0.465901;2.23262;1.51888;0;fp_not_a_fp;-1;0.205528;
265676;2956.291572;346;342;37.6098;2.82843;0.06492;44;348;343.164;0;227;1;1;0.207576;-0.825671;-0.758526;0.202852;-0.825087;-0.753049;1;0.106149;-0.0195821;-0.289604;1;0.941443;1.78421;1.14354;0.00357505;fp_not_a_fp;-1;0.205542;
265677;2956.302701;346;342;37.5981;2;0.0216843;35;345.719;341.087;0;228;1;1;0.207641;-0.825929;-0.758764;0.204439;-0.825331;-0.75492;1;0.119648;-0.0225662;-0.268532;1;1.242;0.923829;2.12948;0.00252873;fp_not_a_fp;-1;0.205564;
265678;2956.313828;346;340;37.5378;2.82843;0.0488204;47;345.637;341.198;0;229;1;1;0.208012;-0.823052;-0.762809;0.206039;-0.824526;-0.757503;1;0.114211;0.0120531;-0.271948;1;1.22042;1.53044;1.53232;0.00358191;fp_not_a_fp;-1;0.205569;
265679;2956.324955;344;340;37.4866;2.82843;0.0611043;49;345.65;339.066;0;230;1;1;0.213368;-0.824205;-0.763829;0.209149;-0.824714;-0.760982;1;0.158791;0.0116076;-0.250359;1;2.61216;0.56371;0.166931;0.0035868;fp_not_a_fp;-1;0.205549;
265680;2956.336084;344;338;37.4706;2.82843;0.0494882;30;343.418;339.129;0;231;1;1;0.213496;-0.820347;-0.766988;0.210629;-0.823384;-0.763098;1;0.158431;0.0541592;-0.245713;1;1.17457;1.65668;0.986055;0.00358834;fp_not_a_fp;-1;0.205509;
265681;2956.347211;344;338;37.2266;2.82843;0.025918;42;343.426;337.014;0;232;1;1;0.214895;-0.825724;-0.772015;0.212443;-0.823332;-0.76641;1;0.154115;0.00319998;-0.270079;1;0.774349;0.578796;-0.0347791;0.00361185;fp_not_a_fp;-1;0.205539;
265682;2956.358338;344;338;37.2879;2;0.0216843;40;343.506;337.097;0;233;1;1;0.214542;-0.824368;-0.770747;0.214075;-0.823661;-0.768395;1;0.128626;-0.00271479;-0.231159;1;0.323857;-0.331896;0.91639;0.00254977;fp_not_a_fp;-1;0.205567;
265683;2956.369467;344;336;37.0851;2;0.0423212;54;343.599;337.274;0;234;1;1;0.215752;-0.82462;-0.777822;0.214671;-0.823765;-0.771893;1;0.115559;-0.00771022;-0.266689;1;-0.971265;-0.434109;-0.366837;0.00256371;fp_not_a_fp;-1;0.205542;
265684;2956.380594;342;336;36.8799;2.82843;0.066369;45;343.723;335.162;0;235;1;1;0.222109;-0.82924;-0.782129;0.216825;-0.825988;-0.775679;1;0.168283;-0.0617466;-0.296729;1;0.221424;-2.60411;-1.14615;0.00364581;fp_not_a_fp;-1;0.205487;
265685;2956.391721;342;334;36.7905;2.82843;0.0507999;43;341.529;335.255;0;236;1;1;0.222686;-0.826965;-0.786913;0.218772;-0.826299;-0.779403;1;0.175221;-0.0501259;-0.326129;1;0.474269;-1.19811;-1.25923;0.00365467;fp_not_a_fp;-1;0.205558;
265686;2956.402850;340;334;36.619;2.82843;0.0439956;69;341.508;333.109;0;237;1;1;0.228921;-0.830869;-0.790577;0.222367;-0.827924;-0.784361;1;0.227207;-0.0836791;-0.338679;1;2.21479;-1.819;-2.4156;0.00367178;fp_not_a_fp;-1;0.205509;
265687;2956.413977;340;334;36.5838;2;0.0316547;42;339.285;333.163;0;238;1;1;0.229142;-0.831669;-0.791339;0.225714;-0.829686;-0.78774;1;0.222238;-0.0960439;-0.309394;1;2.3967;-1.98458;-0.959449;0.00259884;fp_not_a_fp;-1;0.205549;
265688;2956.425104;340;332;36.5387;2.82843;0.040425;65;339.281;333.322;0;239;1;1;0.229463;-0.828379;-0.795221;0.227553;-0.829471;-0.791013;1;0.195518;-0.051187;-0.302329;1;0.611784;0.2373;-0.125776;0.00367986;fp_not_a_fp;-1;0.205562;
265689;2956.436233;340;332;36.5105;0;0.110331;46;339.402;331.194;0;240;1;1;0.22964;-0.829018;-0.795835;0.229291;-0.829984;-0.793243;1;0.161566;-0.0334473;-0.26788;1;-0.306815;0.374743;1.30866;0;fp_not_a_fp;-1;0.205579;
265690;2956.447360;338;330;36.4934;2.82843;0.0651641;47;339.528;331.272;0;241;1;1;0.234996;-0.825115;-0.799094;0.23081;-0.828546;-0.795372;1;0.188322;0.0228987;-0.256838;1;-0.873556;2.39446;1.83869;0.00368442;fp_not_a_fp;-1;0.205564;
265691;2956.458488;338;330;36.3524;4.47214;0.08033;35;337.39;329.115;0;242;1;1;0.235907;-0.828315;-0.802193;0.232501;-0.827707;-0.798086;1;0.185806;0.00658177;-0.25504;1;-0.81844;2.30568;1.22112;0.00584817;fp_not_a_fp;-1;0.205538;
265692;2956.469616;336;328;36.4479;2.82843;0.0514357;37;337.411;329.164;0;243;1;1;0.240544;-0.821847;-0.802981;0.235272;-0.826074;-0.800026;1;0.214211;0.0731321;-0.230801;1;0.419998;2.79293;1.6069;0.00368902;fp_not_a_fp;-1;0.205523;
265693;2956.480743;336;328;36.3723;2.82843;0.0132222;47;335.208;327.036;0;244;1;1;0.241044;-0.823555;-0.804651;0.238123;-0.824708;-0.80223;1;0.204359;0.0717245;-0.210479;1;0.96137;2.36278;1.2896;0.00369669;fp_not_a_fp;-1;0.205505;
265694;2956.491871;336;328;36.2492;0;0.112149;37;335.226;327.107;0;245;1;1;0.241862;-0.826352;-0.807383;0.239839;-0.825017;-0.804302;1;0.183602;0.0299405;-0.206552;1;-0.106091;0.158078;1.12973;0;fp_not_a_fp;-1;0.205543;
265695;2956.502999;334;326;36.208;2.82843;0.0603894;47;335.366;327.283;0;246;1;1;0.247428;-0.822968;-0.811212;0.242719;-0.823681;-0.806557;1;0.215395;0.0476401;-0.222478;1;0.664664;0.92229;0.731557;0.00371347;fp_not_a_fp;-1;0.205531;
265696;2956.514127;334;326;36.1552;2;0.0198118;44;333.22;325.164;0;247;1;1;0.247788;-0.824167;-0.812395;0.244531;-0.824261;-0.80891;1;0.205195;0.035125;-0.214239;1;-0.202619;-0.853932;0.372129;0.00262965;fp_not_a_fp;-1;0.205543;
265697;2956.525254;334;324;36.0423;2.82843;0.0555257;38;333.291;325.253;0;248;1;1;0.248603;-0.822373;-0.817886;0.246421;-0.823965;-0.812219;1;0.18415;0.0460389;-0.246446;1;-0.454076;-0.577109;-0.808031;0.00373054;fp_not_a_fp;-1;0.205547;
265698;2956.536383;334;324;36.0518;2;0.0198118;46;333.412;323.104;0;249;1;1;0.248538;-0.822156;-0.81767;0.248089;-0.822916;-0.814791;1;0.151211;0.0471692;-0.225842;1;-0.727723;0.38704;-0.433372;0.0026372;fp_not_a_fp;-1;0.205522;
265699;2956.547511;332;322;36.0502;2.82843;0.0647863;30;333.536;323.153;0;250;1;1;0.253861;-0.817847;-0.820628;0.249698;-0.821636;-0.817145;1;0.179334;0.0910102;-0.222427;1;-0.810114;0.97437;0.00111881;0.00372971;fp_not_a_fp;-1;0.205548;
265700;2956.558638;332;322;36.0298;2.82843;0.0132222;32;331.394;321.03;0;251;1;1;0.254006;-0.818311;-0.821093;0.251252;-0.820172;-0.819319;1;0.169733;0.0921994;-0.197984;1;-0.796652;1.28226;0.365189;0.00373182;fp_not_a_fp;-1;0.205518;
265701;2956.569767;332;322;35.8331;2;0.0299427;40;331.412;321.102;0;252;1;1;0.2554;-0.822802;-0.8256;0.252951;-0.820279;-0.821248;1;0.160095;0.029452;-0.214282;1;-0.540355;-0.372529;0.722625;0.0026533;fp_not_a_fp;-1;0.20556;
265702;2956.580894;330;320;35.6151;2.82843;0.0638132;33;331.497;321.282;0;253;1;1;0.26234;-0.82344;-0.83361;0.256402;-0.8206;-0.825233;1;0.215251;-0.00754357;-0.285504;1;1.43876;-1.22908;-1.34037;0.00377529;fp_not_a_fp;-1;0.205556;
265703;2956.592022;330;320;35.8021;2.82843;0.025918;33;329.317;319.168;0;254;1;1;0.26097;-0.819139;-0.829257;0.258179;-0.820924;-0.827391;1;0.194883;0.0274261;-0.228617;1;0.349334;-1.42837;-0.138991;0.00375556;fp_not_a_fp;-1;0.205532;
265704;2956.603150;330;318;35.6426;2.82843;0.0527094;30;329.354;319.251;0;255;1;1;0.262177;-0.818378;-0.835945;0.260222;-0.82094;-0.831103;1;0.175441;0.0471016;-0.252612;1;0.128235;-1.01305;-1.22725;0.00377237;fp_not_a_fp;-1;0.20551;
265705;2956.614278;330;318;35.6434;2.82843;0.0114881;23;329.456;317.103;0;256;1;1;0.262171;-0.818359;-0.835926;0.261915;-0.81983;-0.833685;1;0.144958;0.0494442;-0.230083;1;-0.340058;0.449165;-0.355001;0.00377227;fp_not_a_fp;-1;0.205561;
265706;2956.625406;330;316;35.7182;2.82843;0.0355449;29;329.566;317.153;0;257;1;1;0.261661;-0.812228;-0.837146;0.261745;-0.817027;-0.834569;1;0.108022;0.114382;-0.205418;1;-2.40902;2.73928;1.79927;0.00376439;fp_not_a_fp;-1;0.205549;
265707;2956.636533;328;316;35.5359;2.82843;0.0447794;34;329.698;315.027;0;258;1;1;0.268354;-0.816427;-0.841419;0.263591;-0.816349;-0.837609;1;0.155699;0.0784986;-0.217999;1;-0.880292;1.14744;0.238519;0.0037837;fp_not_a_fp;-1;0.205572;
265708;2956.647662;328;314;35.4911;2.82843;0.0311323;50;327.509;315.104;0;259;1;1;0.268732;-0.813013;-0.845472;0.265229;-0.815007;-0.839991;1;0.159874;0.0927935;-0.241842;1;-0.34971;1.02654;0.241985;0.00378847;fp_not_a_fp;-1;0.205503;
265709;2956.658789;328;314;35.5007;2;0.0392779;35;327.492;312.997;0;260;1;1;0.268659;-0.812792;-0.845242;0.266851;-0.813615;-0.84232;1;0.140372;0.0893911;-0.218222;1;-0.10304;0.897474;0.266525;0.00267811;fp_not_a_fp;-1;0.205559;
265710;2956.669917;326;314;35.3277;2;0.0711238;27;327.55;313.078;0;261;1;1;0.275357;-0.816806;-0.849361;0.270276;-0.81476;-0.845374;1;0.191188;0.0305746;-0.227834;1;1.86842;-1.88288;-0.503568;0.00269124;fp_not_a_fp;-1;0.205531;
265711;2956.681046;326;312;35.3059;2.82843;0.039563;34;325.351;313.266;0;262;1;1;0.275566;-0.812841;-0.85289;0.272079;-0.813863;-0.848242;1;0.190197;0.047818;-0.243197;1;0.775028;-0.68933;-0.566048;0.00380835;fp_not_a_fp;-1;0.205539;
265712;2956.692173;326;312;35.2069;0;0.11349;33;325.381;311.152;0;263;1;1;0.276341;-0.815128;-0.85529;0.273981;-0.814392;-0.850696;1;0.174415;0.0226285;-0.246033;1;0.326686;-1.57638;-0.0941465;0;fp_not_a_fp;-1;0.205538;
265713;2956.703301;324;310;35.3875;2.82843;0.0606402;21;325.474;311.246;0;264;1;1;0.280344;-0.806542;-0.853902;0.276902;-0.812829;-0.852861;1;0.19152;0.107755;-0.199912;1;1.14912;0.412591;0.4114;0.00379957;fp_not_a_fp;-1;0.205553;
265714;2956.714429;324;310;35.1827;2.82843;0.0215293;20;323.291;309.091;0;265;1;1;0.281975;-0.811236;-0.858871;0.278557;-0.811437;-0.855239;1;0.19286;0.0753921;-0.21231;1;0.0375717;1.00697;0.34882;0.00382167;fp_not_a_fp;-1;0.205528;
265715;2956.725557;322;310;35.304;2;0.0527107;13;323.342;309.149;0;266;1;1;0.286392;-0.808481;-0.855899;0.281263;-0.810347;-0.855991;1;0.219447;0.0839733;-0.156282;1;0.65716;0.812383;1.9527;0.00269305;fp_not_a_fp;-1;0.205525;
265716;2956.736685;322;308;35.0596;2.82843;0.0566171;20;321.158;309.308;0;267;1;1;0.288428;-0.809616;-0.864891;0.284285;-0.808969;-0.858391;1;0.225777;0.0638028;-0.216269;1;1.15393;0.925132;0.668718;0.00383509;fp_not_a_fp;-1;0.205559;
265717;2956.747813;322;308;35.0706;0;0.0983497;27;321.195;307.183;0;268;1;1;0.288338;-0.809363;-0.86462;0.286283;-0.809674;-0.861071;1;0.19856;0.0502323;-0.210372;1;0.158225;-1.29225;-0.235007;0;fp_not_a_fp;-1;0.205528;
265718;2956.758941;320;308;35.1401;2;0.0319009;13;321.342;307.265;0;269;1;1;0.293178;-0.807794;-0.862888;0.289084;-0.808814;-0.862075;1;0.217475;0.0561927;-0.161247;1;0.553073;-0.431322;1.1472;0.00270562;fp_not_a_fp;-1;0.205499;
265719;2956.770068;320;306;35.0324;2;0.0360249;24;319.201;307.391;0;270;1;1;0.294119;-0.805774;-0.86857;0.291016;-0.808137;-0.865243;1;0.208336;0.0746494;-0.185507;1;-0.249561;-0.209448;-0.6566;0.00271395;fp_not_a_fp;-1;0.205558;
265720;2956.781197;318;306;34.736;2;0.033725;24;319.278;305.239;0;271;1;1;0.302103;-0.812682;-0.875959;0.294435;-0.808903;-0.86801;1;0.26949;-0.00642478;-0.256559;1;0.982013;-1.57757;-0.905034;0.0027371;fp_not_a_fp;-1;0.205542;
265721;2956.792325;318;304;34.6327;2;0.0354516;17;317.125;305.31;0;272;1;1;0.303044;-0.810552;-0.881637;0.298111;-0.809201;-0.872264;1;0.271182;-0.0146923;-0.318287;1;1.63143;-1.45846;-2.42431;0.00274524;fp_not_a_fp;-1;0.205555;
265722;2956.803452;316;304;34.5916;2;0.0392468;28;317.173;303.146;0;273;1;1;0.308901;-0.811548;-0.882662;0.302042;-0.810139;-0.877208;1;0.304426;-0.0276476;-0.314943;1;1.95338;-1.88344;-3.45287;0.00274853;fp_not_a_fp;-1;0.205507;
265723;2956.814581;316;302;34.5099;2.82843;0.0707875;19;315.049;303.185;0;274;1;1;0.309672;-0.808896;-0.887826;0.30593;-0.81092;-0.882021;1;0.288171;0.00091719;-0.332572;1;1.79354;-1.65641;-3.30386;0.00389618;fp_not_a_fp;-1;0.205555;
265724;2956.825708;314;302;34.3593;2.82843;0.0692881;32;315.118;301.058;0;275;1;1;0.316564;-0.812476;-0.891696;0.309546;-0.810868;-0.885956;1;0.323697;-0.0284371;-0.341807;1;1.21789;-0.494601;-1.91518;0.00391327;fp_not_a_fp;-1;0.20552;
265725;2956.836836;314;302;34.4832;2;0.00299677;28;313.012;301.125;0;276;1;1;0.315427;-0.809557;-0.888492;0.312641;-0.810619;-0.887669;1;0.284052;-0.00347777;-0.265299;1;0.289185;0.2519;1.19052;0.00275716;fp_not_a_fp;-1;0.205556;
265726;2956.847965;312;300;34.4897;2.82843;0.074186;28;313.087;301.291;0;277;1;1;0.32092;-0.804861;-0.891377;0.315646;-0.808948;-0.889848;1;0.294397;0.0611005;-0.232908;1;-0.225328;1.99369;1.84303;0.00389847;fp_not_a_fp;-1;0.205564;
265727;2956.859092;312;300;34.4729;2.82843;0.0399787;19;310.983;299.168;0;278;1;1;0.321077;-0.805255;-0.891814;0.318497;-0.808038;-0.890845;1;0.262922;0.075479;-0.194817;1;-0.567308;1.67502;3.09485;0.00390038;fp_not_a_fp;-1;0.205537;
265728;2956.870220;310;300;34.4568;2;0.0452581;20;311.069;299.253;0;279;1;1;0.326745;-0.805664;-0.892207;0.321042;-0.806334;-0.890973;1;0.28135;0.0671088;-0.158735;1;-0.951421;2.14646;4.11296;0.00275926;fp_not_a_fp;-1;0.20554;
265729;2956.881348;310;298;34.4066;2;0.0541015;23;308.969;299.384;0;280;1;1;0.327261;-0.802253;-0.896592;0.324001;-0.804508;-0.892998;1;0.258998;0.0941897;-0.173831;1;-0.562841;2.19406;2.05493;0.00276329;fp_not_a_fp;-1;0.205552;
265730;2956.892476;308;298;34.346;2.82843;0.0506235;26;309.061;297.232;0;281;1;1;0.333375;-0.803703;-0.898152;0.327115;-0.804219;-0.894691;1;0.286807;0.0767474;-0.175786;1;-0.170448;0.351473;1.28339;0.00391477;fp_not_a_fp;-1;0.205529;
265731;2956.903603;308;298;34.2206;2;0.0234592;16;306.966;297.3;0;282;1;1;0.334598;-0.806649;-0.901445;0.330495;-0.804567;-0.897099;1;0.275727;0.0259757;-0.191915;1;0.287735;-1.11227;0.0652253;0.00277832;fp_not_a_fp;-1;0.205534;
265732;2956.914732;306;298;34.261;2;0.0479924;24;307.062;297.419;0;283;1;1;0.339752;-0.80573;-0.900358;0.333747;-0.804584;-0.899137;1;0.295061;0.0122118;-0.161645;1;0.308038;-1.23341;-0.0654187;0.00277503;fp_not_a_fp;-1;0.20553;
265733;2956.925860;304;296;34.2573;2.82843;0.0566012;19;304.966;297.54;0;284;1;1;0.34538;-0.801244;-0.90353;0.338276;-0.804331;-0.900872;1;0.329918;0.056387;-0.164869;1;1.59325;-0.849315;0.201273;0.00392491;fp_not_a_fp;-1;0.205546;
265734;2956.936987;304;296;34.1284;2.82843;0.019752;22;302.773;295.397;0;285;1;1;0.346684;-0.804271;-0.906942;0.341604;-0.804473;-0.903069;1;0.317195;0.0327598;-0.184294;1;0.682655;-0.988267;-0.191213;0.00393973;fp_not_a_fp;-1;0.205565;
265735;2956.948116;304;296;34.0385;0;0.103553;17;302.885;295.416;0;286;1;1;0.3476;-0.806395;-0.909338;0.344854;-0.80441;-0.905042;1;0.281973;-0.00552921;-0.196267;1;0.14034;-0.707721;-0.0978239;0;fp_not_a_fp;-1;0.20554;
265736;2956.959244;302;294;33.7194;2.82843;0.0688548;20;303.074;295.498;0;287;1;1;0.35657;-0.809381;-0.921068;0.349059;-0.805323;-0.91022;1;0.334267;-0.0548807;-0.310638;1;0.880865;-1.50728;-3.34732;0.00398752;fp_not_a_fp;-1;0.20553;
265737;2956.970371;302;294;33.8087;2;0.0127079;17;301.028;293.32;0;288;1;1;0.355628;-0.807243;-0.918635;0.351621;-0.806822;-0.913996;1;0.302446;-0.0437689;-0.290394;1;-0.617142;-2.25009;-2.82007;0.00281216;fp_not_a_fp;-1;0.205533;
265738;2956.981500;300;294;33.6514;2;0.0347443;15;301.156;293.359;0;289;1;1;0.362941;-0.811051;-0.922906;0.355685;-0.808518;-0.917987;1;0.334537;-0.0772371;-0.293945;1;0.389617;-2.47114;-2.46345;0.0028253;fp_not_a_fp;-1;0.205543;
265739;2956.992627;300;292;33.5702;2.82843;0.0715295;19;299.041;293.46;0;290;1;1;0.36386;-0.808312;-0.928299;0.35975;-0.808997;-0.922727;1;0.315662;-0.049827;-0.319736;1;0.756823;-0.995166;-2.7739;0.00400526;fp_not_a_fp;-1;0.205512;
265740;2957.003755;298;292;33.5933;2.82843;0.0576522;15;299.114;291.29;0;291;1;1;0.36927;-0.807791;-0.927638;0.362925;-0.8086;-0.92437;1;0.329611;-0.0261637;-0.282032;1;-0.104656;0.645217;0.642682;0.0040025;fp_not_a_fp;-1;0.205504;
265741;2957.014884;298;292;33.5144;2;0.0127079;18;297.005;291.338;0;292;1;1;0.370139;-0.809692;-0.929822;0.366552;-0.809212;-0.927166;1;0.303296;-0.0348414;-0.255504;1;0.0190997;0.200635;0.783799;0.00283685;fp_not_a_fp;-1;0.205528;
265742;2957.026011;298;290;33.3609;2;0.0482993;12;297.087;291.444;0;293;1;1;0.371884;-0.80869;-0.937283;0.368788;-0.808622;-0.930761;1;0.273742;-0.022497;-0.297478;1;-1.3658;1.22984;-0.0794498;0.00284992;fp_not_a_fp;-1;0.205527;
265743;2957.037139;296;290;33.2219;2.82843;0.0609006;17;297.271;289.279;0;294;1;1;0.379164;-0.812108;-0.941181;0.372614;-0.809571;-0.933981;1;0.310055;-0.0537066;-0.321565;1;-0.125922;-0.0871524;-0.0411658;0.00404723;fp_not_a_fp;-1;0.205577;
265744;2957.048266;296;290;33.2283;2;0.0127079;15;295.161;289.334;0;295;1;1;0.37909;-0.81195;-0.940998;0.375069;-0.81061;-0.937321;1;0.284669;-0.0579442;-0.288406;1;-1.00963;-0.713988;-0.143294;0.00286128;fp_not_a_fp;-1;0.20551;
265745;2957.059395;296;288;33.315;2;0.0417823;9;295.25;289.44;0;296;1;1;0.378145;-0.805101;-0.941734;0.377071;-0.809462;-0.940299;1;0.227032;0.0262045;-0.246347;1;-1.71326;1.37131;0.20562;0.00285383;fp_not_a_fp;-1;0.205507;
265746;2957.070523;294;288;33.2747;2;0.0516423;11;295.38;287.271;0;297;1;1;0.384318;-0.806112;-0.942853;0.380179;-0.808818;-0.941692;1;0.245018;0.0460434;-0.210376;1;-0.6452;1.53969;1.95679;0.0028573;fp_not_a_fp;-1;0.205517;
265747;2957.081650;292;288;32.9282;2;0.0438664;10;293.231;287.325;0;298;1;1;0.394136;-0.814628;-0.95275;0.383922;-0.809448;-0.944584;1;0.333738;-0.0492473;-0.282116;1;0.532194;0.10003;0.886217;0.00288736;fp_not_a_fp;-1;0.205526;
265748;2957.092779;292;286;32.9696;2.82843;0.0647932;16;291.024;287.44;0;299;1;1;0.393683;-0.80882;-0.954772;0.387571;-0.808665;-0.948027;1;0.322644;-0.0157744;-0.298963;1;0.853319;0.947187;-0.237194;0.00407823;fp_not_a_fp;-1;0.205532;
265749;2957.103907;292;286;32.9795;2;0.0191263;15;291.057;285.273;0;300;1;1;0.393565;-0.808577;-0.954486;0.391426;-0.809534;-0.951216;1;0.275553;0.0028501;-0.26451;1;1.09012;-0.524746;-0.408008;0.00288287;fp_not_a_fp;-1;0.205578;
265750;2957.115034;290;286;32.8869;2;0.0431297;18;291.191;285.327;0;301;1;1;0.400455;-0.810888;-0.957149;0.39546;-0.810728;-0.95479;1;0.299918;-0.0163047;-0.247058;1;1.23344;-1.40082;-0.824076;0.00289098;fp_not_a_fp;-1;0.205529;
265751;2957.126163;290;286;32.8114;2;0.00994359;19;289.101;285.437;0;302;1;1;0.401377;-0.812756;-0.959354;0.39727;-0.81026;-0.956441;1;0.282303;-0.0435451;-0.2336;1;-1.15549;0.128087;1.09;0.00289764;fp_not_a_fp;-1;0.205512;
265752;2957.137290;288;286;32.6772;2;0.0367887;16;289.209;285.554;0;303;1;1;0.408844;-0.816127;-0.963268;0.40106;-0.812087;-0.958565;1;0.3246;-0.0878945;-0.243113;1;0.0439835;-1.62024;1.25473;0.00290953;fp_not_a_fp;-1;0.205559;
265753;2957.148418;288;284;32.6293;2.82843;0.0744887;16;287.075;285.691;0;304;1;1;0.409486;-0.812489;-0.967934;0.405041;-0.813065;-0.961927;1;0.308041;-0.0533128;-0.269516;1;0.729934;-1.26174;-0.112484;0.00412076;fp_not_a_fp;-1;0.205543;
265754;2957.159547;286;284;32.7212;2.82843;0.0594068;21;287.136;283.506;0;305;1;1;0.414147;-0.810243;-0.965192;0.408464;-0.812904;-0.963937;1;0.31533;-0.00646911;-0.214622;1;0.346269;0.220956;0.728639;0.00410916;fp_not_a_fp;-1;0.20551;
265755;2957.170674;286;284;32.6168;2.82843;0.0285553;25;285.017;283.488;0;306;1;1;0.415473;-0.812837;-0.968283;0.411988;-0.812924;-0.96617;1;0.293324;-0.0160276;-0.199991;1;0.247592;0.618153;0.754999;0.00412232;fp_not_a_fp;-1;0.205548;
265756;2957.181802;284;284;32.5556;2.82843;0.0491636;16;285.095;283.548;0;307;1;1;0.422095;-0.814401;-0.97008;0.415301;-0.812493;-0.967873;1;0.322721;-0.035858;-0.189034;1;-0.0422072;1.169;1.21489;0.00413007;fp_not_a_fp;-1;0.205482;
265757;2957.192930;284;284;32.4898;2.82843;0.019752;29;282.991;283.631;0;308;1;1;0.422949;-0.816049;-0.972042;0.418666;-0.813383;-0.9689;1;0.303494;-0.0583626;-0.182887;1;-0.102114;-0.113486;1.94615;0.00413845;fp_not_a_fp;-1;0.205526;
265758;2957.204058;282;284;32.4353;2.82843;0.0389937;23;283.077;283.744;0;309;1;1;0.429522;-0.817455;-0.973652;0.42251;-0.815186;-0.971015;1;0.332181;-0.0763424;-0.17547;1;0.378652;-1.56978;0.879598;0.00414539;fp_not_a_fp;-1;0.205529;
265759;2957.215186;282;284;32.4299;4.47214;0.0708503;15;280.979;283.823;0;310;1;1;0.429594;-0.817592;-0.973815;0.42604;-0.816374;-0.972398;1;0.30249;-0.0756032;-0.15189;1;0.205986;-1.33843;1.08066;0.00655554;fp_not_a_fp;-1;0.205549;
265760;2957.226314;280;284;32.5484;2.82843;0.0260033;18;281.067;283.878;0;311;1;1;0.433873;-0.814652;-0.970247;0.428985;-0.816437;-0.97244;1;0.300675;-0.0319564;-0.0818805;1;-0.495233;0.087605;2.40721;0.00413101;fp_not_a_fp;-1;0.205525;
265761;2957.237442;278;286;32.4941;2;0.0914736;16;278.965;283.916;0;312;1;1;0.440406;-0.820902;-0.968576;0.433349;-0.817651;-0.971573;1;0.336458;-0.0814846;-0.0233538;1;0.740609;-0.519562;3.58402;0.00292594;fp_not_a_fp;-1;0.205535;
265762;2957.248570;278;286;32.5512;2;0.0428369;12;276.772;286.228;0;313;1;1;0.439634;-0.819464;-0.966879;0.435877;-0.818153;-0.96988;1;0.299485;-0.0750707;0.0232667;1;-0.734555;0.0284847;4.46477;0.00292081;fp_not_a_fp;-1;0.205506;
265763;2957.259698;276;286;32.5233;2;0.0628996;12;276.876;286.33;0;314;1;1;0.445857;-0.820201;-0.967684;0.439942;-0.818805;-0.968347;1;0.317333;-0.071297;0.0303414;1;0.333451;0.0966562;4.09394;0.00292331;fp_not_a_fp;-1;0.205526;
265764;2957.270826;276;286;32.4574;2;0.0392195;13;274.778;286.329;0;315;1;1;0.446762;-0.821867;-0.969649;0.443165;-0.820608;-0.968198;1;0.29461;-0.0797345;0.0068722;1;-0.136291;-1.07341;1.99395;0.00292921;fp_not_a_fp;-1;0.205527;
265765;2957.281954;274;286;32.442;2.82843;0.0284078;15;274.928;286.286;0;316;1;1;0.452836;-0.822292;-0.970086;0.446272;-0.820956;-0.968575;1;0.317257;-0.0779315;-0.00870999;1;-0.431396;0.0798208;0.328984;0.00414454;fp_not_a_fp;-1;0.205584;
265766;2957.293082;272;288;32.4349;2;0.0778247;22;272.872;286.2;0;317;1;1;0.458755;-0.827373;-0.967003;0.451053;-0.822933;-0.968606;1;0.353994;-0.125478;0.0212875;1;1.22453;-1.1324;-0.0445336;0.00293127;fp_not_a_fp;-1;0.205528;
265767;2957.304210;272;288;32.5561;0;0.11028;9;270.707;288.425;0;318;1;1;0.457046;-0.824291;-0.963402;0.45385;-0.823956;-0.967535;1;0.304438;-0.0938008;0.0722532;1;-0.289767;-0.50549;0.94155;0;fp_not_a_fp;-1;0.205524;
265768;2957.315337;270;288;32.647;2.82843;0.0469815;23;270.83;288.466;0;319;1;1;0.461598;-0.822032;-0.960697;0.457559;-0.823997;-0.965297;1;0.297309;-0.0428501;0.115106;1;0.0605581;0.828801;2.43161;0.00411851;fp_not_a_fp;-1;0.205536;
265769;2957.326466;268;288;32.6478;2.82843;0.0440612;11;268.741;288.424;0;320;1;1;0.467411;-0.822046;-0.960648;0.461203;-0.823936;-0.962938;1;0.323057;-0.0164869;0.118691;1;0.130173;1.38053;2.86223;0.00411842;fp_not_a_fp;-1;0.205573;
265770;2957.337594;268;288;32.6587;2.82843;0.0351352;19;266.609;288.352;0;321;1;1;0.467255;-0.821772;-0.960328;0.463328;-0.822536;-0.961269;1;0.290706;-0.000349584;0.108702;1;-1.42191;2.8112;1.96394;0.00411703;fp_not_a_fp;-1;0.205499;
265771;2957.348721;266;290;32.65;2;0.0484806;12;266.765;288.246;0;322;1;1;0.473161;-0.826859;-0.957311;0.467356;-0.823178;-0.959746;1;0.307956;-0.0519451;0.125298;1;0.0789812;0.940346;1.19176;0.00291196;fp_not_a_fp;-1;0.205536;
265772;2957.359850;264;290;32.532;2;0.0258604;13;264.699;290.458;0;323;1;1;0.480722;-0.829893;-0.960759;0.472137;-0.825143;-0.959762;1;0.362463;-0.101416;0.0766542;1;1.46362;-1.31573;-0.863785;0.00292252;fp_not_a_fp;-1;0.205548;
265773;2957.370978;264;290;32.5756;2.82843;0.0351352;11;262.589;290.485;0;324;1;1;0.480078;-0.828782;-0.959473;0.475304;-0.826827;-0.959468;1;0.33138;-0.0961913;0.061516;1;0.186882;-1.79058;-1.28443;0.00412754;fp_not_a_fp;-1;0.205517;
265774;2957.382105;262;290;32.7791;2.82843;0.0488497;15;262.752;290.435;0;325;1;1;0.482899;-0.823672;-0.953492;0.479215;-0.827302;-0.957759;1;0.308595;-0.0231839;0.115964;1;0.401781;-0.512876;0.163265;0.00410191;fp_not_a_fp;-1;0.205502;
265775;2957.393234;260;290;32.5522;2.82843;0.0422971;21;260.684;290.362;0;326;1;1;0.492107;-0.82945;-0.960116;0.483952;-0.82795;-0.95846;1;0.365353;-0.0562766;0.0477556;1;1.28929;-0.0971193;-1.74185;0.00413052;fp_not_a_fp;-1;0.205571;
265776;2957.404361;260;290;32.5312;2.82843;0.025918;19;258.581;290.25;0;327;1;1;0.492425;-0.829986;-0.960737;0.486877;-0.827973;-0.958455;1;0.345853;-0.068918;0.00636451;1;-0.373277;0.730217;-1.579;0.00413317;fp_not_a_fp;-1;0.205523;
265777;2957.415489;260;290;32.5012;2;0.0216843;13;258.749;290.173;0;328;1;1;0.492878;-0.83075;-0.961622;0.490077;-0.828465;-0.958992;1;0.298881;-0.074116;-0.0216979;1;-0.730266;0.496053;-1.86936;0.00292528;fp_not_a_fp;-1;0.205529;
265778;2957.426618;258;290;32.2091;2.82843;0.0326097;17;258.978;290.119;0;329;1;1;0.503252;-0.838321;-0.970319;0.495165;-0.832127;-0.963199;1;0.360244;-0.153578;-0.130215;1;1.16015;-2.92927;-5.53043;0.00417449;fp_not_a_fp;-1;0.2055;
265779;2957.437746;258;290;32.1413;4.47214;0.0670812;15;256.961;290.081;0;330;1;1;0.504314;-0.840089;-0.972366;0.498217;-0.834787;-0.966261;1;0.351823;-0.187097;-0.181913;1;-0.3041;-2.93891;-5.15962;0.00661441;fp_not_a_fp;-1;0.205542;
265780;2957.448873;256;290;32.3584;2;0.0623176;10;257.115;290.055;0;331;1;1;0.506807;-0.834489;-0.96582;0.501813;-0.835913;-0.967532;1;0.332048;-0.112899;-0.105039;1;-0.310282;-0.987905;-2.50259;0.00293817;fp_not_a_fp;-1;0.205512;
265781;2957.460002;256;290;32.3732;2;0.0354735;12;255.001;290.038;0;332;1;1;0.506575;-0.834107;-0.965378;0.505237;-0.836752;-0.968471;1;0.278864;-0.0634568;-0.0548038;1;-0.449729;0.239566;-0.743623;0.00293686;fp_not_a_fp;-1;0.205562;
265782;2957.471129;254;290;32.3291;2;0.058652;13;255.081;290.026;0;333;1;1;0.513148;-0.835281;-0.966671;0.507711;-0.835992;-0.967559;1;0.296656;-0.0483795;-0.0418739;1;-1.4285;2.36338;1.98466;0.00294091;fp_not_a_fp;-1;0.205516;
265783;2957.482257;254;288;32.1887;2.82843;0.050462;18;252.979;290.017;0;334;1;1;0.515428;-0.834021;-0.974182;0.510489;-0.834475;-0.968013;1;0.292306;-0.0215332;-0.117285;1;-1.33703;3.71956;1.45191;0.00417717;fp_not_a_fp;-1;0.205538;
265784;2957.493384;254;288;31.9426;2;0.0354735;14;253.07;287.727;0;335;1;1;0.519399;-0.840447;-0.981688;0.513637;-0.835964;-0.97198;1;0.298748;-0.0813541;-0.219532;1;-0.748015;0.708553;-2.57243;0.00297644;fp_not_a_fp;-1;0.205529;
265785;2957.504512;252;288;31.964;2.82843;0.0396589;21;253.263;287.645;0;336;1;1;0.525;-0.839919;-0.981006;0.518244;-0.837417;-0.975887;1;0.327499;-0.0896557;-0.225967;1;1.09265;-0.588638;-3.84552;0.0042065;fp_not_a_fp;-1;0.205581;
265786;2957.515640;252;288;32.211;2.82843;0.0115517;16;251.151;287.655;0;337;1;1;0.520975;-0.83348;-0.973485;0.5202;-0.836967;-0.977591;1;0.251472;-0.00783973;-0.113596;1;-1.01522;0.910814;-1.61133;0.00417425;fp_not_a_fp;-1;0.205509;
265787;2957.526767;252;288;32.0956;0;0.11028;13;251.236;287.701;0;338;1;1;0.522847;-0.836476;-0.976984;0.522055;-0.837581;-0.978291;1;0.209441;-0.00736726;-0.0927749;1;-1.86178;0.318288;0.550678;0;fp_not_a_fp;-1;0.205552;
265788;2957.537895;250;288;31.7754;2;0.0522757;10;251.374;287.791;0;339;1;1;0.5341;-0.844941;-0.986804;0.525731;-0.838704;-0.97957;1;0.294331;-0.103253;-0.184892;1;-0.0994487;-0.491814;0.778433;0.00299211;fp_not_a_fp;-1;0.205553;
265789;2957.549022;250;288;31.7646;2;0.0172114;8;249.233;287.857;0;340;1;1;0.534283;-0.84523;-0.987142;0.528051;-0.840032;-0.981104;1;0.293966;-0.133025;-0.203251;1;-0.753537;-0.974214;0.510553;0.00299313;fp_not_a_fp;-1;0.205549;
265790;2957.560150;248;288;31.7992;2;0.0317708;8;249.301;287.901;0;341;1;1;0.53968;-0.844344;-0.986041;0.532727;-0.842748;-0.984243;1;0.318186;-0.11821;-0.172295;1;1.49875;-2.47956;-1.31865;0.00298985;fp_not_a_fp;-1;0.205511;
265791;2957.571278;248;286;31.6899;2.82843;0.0840963;10;247.135;287.932;0;342;1;1;0.541585;-0.842279;-0.992792;0.537412;-0.844199;-0.988195;1;0.309454;-0.0733363;-0.214906;1;2.24689;-1.48206;-2.74371;0.00424289;fp_not_a_fp;-1;0.205538;
265792;2957.582405;248;286;31.5196;2;0.00794971;6;247.178;285.672;0;343;1;1;0.544511;-0.846829;-0.998155;0.540015;-0.844671;-0.991033;1;0.29991;-0.0975908;-0.266578;1;0.125369;0.127129;-1.83519;0.0030164;fp_not_a_fp;-1;0.205525;
265793;2957.593532;246;288;31.5133;2;0.0684051;4;247.335;285.606;0;344;1;1;0.55061;-0.852042;-0.994964;0.544097;-0.846374;-0.992989;1;0.327627;-0.154927;-0.217348;1;0.756278;-0.492173;-0.316646;0.00301697;fp_not_a_fp;-1;0.205572;
265794;2957.604661;246;286;31.7079;2;0.0471144;7;245.201;287.91;0;345;1;1;0.547275;-0.841837;-0.992204;0.545995;-0.845747;-0.994529;1;0.25906;-0.0418867;-0.137647;1;-1.32827;1.71449;0.778387;0.00299852;fp_not_a_fp;-1;0.205496;
265795;2957.615788;244;286;31.7051;2.82843;0.0685038;9;245.272;285.765;0;346;1;1;0.55332;-0.841947;-0.992267;0.548929;-0.845664;-0.994398;1;0.266979;0.008907;-0.0878738;1;-0.954188;1.84758;2.85393;0.00424086;fp_not_a_fp;-1;0.205532;
265796;2957.626915;244;286;31.7482;2;0.00299677;10;243.11;285.765;0;347;1;1;0.55257;-0.840805;-0.990921;0.550944;-0.844158;-0.992589;1;0.227597;0.0418488;-0.0406719;1;-1.62452;3.13261;5.07535;0.00299465;fp_not_a_fp;-1;0.205525;
265797;2957.638043;242;286;31.5729;2;0.0280229;5;243.154;285.795;0;348;1;1;0.56166;-0.845509;-0.996398;0.553706;-0.842525;-0.992948;1;0.286482;-0.00379384;-0.0787512;1;-0.924383;3.39543;3.11381;0.00301128;fp_not_a_fp;-1;0.205568;
265798;2957.649171;240;286;31.1987;2;0.0331121;10;241.032;285.803;0;349;1;1;0.574491;-0.855687;-1.00832;0.56051;-0.845987;-0.996978;1;0.421356;-0.138835;-0.221144;1;3.64629;-2.17811;-1.87592;0.00304743;fp_not_a_fp;-1;0.205534;
265799;2957.660298;240;286;31.3157;2;0.00994359;11;238.834;285.864;0;350;1;1;0.572345;-0.852491;-1.00456;0.565267;-0.848624;-1.00005;1;0.398759;-0.140306;-0.208622;1;2.96066;-3.35235;-2.71284;0.00303604;fp_not_a_fp;-1;0.205514;
265800;2957.671426;238;286;31.004;2;0.0303975;9;238.922;285.906;0;351;1;1;0.584232;-0.861098;-1.01463;0.573182;-0.853697;-1.00598;1;0.4748;-0.221667;-0.292298;1;5.55373;-5.92028;-5.65314;0.00306653;fp_not_a_fp;-1;0.205498;
265801;2957.682553;238;286;30.8787;2;0.00994359;10;236.83;285.936;0;352;1;1;0.586603;-0.864593;-1.01875;0.579418;-0.858468;-1.01157;1;0.472841;-0.267073;-0.336795;1;4.18685;-5.91503;-5.79737;0.00307899;fp_not_a_fp;-1;0.205581;
265802;2957.693681;238;286;31.0593;0;0.0878121;3;236.969;285.956;0;353;1;1;0.583191;-0.859563;-1.01282;0.581593;-0.859437;-1.01269;1;0.372607;-0.194123;-0.244295;1;-1.09543;-1.24199;-0.519954;0;fp_not_a_fp;-1;0.205516;
265803;2957.704809;236;284;31.016;2.82843;0.10237;12;237.181;285.97;0;354;1;1;0.590181;-0.855714;-1.01763;0.586052;-0.860242;-1.01596;1;0.363775;-0.0950949;-0.230055;1;-0.786128;1.01576;-0.481402;0.00433513;fp_not_a_fp;-1;0.205543;
265804;2957.715936;236;284;31.016;2.82843;0.10237;12;235.095;283.698;1;0;1;1;0.594174;-0.856708;-1.02022;0.588537;-0.859145;-1.01736;1;0.359502;-0.0534338;-0.224469;1;-2.59043;3.7796;1.52395;-1;fp_not_a_fp;-1;0.205513;
265805;2957.727063;234;284;31.2796;2;0.154163;5;234.171;283.277;0;1;1;1;0.591287;-0.848541;-1.00904;0.589708;-0.855132;-1.01493;1;0.278788;0.0642138;-0.0653257;1;-4.35984;7.44297;6.09917;0.00303953;fp_not_a_fp;-1;0.205553;
265806;2957.738192;232;284;30.6284;2;0.026118;7;233.018;283.621;0;2;1;1;0.610066;-0.866619;-1.03046;0.596427;-0.856896;-1.01934;1;0.425117;-0.102563;-0.236822;1;1.17943;2.05733;0.168302;0.00310417;fp_not_a_fp;-1;0.205545;
265807;2957.749319;230;284;30.586;2.82843;0.0709355;6;230.862;283.697;0;3;1;1;0.617128;-0.867858;-1.03187;0.603164;-0.859932;-1.0229;1;0.512316;-0.172597;-0.293563;1;3.33698;-1.74088;-1.42645;0.00439605;fp_not_a_fp;-1;0.205565;
265808;2957.760446;230;284;31.2157;2;0.00216309;6;228.687;283.795;0;4;1;1;0.60468;-0.850351;-1.01105;0.60579;-0.858343;-1.0206;1;0.340303;0.0211551;-0.0409631;1;-0.431785;1.67631;4.12343;0.00304573;fp_not_a_fp;-1;0.20551;
265809;2957.771574;228;286;30.5758;2;0.0522353;3;228.765;283.863;0;5;1;1;0.623507;-0.873344;-1.02871;0.613845;-0.864543;-1.02552;1;0.44161;-0.165015;-0.133789;1;3.65756;-5.14932;-1.53748;0.00310954;fp_not_a_fp;-1;0.205569;
265810;2957.782701;228;286;30.5758;2;0.0522353;3;226.726;286.19;1;0;1;1;0.62864;-0.875495;-1.03029;0.618489;-0.866762;-1.02548;1;0.485982;-0.245566;-0.173212;1;1.36719;-3.21242;1.42945;-1;fp_not_a_fp;-1;0.205512;
265811;2957.793829;226;286;30.8185;0;0.194883;2;225.44;286.516;0;1;1;1;0.624767;-0.866504;-1.02059;0.620398;-0.866424;-1.02266;1;0.397941;-0.144466;-0.0561404;1;-2.57001;0.632532;5.3346;0;fp_not_a_fp;-1;0.205569;
265812;2957.804957;226;286;30.8185;0;0.194883;2;224.787;286.318;1;0;1;1;0.62903;-0.86807;-1.02088;0.626486;-0.870854;-1.02512;1;0.35966;-0.102207;-0.00397416;1;0.434763;-2.77132;0.831142;-1;fp_not_a_fp;-1;0.205533;
265813;2957.816084;226;286;30.8185;0;0.194883;2;223.593;286.635;2;0;1;1;0.633053;-0.869377;-1.02087;0.628872;-0.869862;-1.02316;1;0.344082;-0.0866847;0.0181732;1;-2.19117;1.75983;3.41412;-1;fp_not_a_fp;-1;0.205536;
265814;2957.827211;222;286;30.4912;0;0.200337;3;222.418;286.926;0;1;1;1;0.643945;-0.87588;-1.03149;0.632699;-0.869958;-1.02346;1;0.418612;-0.143761;-0.096689;1;-1.51355;2.2872;1.71918;0;fp_not_a_fp;-1;0.205483;
265815;2957.838340;222;286;30.4912;0;0.200337;3;220.787;286.147;1;0;1;1;0.648503;-0.877336;-1.03246;0.638633;-0.872666;-1.02643;1;0.448261;-0.165701;-0.142922;1;1.13055;-0.477139;-1.94975;-1;fp_not_a_fp;-1;0.205553;
265816;2957.849467;222;286;30.4912;0;0.200337;3;219.55;286.241;2;0;1;1;0.653554;-0.879207;-1.03417;0.644764;-0.87545;-1.02975;1;0.46123;-0.175076;-0.163381;1;2.28194;-1.63712;-3.58134;-1;fp_not_a_fp;-1;0.205548;
265817;2957.860594;218;286;30.5091;0;0.187909;3;218.307;286.309;0;1;1;1;0.656032;-0.875441;-1.03084;0.650508;-0.876966;-1.03224;1;0.436169;-0.11345;-0.112791;1;2.06889;-0.601267;-2.94229;0;fp_not_a_fp;-1;0.205552;
265818;2957.871722;216;286;30.17;0;0.0551823;4;216.706;286.01;0;2;1;1;0.669708;-0.885319;-1.0424;0.656949;-0.879326;-1.03497;1;0.526938;-0.186738;-0.210014;1;2.43355;-0.96534;-2.54579;0;fp_not_a_fp;-1;0.205517;
265819;2957.882849;214;286;29.9474;2;0.0613481;5;214.607;285.994;0;3;1;1;0.681037;-0.891939;-1.05012;0.665083;-0.882977;-1.03938;1;0.627093;-0.269092;-0.311943;1;4.01771;-2.32275;-3.79724;0.00317475;fp_not_a_fp;-1;0.205543;
265820;2957.893977;212;286;29.8133;2;0.0660461;3;212.488;285.987;0;4;1;1;0.690478;-0.89599;-1.05482;0.674314;-0.887173;-1.04454;1;0.696721;-0.315234;-0.368126;1;5.29063;-3.1488;-4.59986;0.00318902;fp_not_a_fp;-1;0.205526;
265821;2957.905105;212;286;29.8114;0;0.030975;4;210.373;285.984;0;5;1;1;0.690522;-0.896048;-1.05489;0.682936;-0.892324;-1.05056;1;0.637136;-0.294754;-0.345166;1;4.5151;-4.07331;-5.22069;0;fp_not_a_fp;-1;0.205531;
265822;2957.916232;212;286;29.8114;0;0.030975;4;210.551;285.988;1;0;1;1;0.69788;-0.899574;-1.05904;0.689979;-0.895888;-1.05472;1;0.615589;-0.289118;-0.339306;1;1.99182;-2.30024;-2.90488;-1;fp_not_a_fp;-1;0.205522;
265823;2957.927360;208;286;29.949;2;0.151358;3;209.195;285.978;0;1;1;1;0.700047;-0.892006;-1.04999;0.694732;-0.895905;-1.05468;1;0.552998;-0.16316;-0.189785;1;-1.66463;2.38001;2.74455;0.00317457;fp_not_a_fp;-1;0.20552;
265824;2957.938487;208;286;29.8492;0;2.68221e-07;2;206.509;285.994;0;2;1;1;0.702387;-0.894988;-1.0535;0.697709;-0.895654;-1.05435;1;0.483423;-0.124477;-0.144024;1;-4.79214;4.28579;5.03496;0;fp_not_a_fp;-1;0.205527;
265825;2957.949615;206;286;29.5237;0;0.0442321;3;206.68;285.996;0;3;1;1;0.716571;-0.904894;-1.06508;0.704221;-0.897866;-1.0569;1;0.555584;-0.206155;-0.239567;1;-1.83242;1.99078;2.37277;0;fp_not_a_fp;-1;0.205554;
265826;2957.960742;206;286;29.5237;0;0.0442321;3;204.65;285.997;1;0;1;1;0.722631;-0.907062;-1.0676;0.710409;-0.899738;-1.05904;1;0.584009;-0.238464;-0.277328;1;-0.709678;1.13824;1.3927;-1;fp_not_a_fp;-1;0.205536;
265827;2957.971869;206;286;29.5237;0;0.0442321;3;203.288;285.996;2;0;1;1;0.729076;-0.909641;-1.0706;0.717666;-0.904146;-1.0642;1;0.595145;-0.250966;-0.291897;1;0.946776;-1.97259;-2.29398;-1;fp_not_a_fp;-1;0.205538;
265828;2957.982998;206;286;29.5237;0;0.0442321;3;201.947;285.994;3;0;1;1;0.735748;-0.912551;-1.07398;0.726007;-0.908537;-1.06932;1;0.600301;-0.257479;-0.299484;1;2.62578;-2.98801;-3.49258;-1;fp_not_a_fp;-1;0.205511;
265829;2957.994125;206;286;29.5237;0;0.0442321;3;200.598;285.992;4;0;1;1;0.74258;-0.915597;-1.07752;0.732509;-0.911213;-1.07243;1;0.604176;-0.262235;-0.305036;1;1.09174;-1.25997;-1.47092;-1;fp_not_a_fp;-1;0.205539;
265830;2958.005252;206;286;29.5237;0;0.0442321;3;199.26;285.991;5;0;1;1;0.74936;-0.918588;-1.081;0.739191;-0.914094;-1.07578;1;0.606439;-0.265045;-0.308314;1;0.503944;-0.597192;-0.696168;-1;fp_not_a_fp;-1;0.205534;
265831;2958.016381;206;286;29.5237;0;0.0442321;3;197.932;285.989;6;0;1;1;0.756129;-0.92157;-1.08447;0.745954;-0.917076;-1.07925;1;0.607612;-0.266575;-0.310101;1;0.280081;-0.350686;-0.40897;-1;fp_not_a_fp;-1;0.205569;
265832;2958.027508;206;286;29.5237;0;0.0442321;3;196.613;285.987;7;0;1;1;0.762898;-0.924553;-1.08794;0.752742;-0.920077;-1.08274;1;0.608182;-0.267405;-0.311071;1;0.177081;-0.223009;-0.260309;-1;fp_not_a_fp;-1;0.205548;
265833;2958.038635;206;286;29.5237;0;0.0442321;3;195.303;285.986;8;0;1;1;0.769666;-0.927538;-1.09142;0.759513;-0.923062;-1.08621;1;0.608431;-0.267855;-0.311599;1;0.0955992;-0.126263;-0.147448;-1;fp_not_a_fp;-1;0.205565;
265834;2958.049763;206;286;29.5237;0;0.0442321;3;194.002;285.984;9;0;1;1;0.776433;-0.930522;-1.09489;0.766282;-0.926046;-1.08968;1;0.608481;-0.268078;-0.311859;1;0.0458747;-0.0681427;-0.0796297;-1;fp_not_a_fp;-1;0.205531;
265835;2958.060890;206;286;29.5237;0;0.0442321;3;192.71;285.982;10;0;1;1;0.783197;-0.933505;-1.09836;0.773048;-0.92903;-1.09315;1;0.608424;-0.268169;-0.311965;1;0.0182339;-0.035809;-0.0418822;-1;fp_not_a_fp;-1;0.205547;
265836;2958.072018;206;286;29.5237;0;0.0442321;3;191.426;285.981;11;0;1;1;0.789958;-0.936487;-1.10183;0.779813;-0.932013;-1.09662;1;0.6083;-0.268181;-0.31198;1;0.00264208;-0.0174491;-0.0204174;-1;fp_not_a_fp;-1;0.205528;
265837;2958.083146;206;286;29.5237;0;0.0442321;3;190.15;285.979;12;0;1;1;0.796717;-0.939468;-1.10529;0.786576;-0.934995;-1.10009;1;0.608133;-0.268146;-0.311939;1;-0.00669825;-0.00654099;-0.00763857;-1;fp_not_a_fp;-1;0.20554;
265838;2958.094273;206;286;29.5237;0;0.0442321;3;188.883;285.978;13;0;1;1;0.803474;-0.942447;-1.10876;0.793336;-0.937977;-1.10356;1;0.607947;-0.268086;-0.311869;1;-0.0120039;-0.000175821;-0.000220909;-1;fp_not_a_fp;-1;0.205478;
265839;2958.105401;188;282;28.9485;0;0.269339;2;187.625;285.976;0;1;1;1;0.79002;-0.91233;-1.09334;0.795042;-0.932683;-1.10231;1;0.376114;0.111359;-0.095295;1;-5.21928;8.52682;4.86791;0;fp_not_a_fp;-1;0.20554;
265840;2958.116529;186;282;28.5153;2;0.158584;3;186.769;281.428;0;2;1;1;0.808692;-0.926232;-1.10992;0.799726;-0.930119;-1.10433;1;0.446341;0.0946265;-0.183726;1;-3.63882;8.1512;2.88159;0.00333416;fp_not_a_fp;-1;0.205533;
265841;2958.127656;186;282;28.9238;0;0.0277775;2;184.7;281.271;0;3;1;1;0.797269;-0.913149;-1.09425;0.799864;-0.92354;-1.10157;1;0.287501;0.225604;-0.0171355;1;-7.20379;11.0931;6.62353;0;fp_not_a_fp;-1;0.205559;
265842;2958.138783;186;282;28.9238;0;0.0277775;2;184.831;281.284;1;0;1;1;0.800019;-0.909958;-1.09403;0.799;-0.915417;-1.09788;1;0.216709;0.287541;0.0564024;1;-8.79013;12.4833;8.27416;-1;fp_not_a_fp;-1;0.20557;
265843;2958.149911;184;280;29.9377;0;0.192426;2;183.722;280.563;0;1;1;1;0.776666;-0.876992;-1.06071;0.795661;-0.906583;-1.08973;1;-0.107868;0.654321;0.461532;1;-10.8735;12.1985;12.51;0;fp_not_a_fp;-1;0.205518;
265844;2958.161039;184;280;29.9377;0;0.192426;2;182.913;279.22;1;0;1;1;0.774796;-0.868969;-1.05481;0.787188;-0.892267;-1.07595;1;-0.249677;0.814408;0.637723;1;-15.6372;16.171;18.4552;-1;fp_not_a_fp;-1;0.205488;
265845;2958.172166;182;280;28.8274;0;0.213;4;181.85;278.4;0;1;1;1;0.813176;-0.91081;-1.10153;0.791164;-0.891682;-1.07777;1;0.163503;0.297071;0.0935674;1;-2.78538;1.60506;2.48654;0;fp_not_a_fp;-1;0.205525;
265846;2958.183294;182;280;29.1584;0;0.0624996;2;181.003;279.425;0;2;1;1;0.803945;-0.900471;-1.08903;0.792146;-0.88931;-1.07652;1;0.207599;0.163887;7.22558e-05;1;-0.204209;-2.77853;-1.26608;0;fp_not_a_fp;-1;0.205559;
265847;2958.194421;182;280;29.1584;0;0.0624996;2;181.149;279.587;1;0;1;1;0.806239;-0.898821;-1.08911;0.799539;-0.894768;-1.08362;1;0.225641;0.106851;-0.0394621;1;7.49306;-12.3001;-11.2559;-1;fp_not_a_fp;-1;0.205543;
265848;2958.205549;182;280;29.1584;0;0.0624996;2;180.364;279.257;2;0;1;1;0.809209;-0.898393;-1.09024;0.808142;-0.902124;-1.09248;1;0.238357;0.0745581;-0.0637567;1;10.9648;-16.6223;-15.7603;-1;fp_not_a_fp;-1;0.205528;
265849;2958.216677;182;280;29.1584;0;0.0624996;2;179.612;278.969;3;0;1;1;0.812534;-0.898591;-1.09192;0.807982;-0.899069;-1.09008;1;0.251322;0.0494379;-0.0849355;1;1.97295;-5.56335;-4.01026;-1;fp_not_a_fp;-1;0.205555;
265850;2958.227804;182;280;29.1584;0;0.0624996;2;178.877;278.682;4;0;1;1;0.815448;-0.898385;-1.09311;0.810857;-0.898547;-1.0911;1;0.25803;0.0351106;-0.0965111;1;1.13302;-2.89321;-2.16993;-1;fp_not_a_fp;-1;0.20552;
265851;2958.238931;182;280;29.1584;0;0.0624996;2;178.136;278.391;5;0;1;1;0.818385;-0.898173;-1.09432;0.813894;-0.898385;-1.0924;1;0.261557;0.0271362;-0.102811;1;0.806911;-1.79093;-1.42324;-1;fp_not_a_fp;-1;0.205558;
265852;2958.250059;182;280;29.1584;0;0.0624996;2;177.397;278.1;6;0;1;1;0.821341;-0.897982;-1.09555;0.816927;-0.898283;-1.09373;1;0.263534;0.022569;-0.106401;1;0.565645;-1.16799;-0.958048;-1;fp_not_a_fp;-1;0.205554;
265853;2958.261187;182;280;29.1584;0;0.0624996;2;176.659;277.811;7;0;1;1;0.824304;-0.897803;-1.09679;0.81987;-0.898086;-1.09494;1;0.264703;0.0198512;-0.108542;1;0.300639;-0.664731;-0.530373;-1;fp_not_a_fp;-1;0.205533;
265854;2958.272314;182;280;29.1584;0;0.0624996;2;175.923;277.522;8;0;1;1;0.827264;-0.897624;-1.09803;0.822824;-0.897896;-1.09617;1;0.265349;0.0182559;-0.109783;1;0.164442;-0.378676;-0.29817;-1;fp_not_a_fp;-1;0.205535;
265855;2958.283442;182;280;29.1584;0;0.0624996;2;175.187;277.234;9;0;1;1;0.830222;-0.897444;-1.09927;0.825783;-0.897713;-1.09741;1;0.265681;0.0173238;-0.110483;1;0.0926551;-0.220447;-0.172366;-1;fp_not_a_fp;-1;0.205577;
265856;2958.294569;182;280;29.1584;0;0.0624996;2;174.454;276.946;10;0;1;1;0.83318;-0.897265;-1.10051;0.828743;-0.897534;-1.09865;1;0.265835;0.0167793;-0.110875;1;0.0517;-0.130076;-0.100512;-1;fp_not_a_fp;-1;0.205534;
265857;2958.305697;182;280;29.1584;0;0.0624996;2;173.721;276.659;11;0;1;1;0.836137;-0.897087;-1.10174;0.831701;-0.897355;-1.09989;1;0.265887;0.0164598;-0.111086;1;0.0265981;-0.0761943;-0.057165;-1;fp_not_a_fp;-1;0.205497;
265858;2958.316825;182;280;29.1584;0;0.0624996;2;172.99;276.373;12;0;1;1;0.839093;-0.896909;-1.10298;0.834658;-0.897177;-1.10113;1;0.265875;0.0162709;-0.111192;1;0.0117994;-0.044596;-0.031656;-1;fp_not_a_fp;-1;0.205523;
265859;2958.327952;182;280;29.1584;0;0.0624996;2;172.26;276.086;13;0;1;1;0.842048;-0.896731;-1.10422;0.837615;-0.896998;-1.10236;1;0.265829;0.0161577;-0.111238;1;0.00333851;-0.0261997;-0.0169512;-1;fp_not_a_fp;-1;0.205543;
265860;2958.339079;182;280;29.1584;0;0.0624996;2;171.531;275.801;14;0;1;1;0.845002;-0.896553;-1.10546;0.84057;-0.89682;-1.1036;1;0.265764;0.0160902;-0.111249;1;-0.00159633;-0.015484;-0.00841173;-1;fp_not_a_fp;-1;0.205536;
265861;2958.350208;182;280;29.1584;0;0.0624996;2;170.803;275.516;15;0;1;1;0.847955;-0.896375;-1.10669;0.843525;-0.896642;-1.10484;1;0.265685;0.0160493;-0.111237;1;-0.00454166;-0.00922246;-0.00338353;-1;fp_not_a_fp;-1;0.205546;
265862;2958.361335;182;280;29.1584;0;0.0624996;2;170.076;275.231;16;0;1;1;0.850907;-0.896197;-1.10793;0.846478;-0.896464;-1.10607;1;0.2656;0.0160241;-0.111216;1;-0.00617212;-0.00554612;-0.000540412;-1;fp_not_a_fp;-1;0.205548;
265863;2958.372462;182;280;29.1584;0;0.0624996;2;169.351;274.946;17;0;1;1;0.853857;-0.896019;-1.10916;0.84943;-0.896286;-1.10731;1;0.265511;0.0160072;-0.111186;1;-0.00714837;-0.00338066;0.00116434;-1;fp_not_a_fp;-1;0.205522;
265864;2958.383590;-1;-1;-1;-1;-1;-1;168.627;274.663;18;0;0;1;0.853857;-0.896019;-1.10916;0.84943;-0.896286;-1.10731;1;0.265511;0.0160072;-0.111186;1;-0.00714837;-0.00338066;0.00116434;-1;fp_not_a_fp;-1;0.205545;
265865;2958.394718;-1;-1;-1;-1;-1;-1;168.627;274.663;19;0;0;1;0.853857;-0.896019;-1.10916;0.84943;-0.896286;-1.10731;1;0.265511;0.0160072;-0.111186;1;-0.00714837;-0.00338066;0.00116434;-1;fp_not_a_fp;-1;0.20554;
