rs_id;elapsed;imLx_insect;imLy_insect;disparity_insect;size_insect;score_insect;motion_sum_insect;imLx_pred_insect;imLy_pred_insect;n_frames_lost_insect;n_frames_tracking_insect;foundL_insect;pos_valid_insect;posX_insect;posY_insect;posZ_insect;sposX_insect;sposY_insect;sposZ_insect;vel_valid_insect;svelX_insect;svelY_insect;svelZ_insect;acc_valid_insect;saccX_insect;saccY_insect;saccZ_insect;radius_insect;fp;hunt_id;light_level;
280876;3125.428037;90;316;26.769;4.47214;0;31;-1;-1;0;1;1;1;1.17731;-1.06959;-1.11474;1.17731;-1.06959;-1.11474;0;0;0;0;0;0;0;0;0.00791836;fp_not_a_fp;-1;0.205531;
280877;3125.439164;88;316;26.5461;5.65685;0.0286797;18;90;316;0;2;1;1;1.19433;-1.07853;-1.12414;1.18582;-1.07406;-1.11944;1;0.195199;-0.10244;-0.107667;0;0;0;0;0.0101001;fp_not_a_fp;-1;0.205547;
280878;3125.450292;94;314;26.7154;4.47214;0.0972942;11;87.7477;316;0;3;1;1;1.16542;-1.06594;-1.12088;1.17902;-1.07136;-1.11992;1;-0.0803956;0.0125715;-0.10108;0;-24.7649;10.335;0.591905;0.00793421;fp_not_a_fp;-1;0.205495;
280879;3125.461420;94;314;26.7358;4.47214;0.0182373;77;94.4336;313.747;0;4;1;1;1.16453;-1.06513;-1.12002;1.1754;-1.0698;-1.11994;1;-0.194255;0.0678479;-0.0756346;0;-17.4987;7.65132;1.43935;0.00792819;fp_not_a_fp;-1;0.205518;
280880;3125.472547;96;312;26.8068;4.47214;0.0713116;32;94.6659;313.673;0;5;1;1;1.15432;-1.05648;-1.12096;1.16965;-1.06652;-1.1215;1;-0.333581;0.181161;-0.0663054;0;-15.8396;8.49542;1.23904;0.00790721;fp_not_a_fp;-1;0.205541;
280881;3125.483675;100;312;27.0891;5.65685;0.0810327;31;96.9345;311.428;0;6;1;1;1.12829;-1.04556;-1.10922;1.15314;-1.05828;-1.11777;1;-0.646933;0.330057;0.0806074;0;-18.9192;9.71651;4.22968;0.00989759;fp_not_a_fp;-1;0.205519;
280882;3125.494802;100;312;27.3218;7.2111;0.0114591;126;101.454;311.392;0;7;1;1;1.11868;-1.03665;-1.09977;1.14146;-1.05096;-1.1125;1;-0.804067;0.451568;0.239332;1;-16.2583;9.86281;7.64782;0.0125096;fp_not_a_fp;-1;0.205518;
280883;3125.505929;102;310;27.1894;4.47214;0.0519397;43;101.626;311.417;0;8;1;1;1.11711;-1.03596;-1.10899;1.1296;-1.04366;-1.10974;1;-0.784514;0.452138;0.168775;1;-13.2609;8.6337;5.49091;0.00779592;fp_not_a_fp;-1;0.205491;
280884;3125.517058;106;310;27.3876;4.47214;0.0768439;30;103.679;309.244;0;9;1;1;1.09518;-1.02855;-1.1009;1.11482;-1.03668;-1.10472;1;-0.927707;0.479612;0.210759;1;-13.3474;6.70499;6.22446;0.0077396;fp_not_a_fp;-1;0.205547;
280885;3125.528185;106;310;27.4308;7.2111;0.0114591;175;108.056;309.298;0;10;1;1;1.09345;-1.02693;-1.09917;1.10611;-1.03202;-1.10221;1;-0.888341;0.448372;0.221116;1;-5.42347;2.65817;3.15677;0.0124599;fp_not_a_fp;-1;0.205513;
280886;3125.539313;108;308;27.2375;4.47214;0.0508436;43;107.875;309.412;0;11;1;1;1.0942;-1.02848;-1.11082;1.09998;-1.02998;-1.10497;1;-0.750222;0.360472;0.0636636;1;1.21003;-2.04671;-3.94683;0.00778216;fp_not_a_fp;-1;0.205524;
280887;3125.550441;110;308;27.4875;4.47214;0.0386391;73;109.836;307.248;0;12;1;1;1.07735;-1.01917;-1.10068;1.09004;-1.02579;-1.10289;1;-0.790591;0.384892;0.106632;1;-0.136188;-1.51091;-1.39631;0.00771134;fp_not_a_fp;-1;0.205509;
280888;3125.561568;112;306;27.4992;4.47214;0.0487665;326;111.865;307.302;0;13;1;1;1.06994;-1.01306;-1.10403;1.08374;-1.02191;-1.10368;1;-0.791286;0.415932;0.072415;1;3.06505;-1.43075;-3.10822;0.00770806;fp_not_a_fp;-1;0.205523;
280889;3125.572695;114;306;27.5229;4.47214;0.038613;93;113.857;305.125;0;14;1;1;1.06213;-1.01223;-1.10305;1.07591;-1.01824;-1.10465;1;-0.780168;0.385201;0.0602774;1;2.43037;-1.41933;-3.61363;0.00770145;fp_not_a_fp;-1;0.205543;
280890;3125.583823;118;306;28.0699;5.65685;0.0661268;206;115.906;305.165;0;15;1;1;1.02793;-0.992597;-1.0815;1.05934;-1.00927;-1.09732;1;-1.06812;0.54846;0.294611;1;-7.14175;4.22319;5.18826;0.00955181;fp_not_a_fp;-1;0.205534;
280891;3125.594951;116;304;27.7903;6.32456;0.0876657;428;120.281;305.305;0;16;1;1;1.04504;-0.996874;-1.09621;1.05126;-1.00369;-1.0962;1;-0.854759;0.496946;0.185247;1;-1.44111;2.51722;1.76584;0.0107867;fp_not_a_fp;-1;0.205514;
280892;3125.606078;120;304;27.9156;2.82843;0.131944;120;117.773;303.171;0;17;1;1;1.02677;-0.992486;-1.09123;1.04047;-0.998548;-1.093;1;-0.867028;0.462568;0.173502;1;-1.70118;1.04747;2.2707;0.00480231;fp_not_a_fp;-1;0.205565;
280893;3125.617206;122;302;27.9874;4.47214;0.0419662;369;121.911;303.251;0;18;1;1;1.01731;-0.98436;-1.09218;1.02926;-0.991579;-1.09028;1;-0.869932;0.482497;0.135652;1;-2.0162;2.18564;1.6931;0.00757359;fp_not_a_fp;-1;0.205495;
280894;3125.628333;120;302;27.8002;4.47214;0.057572;521;123.981;301.086;0;19;1;1;1.03097;-0.990943;-1.09956;1.03002;-0.991166;-1.09479;1;-0.603494;0.35373;0.0180892;1;10.439;-4.37511;-6.21265;0.00762468;fp_not_a_fp;-1;0.205535;
280895;3125.639461;126;300;28.1712;4.47214;0.125262;151;121.383;301.146;0;20;1;1;0.997158;-0.972437;-1.08874;1.01805;-0.985057;-1.09293;1;-0.804041;0.467528;0.0911625;1;1.1395;-0.661001;-2.11376;0.00752421;fp_not_a_fp;-1;0.205497;
280896;3125.650589;130;298;28.3132;5.65685;0.0797877;506;127.892;299.006;0;21;1;1;0.978711;-0.962084;-1.08696;1.00604;-0.977456;-1.09186;1;-0.995803;0.573587;0.130237;1;-2.89287;2.49405;-0.972048;0.00946973;fp_not_a_fp;-1;0.2055;
280897;3125.661716;128;298;28.375;4.47214;0.0526964;573;132.384;296.782;0;22;1;1;0.983263;-0.959948;-1.08462;0.997526;-0.971353;-1.08997;1;-0.895858;0.568742;0.156551;1;-0.582128;1.93748;0.469468;0.00747018;fp_not_a_fp;-1;0.20551;
280898;3125.672843;132;298;28.4588;2.82843;0.117221;152;129.952;296.879;0;23;1;1;0.967044;-0.957207;-1.08137;0.981544;-0.962919;-1.08542;1;-0.926212;0.525625;0.184736;1;-7.25028;3.8618;3.74406;0.00471064;fp_not_a_fp;-1;0.205532;
280899;3125.683971;134;296;28.4967;5.65685;0.0522507;661;134.153;297.06;0;24;1;1;0.959053;-0.950452;-1.08361;0.972018;-0.957423;-1.08414;1;-0.912204;0.518178;0.147139;1;-2.42984;1.13778;1.25768;0.00940873;fp_not_a_fp;-1;0.205527;
280900;3125.695099;134;296;28.5375;4.47214;0.00578612;681;136.149;294.994;0;25;1;1;0.95768;-0.949092;-1.08206;0.96676;-0.954175;-1.08291;1;-0.805798;0.464601;0.130612;1;4.26888;-2.44864;0.0085215;0.00742762;fp_not_a_fp;-1;0.205509;
280901;3125.706226;136;294;28.5212;2.82843;0.0854203;191;135.807;295.131;0;26;1;1;0.95153;-0.944159;-1.08635;0.958827;-0.950228;-1.08335;1;-0.729545;0.439745;0.0578845;1;3.73659;-2.89823;-2.21668;0.00470032;fp_not_a_fp;-1;0.205517;
280902;3125.717354;140;294;28.6907;5.65685;0.0950765;829;137.755;293.008;0;27;1;1;0.932692;-0.938665;-1.07988;0.950239;-0.945592;-1.08297;1;-0.820893;0.436349;0.0946671;1;2.36636;-2.00576;-2.0236;0.0093451;fp_not_a_fp;-1;0.20554;
280903;3125.728481;140;294;28.7562;5.65685;0.0285074;694;142.038;293.08;0;28;1;1;0.930568;-0.936527;-1.07742;0.943117;-0.942111;-1.08143;1;-0.778295;0.403802;0.125995;1;3.00878;-2.56974;-0.475128;0.00932385;fp_not_a_fp;-1;0.205491;
280904;3125.739609;144;294;28.9831;5.65685;0.0770597;252;141.858;293.26;0;29;1;1;0.910201;-0.929281;-1.06893;0.931248;-0.937158;-1.07814;1;-0.894874;0.421911;0.220187;1;-2.00114;-0.959109;2.01245;0.00925086;fp_not_a_fp;-1;0.205509;
280905;3125.750736;146;292;29.0902;5.65685;0.0539153;955;146.147;293.425;0;30;1;1;0.900283;-0.92049;-1.0686;0.918436;-0.931241;-1.0737;1;-0.942603;0.476342;0.234823;1;-4.78671;0.82224;3.97527;0.00921679;fp_not_a_fp;-1;0.20553;
280906;3125.761864;144;290;29.0758;6.32456;0.0955904;664;148.253;291.304;0;31;1;1;0.907198;-0.91549;-1.07279;0.912062;-0.925447;-1.07193;1;-0.762838;0.495392;0.162886;1;1.30399;1.32649;1.53284;0.0103097;fp_not_a_fp;-1;0.205534;
280907;3125.772991;148;290;29.2955;5.65685;0.0731942;336;145.641;289.054;0;32;1;1;0.887453;-0.908709;-1.06469;0.901284;-0.918493;-1.06875;1;-0.817589;0.517813;0.20523;1;-0.883227;2.56151;1.78037;0.00915224;fp_not_a_fp;-1;0.205465;
280908;3125.784118;150;290;29.4487;7.2111;0.0655661;1185;149.783;289.067;0;33;1;1;0.876397;-0.904021;-1.05912;0.892833;-0.912178;-1.0663;1;-0.862669;0.514768;0.260387;1;0.723189;2.08622;0.903344;0.0116061;fp_not_a_fp;-1;0.205521;
280909;3125.795246;150;288;29.4475;6.32456;0.0612833;616;151.842;289.19;0;34;1;1;0.876384;-0.898714;-1.06275;0.886858;-0.906734;-1.06484;1;-0.771406;0.508675;0.208321;1;3.84581;0.726432;-0.595162;0.0101797;fp_not_a_fp;-1;0.205505;
280910;3125.806374;156;290;29.7835;5.65685;0.11856;431;151.591;287.085;0;35;1;1;0.84745;-0.893983;-1.04713;0.871921;-0.901357;-1.05842;1;-0.966966;0.495511;0.339281;1;-4.58643;0.00271261;3.96327;0.00900224;fp_not_a_fp;-1;0.205554;
280911;3125.817501;154;288;29.7833;8.94427;0.118867;1445;158.225;289.48;0;36;1;1;0.853773;-0.888663;-1.05071;0.863501;-0.896346;-1.05493;1;-0.851974;0.487844;0.309058;1;-0.772712;-0.673322;2.33285;0.0142339;fp_not_a_fp;-1;0.20554;
280912;3125.828629;158;288;29.7846;5.65685;0.0606211;549;155.822;287.415;0;37;1;1;0.841003;-0.888704;-1.05061;0.854652;-0.892517;-1.0528;1;-0.842147;0.421983;0.258332;1;0.46088;-2.08451;-0.0459572;0.00900191;fp_not_a_fp;-1;0.205538;
280913;3125.839756;160;288;30.0292;4.47214;0.0537395;566;159.983;287.468;0;38;1;1;0.827841;-0.881508;-1.04203;0.842517;-0.888215;-1.04762;1;-0.881539;0.423432;0.3028;1;-2.47442;-1.91506;2.12276;0.00705865;fp_not_a_fp;-1;0.205536;
280914;3125.850884;162;288;30.1602;8.94427;0.0555068;1572;162.101;287.586;0;39;1;1;0.817958;-0.877718;-1.03747;0.835144;-0.884149;-1.04521;1;-0.898668;0.413468;0.334769;1;1.53448;-1.84318;-0.101307;0.014056;fp_not_a_fp;-1;0.205561;
280915;3125.862012;164;286;30.309;4.47214;0.080001;586;164.078;287.655;0;40;1;1;0.807641;-0.868258;-1.03584;0.823611;-0.879047;-1.04149;1;-0.909376;0.465044;0.323981;1;-1.28966;-0.512206;0.335367;0.0069935;fp_not_a_fp;-1;0.205547;
280916;3125.873139;168;286;30.4739;5.65685;0.0572906;863;166.134;285.464;0;41;1;1;0.790828;-0.863638;-1.03018;0.811067;-0.872781;-1.03638;1;-0.990543;0.479996;0.343081;1;-3.33406;1.30333;1.90408;0.00879833;fp_not_a_fp;-1;0.205533;
280917;3125.884266;168;286;30.5355;7.2111;0.0168665;1667;170.417;285.454;0;42;1;1;0.789231;-0.861895;-1.0281;0.801414;-0.867878;-1.0329;1;-0.916039;0.444932;0.331049;1;-0.77511;0.482965;0.634698;0.011193;fp_not_a_fp;-1;0.205526;
280918;3125.895394;170;286;30.5695;4.47214;0.0561892;622;170.183;285.52;0;43;1;1;0.782152;-0.860977;-1.02693;0.792463;-0.863692;-1.03026;1;-0.849547;0.384215;0.297257;1;1.10349;-0.657192;-0.842711;0.00693393;fp_not_a_fp;-1;0.20552;
280919;3125.906522;176;286;30.832;5.65685;0.0975905;1356;172.07;285.609;0;44;1;1;0.757048;-0.853766;-1.01811;0.779815;-0.860069;-1.02583;1;-1.00148;0.392769;0.346493;1;-2.06951;-1.62371;0.505849;0.00869613;fp_not_a_fp;-1;0.205516;
280920;3125.917649;174;284;31.0271;7.2111;0.0797841;1693;178.626;285.726;0;45;1;1;0.758351;-0.843286;-1.01514;0.771695;-0.854981;-1.02207;1;-0.921595;0.466345;0.356686;1;1.54896;-0.306573;0.305722;0.0110157;fp_not_a_fp;-1;0.205537;
280921;3125.928777;178;284;30.9974;4.47214;0.0808871;664;176.158;283.512;0;46;1;1;0.746843;-0.84417;-1.01606;0.761098;-0.85055;-1.01906;1;-0.902928;0.427132;0.304888;1;0.294391;-0.399728;-0.587594;0.00683823;fp_not_a_fp;-1;0.205507;
280922;3125.939904;184;284;31.2289;5.65685;0.0836536;1567;180.274;283.491;0;47;1;1;0.723096;-0.838031;-1.00845;0.746334;-0.844814;-1.01444;1;-1.05225;0.426813;0.331805;1;-4.55432;0.957138;0.776307;0.00858559;fp_not_a_fp;-1;0.205541;
280923;3125.951031;182;282;31.3978;7.2111;0.0858415;1821;186.899;283.543;0;48;1;1;0.725196;-0.828469;-1.00642;0.738371;-0.838489;-1.01152;1;-0.955678;0.481853;0.323945;1;1.0291;2.00159;-0.50651;0.0108856;fp_not_a_fp;-1;0.205535;
280924;3125.962159;188;282;31.4613;4.47214;0.113701;745;184.388;281.326;0;49;1;1;0.705655;-0.826914;-1.00431;0.725198;-0.834396;-1.00881;1;-1.01784;0.460966;0.303544;1;-2.16236;-0.120728;-1.19383;0.00673734;fp_not_a_fp;-1;0.205536;
280925;3125.973287;192;282;31.5266;7.2111;0.0594411;1709;190.794;281.358;0;50;1;1;0.692168;-0.82528;-1.00218;0.711529;-0.829674;-1.00534;1;-1.06831;0.412268;0.280815;1;-3.7156;-0.333885;-0.540837;0.0108412;fp_not_a_fp;-1;0.205489;
280926;3125.984414;192;280;31.7023;7.2111;0.0654928;1905;195.123;281.453;0;51;1;1;0.688284;-0.815738;-0.999953;0.702826;-0.824101;-1.00321;1;-0.99743;0.448928;0.261096;1;1.2319;0.496949;-1.58861;0.0107811;fp_not_a_fp;-1;0.205555;
280927;3125.995542;196;280;31.6764;2.82843;0.120615;808;194.768;279.265;0;52;1;1;0.676877;-0.816483;-1.00072;0.690746;-0.821104;-1.00179;1;-0.971657;0.39829;0.210863;1;-0.35897;-1.87729;-2.54049;0.00423215;fp_not_a_fp;-1;0.20551;
280928;3126.006670;200;278;31.874;7.2111;0.0682964;1751;198.878;279.319;0;53;1;1;0.66074;-0.806561;-0.997781;0.679517;-0.816016;-1.00016;1;-1.02204;0.440294;0.196883;1;-0.0943725;-0.464321;-2.39626;0.010723;fp_not_a_fp;-1;0.205548;
280929;3126.017797;200;278;32.0644;8.94427;0.0509824;2023;203.059;277.129;0;54;1;1;0.656817;-0.801771;-0.991856;0.670679;-0.810139;-0.997577;1;-0.957479;0.456396;0.233915;1;2.49008;0.991569;-1.0536;0.0132213;fp_not_a_fp;-1;0.20551;
280930;3126.028925;206;278;32.1511;5.65685;0.0790206;901;202.682;277.162;0;55;1;1;0.637355;-0.799721;-0.989103;0.657947;-0.806134;-0.994865;1;-1.03174;0.428331;0.250934;1;-0.770884;-0.46259;-0.228248;0.00833933;fp_not_a_fp;-1;0.205519;
280931;3126.040052;210;276;32.2962;7.2111;0.0539425;1764;209.068;277.315;0;56;1;1;0.622705;-0.79133;-0.98788;0.644404;-0.799846;-0.991655;1;-1.09876;0.458293;0.23998;1;-2.85555;1.34817;0.654152;0.0105828;fp_not_a_fp;-1;0.205504;
280932;3126.051179;210;274;32.4383;7.2111;0.0555388;2087;213.364;275.168;0;57;1;1;0.619932;-0.783011;-0.98681;0.634202;-0.793959;-0.988912;1;-1.01809;0.507579;0.217108;1;0.088868;1.51179;0.454342;0.0105364;fp_not_a_fp;-1;0.205542;
280933;3126.062307;216;274;32.5139;6.32456;0.0672842;1087;212.991;272.952;0;58;1;1;0.600999;-0.781303;-0.98444;0.620247;-0.788842;-0.987059;1;-1.07192;0.482783;0.207126;1;-2.57085;0.592969;-0.601907;0.00921959;fp_not_a_fp;-1;0.205509;
280934;3126.073435;220;272;32.5597;7.2111;0.0385112;1720;219.34;272.999;0;59;1;1;0.588463;-0.775445;-0.986251;0.608025;-0.782772;-0.986346;1;-1.10113;0.478109;0.155826;1;-1.55875;1.11844;-2.13682;0.0104972;fp_not_a_fp;-1;0.205538;
280935;3126.084562;220;270;32.7363;8.94427;0.075714;1995;223.54;270.852;0;60;1;1;0.585244;-0.766453;-0.984159;0.598659;-0.776553;-0.985415;1;-1.00965;0.518259;0.138731;1;2.00224;1.34734;-2.2748;0.0129499;fp_not_a_fp;-1;0.205517;
280936;3126.095690;226;270;32.8542;6.32456;0.0707721;1013;223.115;268.674;0;61;1;1;0.565833;-0.763814;-0.980553;0.585135;-0.771754;-0.983851;1;-1.06555;0.498994;0.155304;1;-1.0661;-0.192785;-1.38857;0.00912413;fp_not_a_fp;-1;0.20554;
280937;3126.106817;228;268;32.9964;7.2111;0.0397462;1705;229.426;268.803;0;62;1;1;0.557604;-0.755788;-0.979503;0.574286;-0.765376;-0.982617;1;-1.04708;0.519389;0.154374;1;0.558213;0.822481;-1.18522;0.0103582;fp_not_a_fp;-1;0.205509;
280938;3126.117944;228;268;33.1508;8.94427;0.0265823;1992;231.316;266.712;0;63;1;1;0.555006;-0.752268;-0.974941;0.565922;-0.759581;-0.979789;1;-0.935659;0.501927;0.186602;1;3.7178;0.535162;0.691422;0.012788;fp_not_a_fp;-1;0.205561;
280939;3126.129073;236;266;33.3425;8.24621;0.113981;1052;230.786;266.87;0;64;1;1;0.529028;-0.743368;-0.972406;0.551867;-0.75381;-0.976851;1;-1.06803;0.532699;0.20517;1;-1.31122;0.324393;1.49264;0.0117222;fp_not_a_fp;-1;0.205524;
280940;3126.140200;238;266;33.4408;7.2111;0.0372586;1662;239.404;264.814;0;65;1;1;0.521805;-0.741221;-0.969526;0.54086;-0.748162;-0.974094;1;-1.0693;0.502079;0.219694;1;-0.0839193;0.0692209;1.44662;0.0102206;fp_not_a_fp;-1;0.205546;
280941;3126.151327;238;262;33.4924;7.2111;0.0823507;1918;241.412;264.945;0;66;1;1;0.520912;-0.730678;-0.974339;0.531687;-0.741884;-0.972803;1;-0.943674;0.54624;0.142494;1;2.32352;0.603181;-0.266962;0.0102049;fp_not_a_fp;-1;0.205501;
280942;3126.162455;244;262;33.6248;6.32456;0.0865163;1081;240.943;260.576;0;67;1;1;0.501947;-0.72791;-0.970431;0.518423;-0.735795;-0.971676;1;-0.988765;0.526539;0.137211;1;-1.19277;0.55292;-1.10971;0.00891499;fp_not_a_fp;-1;0.205538;
280943;3126.173583;246;260;33.6972;5.65685;0.0608777;1739;247.265;260.608;0;68;1;1;0.495199;-0.721712;-0.971458;0.509965;-0.730381;-0.971439;1;-0.95863;0.522288;0.105752;1;2.45801;-0.233885;-2.23366;0.0079567;fp_not_a_fp;-1;0.205504;
280944;3126.184710;248;260;33.8452;8.94427;0.0606042;1987;249.137;258.537;0;69;1;1;0.487432;-0.718591;-0.967185;0.501372;-0.724723;-0.970854;1;-0.912937;0.489682;0.128241;1;3.51324;-0.278498;-2.0547;0.0125256;fp_not_a_fp;-1;0.205555;
280945;3126.195837;252;258;33.8958;4.47214;0.0865506;912;250.951;258.693;0;70;1;1;0.475475;-0.712946;-0.96881;0.490013;-0.72029;-0.969471;1;-0.914676;0.47846;0.102558;1;0.651576;-1.52282;-0.897248;0.00625344;fp_not_a_fp;-1;0.205503;
280946;3126.206965;256;258;34.1242;7.2111;0.0340311;1739;255.08;256.697;0;71;1;1;0.461182;-0.708247;-0.962279;0.479822;-0.715374;-0.967433;1;-0.962553;0.466657;0.153717;1;0.589013;-1.34536;0.370752;0.0100159;fp_not_a_fp;-1;0.205524;
280947;3126.218092;256;256;34.3211;8.48528;0.0593407;2063;259.245;256.86;0;72;1;1;0.458492;-0.699596;-0.959836;0.470645;-0.709845;-0.964528;1;-0.890392;0.501421;0.183264;1;1.53322;-0.468808;1.7414;0.0117181;fp_not_a_fp;-1;0.205489;
280948;3126.229219;262;256;34.3928;4.47214;0.122015;818;258.869;254.808;0;73;1;1;0.441;-0.698244;-0.957764;0.459037;-0.704759;-0.962172;1;-0.947518;0.467324;0.195845;1;-0.776872;-0.502316;1.5188;0.0061631;fp_not_a_fp;-1;0.205536;
280949;3126.240348;266;254;34.4624;7.2111;0.0311658;1786;265.199;254.942;0;74;1;1;0.429065;-0.692338;-0.958849;0.447434;-0.699607;-0.959682;1;-0.987069;0.461326;0.16363;1;-1.62635;-0.384922;1.37209;0.00991763;fp_not_a_fp;-1;0.205535;
280950;3126.251475;266;254;34.6678;7.2111;0.0088137;2105;269.444;252.87;0;75;1;1;0.426522;-0.688235;-0.953166;0.438769;-0.694604;-0.957404;1;-0.906661;0.447038;0.194583;1;1.25579;-0.440801;0.918224;0.00985883;fp_not_a_fp;-1;0.205526;
280951;3126.262602;270;254;34.6193;4.47214;0.0759258;845;269.05;252.982;0;76;1;1;0.416167;-0.689269;-0.954454;0.428188;-0.692022;-0.956059;1;-0.876481;0.372254;0.167792;1;0.31258;-2.90201;-0.347542;0.00612276;fp_not_a_fp;-1;0.205508;
280952;3126.273731;274;252;34.7545;8.48528;0.0630916;1786;273.071;253.196;0;77;1;1;0.403597;-0.68213;-0.953736;0.418837;-0.687993;-0.955052;1;-0.896293;0.375698;0.143549;1;1.15098;-2.05856;-1.17483;0.011572;fp_not_a_fp;-1;0.205553;
280953;3126.284858;276;252;34.9612;8.94427;0.0637043;1975;277.183;251.09;0;78;1;1;0.395788;-0.678132;-0.948074;0.410518;-0.684442;-0.952358;1;-0.879669;0.375028;0.180123;1;2.41303;-1.93887;0.370627;0.0121258;fp_not_a_fp;-1;0.205496;
280954;3126.295985;280;250;35.0068;4.47214;0.0823965;942;279.061;251.194;0;79;1;1;0.384399;-0.672821;-0.94981;0.399987;-0.680588;-0.951519;1;-0.89115;0.387797;0.15237;1;0.348525;-1.33096;-0.948378;0.006055;fp_not_a_fp;-1;0.205515;
280955;3126.307113;284;250;35.1616;7.2111;0.0359294;1681;283.199;249.047;0;80;1;1;0.371923;-0.669928;-0.945582;0.388926;-0.675753;-0.949301;1;-0.925223;0.376764;0.169923;1;-1.09501;0.101352;0.0478929;0.00972039;fp_not_a_fp;-1;0.205522;
280956;3126.318240;284;248;35.3704;7.2111;0.0439538;1966;287.378;249.107;0;81;1;1;0.369686;-0.661523;-0.942987;0.380449;-0.670602;-0.946613;1;-0.846936;0.420497;0.18525;1;1.10899;1.00655;0.936862;0.00966301;fp_not_a_fp;-1;0.205532;
280957;3126.329367;288;248;35.4515;7.2111;0.0338776;1239;286.963;246.98;0;82;1;1;0.358146;-0.660079;-0.940785;0.371038;-0.666088;-0.944791;1;-0.838846;0.401485;0.193198;1;0.917244;0.59443;0.293726;0.00964092;fp_not_a_fp;-1;0.205516;
280958;3126.340496;292;246;35.5447;7.2111;0.0367292;1608;290.967;247.061;0;83;1;1;0.346498;-0.653989;-0.941245;0.361563;-0.66138;-0.94265;1;-0.862012;0.412228;0.166567;1;0.654764;0.548885;0.318991;0.00961562;fp_not_a_fp;-1;0.205512;
280959;3126.351623;292;244;35.7464;7.2111;0.041298;1945;295.112;244.951;0;84;1;1;0.344501;-0.645894;-0.938889;0.354707;-0.655372;-0.940976;1;-0.784523;0.456875;0.161328;1;3.16122;1.79985;-0.193054;0.00956136;fp_not_a_fp;-1;0.20551;
280960;3126.362750;298;244;35.9052;6.32456;0.0754151;1380;294.716;242.743;0;85;1;1;0.327137;-0.643139;-0.934667;0.34407;-0.650776;-0.938897;1;-0.851477;0.448636;0.186975;1;-0.10197;0.632171;0.0388296;0.00834879;fp_not_a_fp;-1;0.205528;
280961;3126.373878;300;244;36.0497;7.2111;0.0348862;1472;301.095;242.85;0;86;1;1;0.320567;-0.640596;-0.9309;0.334676;-0.645905;-0.936425;1;-0.845839;0.417153;0.216908;1;-0.15708;0.352075;0.532678;0.00948094;fp_not_a_fp;-1;0.205524;
280962;3126.385006;300;240;36.2233;7.2111;0.0731819;1841;303.084;243.04;0;87;1;1;0.31895;-0.628835;-0.932273;0.327789;-0.639616;-0.934182;1;-0.75416;0.485747;0.185872;1;2.42314;1.65187;0.43368;0.00943549;fp_not_a_fp;-1;0.205534;
280963;3126.396133;308;240;36.3423;8.24621;0.119813;1321;302.626;238.679;0;88;1;1;0.297039;-0.626909;-0.929128;0.315923;-0.63487;-0.931742;1;-0.871248;0.474223;0.18539;1;-1.94852;0.389827;0.540554;0.0107546;fp_not_a_fp;-1;0.205529;
280964;3126.407261;308;238;36.4318;7.2111;0.0401823;1306;311.285;238.736;0;89;1;1;0.296269;-0.621048;-0.929745;0.308206;-0.629347;-0.930511;1;-0.817333;0.476145;0.154461;1;0.766995;0.618134;-0.730522;0.00938149;fp_not_a_fp;-1;0.205523;
280965;3126.418388;310;236;36.4767;8.94427;0.0482784;1610;311.03;236.625;0;90;1;1;0.290667;-0.616003;-0.931477;0.300731;-0.623199;-0.930656;1;-0.755013;0.474038;0.102123;1;2.04055;1.27805;-2.57887;0.011622;fp_not_a_fp;-1;0.205512;
280966;3126.429515;316;236;36.5358;8.24621;0.0762461;1256;312.798;234.464;0;91;1;1;0.27463;-0.615106;-0.929902;0.289651;-0.619767;-0.930063;1;-0.816792;0.422991;0.0855269;1;-1.40727;-1.40998;-2.25447;0.0106976;fp_not_a_fp;-1;0.205518;
280967;3126.440644;318;234;36.6969;4.47214;0.0874398;1224;319.223;234.661;0;92;1;1;0.268218;-0.60815;-0.928677;0.282446;-0.615077;-0.929951;1;-0.81163;0.427672;0.0817959;1;1.33938;-1.04589;-2.32746;0.00577615;fp_not_a_fp;-1;0.205525;
280968;3126.451771;318;232;36.8046;7.2111;0.0366839;1322;321.154;232.616;0;93;1;1;0.267393;-0.602093;-0.928831;0.275227;-0.610338;-0.929722;1;-0.715426;0.444479;0.0680594;1;2.2896;-0.711472;-1.94124;0.00928646;fp_not_a_fp;-1;0.205547;
280969;3126.462898;324;232;36.9622;7.2111;0.0636531;1108;320.723;230.514;0;94;1;1;0.250866;-0.599625;-0.924805;0.265277;-0.606244;-0.928054;1;-0.773867;0.423024;0.0998562;1;-0.423616;-1.14618;-0.0509329;0.00924687;fp_not_a_fp;-1;0.205516;
280970;3126.474026;326;230;37.1502;5.65685;0.0526682;1082;327.052;230.692;0;95;1;1;0.244454;-0.592386;-0.922947;0.257733;-0.600564;-0.926315;1;-0.772807;0.44317;0.121556;1;0.988214;0.453322;0.809434;0.00721715;fp_not_a_fp;-1;0.205534;
280971;3126.485153;328;228;37.1501;6.32456;0.0367468;1090;328.999;228.635;0;96;1;1;0.239312;-0.588183;-0.92577;0.250506;-0.595572;-0.925588;1;-0.732744;0.443158;0.0826608;1;1.77235;0.347886;0.0193887;0.00806903;fp_not_a_fp;-1;0.205536;
280972;3126.496281;334;226;37.2295;6.32456;0.0708902;1089;330.845;226.53;0;97;1;1;0.223485;-0.582799;-0.926569;0.239529;-0.590749;-0.925022;1;-0.804138;0.448337;0.0468847;1;-1.9931;0.0866489;-0.475766;0.00805182;fp_not_a_fp;-1;0.20556;
280973;3126.507409;336;224;37.3297;4.47214;0.0790844;1015;337.299;224.414;0;98;1;1;0.217767;-0.57705;-0.926889;0.231254;-0.585105;-0.925544;1;-0.796613;0.459187;0.0224447;1;-0.511041;0.812435;-1.73921;0.00567821;fp_not_a_fp;-1;0.205505;
280974;3126.518536;338;222;37.3691;7.2111;0.0343615;969;339.259;222.276;0;99;1;1;0.212425;-0.572262;-0.928718;0.223247;-0.580074;-0.926986;1;-0.753132;0.459986;-0.0114808;1;0.442089;0.377785;-2.98893;0.00914617;fp_not_a_fp;-1;0.205537;
280975;3126.529663;344;222;37.4594;6.32456;0.0659875;1032;341.082;220.183;0;100;1;1;0.196731;-0.570981;-0.926415;0.212602;-0.575774;-0.927148;1;-0.819008;0.416325;0.00235576;1;-1.93807;-0.60288;-1.8042;0.00800242;fp_not_a_fp;-1;0.205489;
280976;3126.540792;344;218;37.639;5.65685;0.0838478;1031;347.461;220.407;0;101;1;1;0.195714;-0.559892;-0.927608;0.205659;-0.570047;-0.927408;1;-0.753423;0.472286;-0.00589575;1;1.1393;0.537932;-1.18579;0.00712342;fp_not_a_fp;-1;0.205509;
280977;3126.551919;348;218;37.6012;6.32456;0.0409934;902;347.087;216.146;0;102;1;1;0.185827;-0.56052;-0.928498;0.197674;-0.565914;-0.92781;1;-0.743552;0.427969;-0.0187601;1;1.19204;-0.701503;-0.925766;0.00797223;fp_not_a_fp;-1;0.205537;
280978;3126.563046;354;216;37.6214;6.32456;0.0521151;1024;351.078;216.316;0;103;1;1;0.17057;-0.556132;-0.930742;0.18721;-0.561882;-0.928316;1;-0.819517;0.405368;-0.0474072;1;-1.49164;-1.22723;-0.807157;0.00796794;fp_not_a_fp;-1;0.205526;
280979;3126.574174;356;214;37.8087;5.65685;0.0381775;1124;357.52;214.341;0;104;1;1;0.164672;-0.549246;-0.928905;0.179195;-0.556448;-0.928939;1;-0.813983;0.423246;-0.0321427;1;0.11275;0.15536;-0.775104;0.00709146;fp_not_a_fp;-1;0.205501;
280980;3126.585301;358;214;37.8315;2.82843;0.125335;573;359.459;212.267;0;105;1;1;0.159562;-0.548947;-0.928323;0.170157;-0.553712;-0.929117;1;-0.766455;0.380078;-0.0150632;1;-0.292779;-2.07173;-0.20599;0.00354359;fp_not_a_fp;-1;0.205534;
280981;3126.596428;364;210;37.8511;6.32456;0.079299;876;361.275;212.526;0;106;1;1;0.144376;-0.540443;-0.933361;0.159795;-0.548693;-0.930333;1;-0.823128;0.411248;-0.0638328;1;-1.78786;-0.37573;-1.01269;0.0079196;fp_not_a_fp;-1;0.205538;
280982;3126.607556;366;208;37.9716;5.65685;0.0298253;1081;367.587;208.24;0;107;1;1;0.138886;-0.534614;-0.93316;0.151874;-0.543313;-0.930938;1;-0.804482;0.438484;-0.0735405;1;0.337791;0.743945;-0.58716;0.00706104;fp_not_a_fp;-1;0.20556;
280983;3126.618683;370;208;37.9614;5.65685;0.035306;365;369.459;206.086;0;108;1;1;0.128935;-0.534822;-0.933368;0.142939;-0.539707;-0.932053;1;-0.80823;0.391424;-0.0705587;1;0.129265;-0.715007;-0.863092;0.00706294;fp_not_a_fp;-1;0.205496;
280984;3126.629811;374;206;38.1364;6;0.0145004;768;373.504;206.303;0;109;1;1;0.118362;-0.528303;-0.931811;0.13264;-0.534546;-0.932925;1;-0.827883;0.396778;-0.0424734;1;-1.38015;0.37517;-0.615829;0.00745697;fp_not_a_fp;-1;0.205537;
280985;3126.640938;376;202;38.1175;7.2111;0.0792069;1077;377.638;204.312;0;110;1;1;0.113371;-0.520338;-0.937796;0.124888;-0.52952;-0.934034;1;-0.78763;0.439683;-0.0940574;1;0.797539;0.63887;-0.679086;0.00896659;fp_not_a_fp;-1;0.205517;
280986;3126.652066;380;200;37.9495;4.47214;0.0416836;340;379.411;200.02;0;111;1;1;0.103843;-0.518558;-0.944689;0.116127;-0.525506;-0.936916;1;-0.779742;0.421733;-0.182388;1;0.555846;-0.37628;-2.44538;0.00558548;fp_not_a_fp;-1;0.205499;
280987;3126.663193;386;198;37.9872;4.47214;0.0750062;750;383.411;197.908;0;112;1;1;0.0887287;-0.513996;-0.946468;0.106076;-0.520299;-0.940191;1;-0.850278;0.412824;-0.216017;1;-0.94476;0.48085;-3.26794;0.00557993;fp_not_a_fp;-1;0.205525;
280988;3126.674320;386;196;38.0141;7.2111;0.070056;928;389.78;195.837;0;113;1;1;0.0886274;-0.509491;-0.948578;0.0986421;-0.515597;-0.944383;1;-0.772137;0.408121;-0.226545;1;1.25243;0.254909;-4.13547;0.00899098;fp_not_a_fp;-1;0.205544;
280989;3126.685448;392;194;37.8387;6.32456;0.0613895;274;389.386;193.829;0;114;1;1;0.0739686;-0.50779;-0.955702;0.0887916;-0.512459;-0.948859;1;-0.809379;0.373626;-0.283664;1;-0.488641;-1.48406;-4.25973;0.00792218;fp_not_a_fp;-1;0.205518;
280990;3126.696575;394;192;37.911;4.47214;0.0561966;704;395.599;191.892;0;115;1;1;0.0687882;-0.502702;-0.956646;0.080028;-0.508495;-0.951849;1;-0.780917;0.370035;-0.28191;1;-0.0263575;-1.16148;-2.23594;0.00559115;fp_not_a_fp;-1;0.2055;
280991;3126.707702;396;190;37.8598;7.2111;0.05359;889;397.465;189.924;0;116;1;1;0.063835;-0.499257;-0.96071;0.0738045;-0.50481;-0.955409;1;-0.726327;0.36085;-0.291805;1;2.78496;-1.16769;-1.70269;0.00902763;fp_not_a_fp;-1;0.205504;
280992;3126.718830;402;188;37.7647;8.94427;0.100915;387;399.151;187.952;0;117;1;1;0.0488966;-0.496443;-0.965862;0.0638718;-0.501548;-0.95973;1;-0.782346;0.343279;-0.317736;1;-0.229182;-1.45676;-2.0487;0.0112256;fp_not_a_fp;-1;0.205515;
280993;3126.729957;406;186;37.7961;4.47214;0.0494195;588;405.467;185.976;0;118;1;1;0.0387853;-0.491929;-0.967811;0.055076;-0.497583;-0.962757;1;-0.821614;0.34397;-0.310256;1;-0.274751;-0.66626;-0.597415;0.00560814;fp_not_a_fp;-1;0.20553;
280994;3126.741084;406;184;37.6934;6.32456;0.0404625;863;409.64;183.985;0;119;1;1;0.0388521;-0.489094;-0.973252;0.047592;-0.494181;-0.966909;1;-0.732279;0.332879;-0.32997;1;1.09294;-0.834782;-1.07974;0.00795273;fp_not_a_fp;-1;0.205507;
280995;3126.752213;412;182;37.6278;6.32456;0.0528463;250;409.205;181.999;0;120;1;1;0.0237657;-0.485861;-0.977692;0.0375747;-0.490832;-0.971154;1;-0.774876;0.322894;-0.346924;1;-1.09054;-0.852714;-1.23832;0.0079666;fp_not_a_fp;-1;0.205534;
280996;3126.763340;414;180;37.6802;4.47214;0.0618948;701;415.436;180.008;0;121;1;1;0.0186624;-0.481039;-0.979114;0.0300161;-0.486981;-0.974467;1;-0.752145;0.332855;-0.32597;1;0.678684;-0.234192;-0.184976;0.00562539;fp_not_a_fp;-1;0.205533;
280997;3126.774467;414;176;37.5794;7.2111;0.0909381;758;417.294;178.007;0;122;1;1;0.0186344;-0.473953;-0.987365;0.0249784;-0.482487;-0.979356;1;-0.647135;0.375746;-0.370318;1;3.92028;0.713951;-1.34943;0.009095;fp_not_a_fp;-1;0.20553;
280998;3126.785594;420;176;37.5063;6.32456;0.0688497;199;416.742;173.73;0;123;1;1;0.00350662;-0.474974;-0.989224;0.016142;-0.478957;-0.983349;1;-0.694593;0.33384;-0.362721;1;0.846918;0.0216982;-0.735812;0.0079924;fp_not_a_fp;-1;0.205527;
280999;3126.796722;424;174;37.4872;4.47214;0.0577855;700;423.015;173.937;0;124;1;1;-0.00664525;-0.471082;-0.992501;0.00853927;-0.475262;-0.987051;1;-0.74198;0.318563;-0.350881;1;0.739219;-0.0972131;-0.088929;0.00565436;fp_not_a_fp;-1;0.205536;
281000;3126.807849;422;172;37.3593;7.2111;0.0726719;724;427.22;172.032;0;125;1;1;-0.0016327;-0.468449;-0.99875;0.0034655;-0.472115;-0.99196;1;-0.609463;0.301793;-0.372872;1;3.20587;-0.697795;-1.05381;0.00914858;fp_not_a_fp;-1;0.205509;
281001;3126.818977;426;170;37.192;6.32456;0.0257382;211;424.571;170.075;0;126;1;1;-0.0118743;-0.466389;-1.00604;-0.00416166;-0.470224;-0.996629;1;-0.59435;0.279984;-0.417937;1;1.18605;-2.15143;-1.0698;0.00805993;fp_not_a_fp;-1;0.205523;
281002;3126.830104;432;168;37.0142;4.47214;0.102347;678;428.533;168.124;0;127;1;1;-0.0273366;-0.464476;-1.01366;-0.0118725;-0.467599;-1.00274;1;-0.689542;0.257186;-0.470632;1;0.113458;-1.7222;-2.42444;0.00572662;fp_not_a_fp;-1;0.205558;
281003;3126.841231;430;166;36.7973;7.2111;0.079392;668;434.938;166.106;0;128;1;1;-0.0223856;-0.462903;-1.02253;-0.0158076;-0.465555;-1.01025;1;-0.584176;0.232986;-0.534049;1;3.54542;-1.92269;-4.11525;0.00928831;fp_not_a_fp;-1;0.205496;
281004;3126.852359;434;164;36.651;6.32456;0.0343891;184;432.382;164.098;0;129;1;1;-0.0328602;-0.460522;-1.02945;-0.0236144;-0.463573;-1.01792;1;-0.58618;0.22056;-0.57144;1;0.523035;-1.82505;-4.46118;0.00817891;fp_not_a_fp;-1;0.205539;
281005;3126.863486;438;162;36.6482;4.47214;0.0650873;656;436.434;162.09;0;130;1;1;-0.0432489;-0.456329;-1.03237;-0.0314581;-0.461058;-1.0245;1;-0.63133;0.235357;-0.547459;1;-0.830948;-1.00262;-2.90996;0.00578381;fp_not_a_fp;-1;0.205543;
281006;3126.874613;436;160;36.5571;6.32456;0.0611977;696;440.651;160.075;0;131;1;1;-0.0382108;-0.453127;-1.03785;-0.0341766;-0.458221;-1.03055;1;-0.511711;0.248163;-0.530581;1;3.99536;-0.20268;-1.34681;0.00819992;fp_not_a_fp;-1;0.205566;
281007;3126.885741;440;158;36.355;4.47214;0.072228;190;438.031;158.067;0;132;1;1;-0.0488931;-0.451383;-1.04648;-0.0408035;-0.455341;-1.03654;1;-0.51945;0.24179;-0.554858;1;1.4542;0.197859;-0.467383;0.00583045;fp_not_a_fp;-1;0.205529;
281008;3126.896868;444;156;36.3535;4.47214;0.0669893;645;442.096;156.066;0;133;1;1;-0.0593655;-0.447139;-1.04939;-0.0474298;-0.451995;-1.04152;1;-0.576436;0.25696;-0.52743;1;0.218878;0.817846;0.988859;0.0058307;fp_not_a_fp;-1;0.205615;
281009;3126.907995;442;154;36.3537;7.2111;0.0846972;581;446.364;154.056;0;134;1;1;-0.0541904;-0.442773;-1.05231;-0.0501652;-0.448606;-1.04651;1;-0.467139;0.280512;-0.482306;1;3.689;1.01454;1.46389;0.00940163;fp_not_a_fp;-1;0.205575;
281010;3126.919124;446;152;35.8782;6.32456;0.0487804;222;443.836;152.047;0;135;1;1;-0.0655177;-0.444322;-1.06916;-0.0569919;-0.446405;-1.05433;1;-0.492219;0.236706;-0.595241;1;0.438035;-0.257291;-1.45245;0.00835508;fp_not_a_fp;-1;0.205585;
281011;3126.930251;450;150;35.795;6;0.0424912;585;447.948;150.067;0;136;1;1;-0.0763036;-0.441025;-1.07455;-0.0638445;-0.443815;-1.06135;1;-0.563442;0.226205;-0.627782;1;-0.988327;-0.35007;-1.63819;0.00794474;fp_not_a_fp;-1;0.205617;
281012;3126.941378;448;146;35.6845;7.2111;0.110453;578;452.25;148.066;0;137;1;1;-0.0713095;-0.433535;-1.08382;-0.0668305;-0.440414;-1.06996;1;-0.463759;0.278872;-0.667466;1;2.53167;0.492418;-3.14603;0.00957796;fp_not_a_fp;-1;0.205626;
281013;3126.952506;452;146;35.4481;5.65685;0.0642859;201;449.749;143.789;0;138;1;1;-0.0824814;-0.436495;-1.091;-0.0739033;-0.438845;-1.07963;1;-0.491467;0.231136;-0.681055;1;-0.546475;-1.10917;-4.46518;0.00756371;fp_not_a_fp;-1;0.205538;
281014;3126.963633;456;142;35.3577;4.47214;0.0879123;591;453.893;143.993;0;139;1;1;-0.0934989;-0.428776;-1.09972;-0.0808986;-0.434958;-1.08727;1;-0.566523;0.270413;-0.699745;1;-1.66935;0.757393;-2.34795;0.00599491;fp_not_a_fp;-1;0.205615;
281015;3126.974760;454;142;35.2021;7.2111;0.0683213;566;458.212;139.806;0;140;1;1;-0.0885267;-0.430637;-1.10461;-0.0839544;-0.432361;-1.09479;1;-0.468283;0.230819;-0.674217;1;2.1381;0.103753;-1.04326;0.00970922;fp_not_a_fp;-1;0.205581;
281016;3126.985888;458;140;34.9327;5.65685;0.0480691;197;455.723;140.039;0;141;1;1;-0.100106;-0.429521;-1.1161;-0.0911534;-0.431358;-1.10286;1;-0.50067;0.197803;-0.709433;1;-0.82914;-1.82131;-0.942807;0.00767529;fp_not_a_fp;-1;0.205556;
281017;3126.997015;460;136;34.7321;4.47214;0.0748917;496;459.874;138.18;0;142;1;1;-0.106227;-0.422974;-1.12861;-0.0970897;-0.427977;-1.11226;1;-0.520362;0.233986;-0.776882;1;-0.649103;0.0640825;-2.15292;0.0061029;fp_not_a_fp;-1;0.205562;
281018;3127.008142;460;136;34.6495;5.65685;0.00459726;596;461.914;133.919;0;143;1;1;-0.10648;-0.423981;-1.1313;-0.100335;-0.426779;-1.12016;1;-0.465028;0.207544;-0.736484;1;2.28042;-1.41245;-0.825382;0.00773802;fp_not_a_fp;-1;0.205642;
281019;3127.019270;462;132;34.536;5.65685;0.0478106;168;461.63;134.13;0;144;1;1;-0.112404;-0.416294;-1.14111;-0.106304;-0.423193;-1.12928;1;-0.450751;0.258254;-0.73833;1;0.393926;0.616381;-1.44043;0.00776345;fp_not_a_fp;-1;0.205551;
281020;3127.030397;466;132;34.4397;4;0.107968;452;463.61;129.906;0;145;1;1;-0.123728;-0.417529;-1.14426;-0.11221;-0.420195;-1.13632;1;-0.517165;0.232113;-0.680954;1;-0.370667;0.770805;0.639856;0.00550493;fp_not_a_fp;-1;0.205589;
281021;3127.041524;464;130;34.3834;4.47214;0.0838054;627;467.892;130.104;0;146;1;1;-0.118459;-0.413599;-1.14923;-0.115268;-0.417851;-1.14147;1;-0.418252;0.236755;-0.627356;1;2.29413;0.0621247;3.35951;0.00616478;fp_not_a_fp;-1;0.205576;
281022;3127.052652;466;128;34.2021;6.32456;0.0299318;177;465.465;128.211;0;147;1;1;-0.124673;-0.411225;-1.15838;-0.119816;-0.414662;-1.14825;1;-0.39525;0.235686;-0.630152;1;1.56769;0.632198;2.38905;0.00876452;fp_not_a_fp;-1;0.205567;
281023;3127.063779;470;126;33.9038;4.47214;0.0730177;444;467.372;126.209;0;148;1;1;-0.136997;-0.410272;-1.17164;-0.125965;-0.413157;-1.15588;1;-0.476598;0.216106;-0.702931;1;-0.580778;-0.946961;0.795356;0.00625198;fp_not_a_fp;-1;0.205576;
281024;3127.074907;468;124;33.9475;6.32456;0.0789376;622;471.676;124.229;0;149;1;1;-0.131279;-0.405072;-1.17327;-0.127852;-0.410042;-1.16313;1;-0.383884;0.240064;-0.66202;1;2.99444;0.178631;0.425392;0.00883026;fp_not_a_fp;-1;0.205617;
281025;3127.086034;470;122;33.8941;4.47214;0.0385726;197;469.262;122.173;0;150;1;1;-0.137123;-0.401102;-1.17822;-0.132518;-0.406918;-1.17038;1;-0.36359;0.26485;-0.617329;1;1.22803;0.631236;0.225278;0.00625378;fp_not_a_fp;-1;0.205558;
281026;3127.097162;474;120;33.5982;4.47214;0.0719366;378;471.235;120.135;0;151;1;1;-0.149659;-0.400021;-1.19169;-0.138765;-0.404117;-1.1787;1;-0.452519;0.253695;-0.674524;1;-1.28656;0.404646;-0.996827;0.00630884;fp_not_a_fp;-1;0.205591;
281027;3127.108289;474;120;33.5045;4.47214;0.0147356;503;475.584;118.121;0;152;1;1;-0.150078;-0.40114;-1.19502;-0.142035;-0.401834;-1.18455;1;-0.436349;0.203902;-0.650332;1;0.904471;-0.274215;1.18191;0.00632648;fp_not_a_fp;-1;0.205576;
281028;3127.119416;476;118;33.4822;4.47214;0.0278435;248;475.471;118.379;0;153;1;1;-0.155884;-0.396743;-1.19895;-0.148186;-0.399752;-1.19097;1;-0.440567;0.207717;-0.602432;1;-1.27333;-0.726787;1.33894;0.00633072;fp_not_a_fp;-1;0.20558;
281029;3127.130544;478;116;33.3351;4.47214;0.0245283;326;477.548;116.444;0;154;1;1;-0.162303;-0.393809;-1.20739;-0.154481;-0.397929;-1.19826;1;-0.459692;0.216437;-0.602488;1;-2.15895;-1.08776;0.333574;0.00635866;fp_not_a_fp;-1;0.2056;
281030;3127.141671;478;114;33.0084;4.47214;0.0425912;490;479.627;114.424;0;155;1;1;-0.163954;-0.392937;-1.22254;-0.158055;-0.396158;-1.20597;1;-0.427885;0.20242;-0.699336;1;0.553514;-1.15209;-0.557423;0.00642159;fp_not_a_fp;-1;0.20562;
281031;3127.152798;482;112;32.846;5.65685;0.0726794;217;479.382;112.379;0;156;1;1;-0.176353;-0.390162;-1.23175;-0.164624;-0.393413;-1.21515;1;-0.502293;0.202627;-0.755741;1;-1.4816;-0.0286653;-2.36829;0.00816289;fp_not_a_fp;-1;0.205537;
281032;3127.163926;484;110;32.6462;2.82843;0.0773506;331;483.657;110.29;0;157;1;1;-0.183284;-0.387766;-1.2425;-0.171474;-0.391169;-1.22604;1;-0.548425;0.204332;-0.805881;1;-2.42321;-0.0760682;-4.57091;0.00410643;fp_not_a_fp;-1;0.2056;
281033;3127.175053;484;110;32.6112;4.47214;0.00383508;460;485.803;108.229;0;158;1;1;-0.183481;-0.388182;-1.24383;-0.176768;-0.389762;-1.23515;1;-0.499794;0.1742;-0.739107;1;-0.900901;-0.948962;-3.06938;0.0064998;fp_not_a_fp;-1;0.205582;
281034;3127.186180;486;108;32.5356;4.47214;0.0162111;199;485.61;108.453;0;159;1;1;-0.189779;-0.384283;-1.24994;-0.183225;-0.387599;-1.242;1;-0.48814;0.184228;-0.687274;1;-1.3537;-0.408749;0.271083;0.00651489;fp_not_a_fp;-1;0.205576;
281035;3127.197308;490;106;32.506;4.47214;0.0519936;341;487.601;106.498;0;160;1;1;-0.201662;-0.379866;-1.25428;-0.189552;-0.385024;-1.24764;1;-0.557265;0.215503;-0.627939;1;-1.23491;0.289256;2.87146;0.00652083;fp_not_a_fp;-1;0.205556;
281036;3127.208435;490;104;32.5243;6.32456;0.084456;487;491.894;104.456;0;161;1;1;-0.201593;-0.374812;-1.25682;-0.194129;-0.381786;-1.25122;1;-0.513967;0.258872;-0.552457;1;0.774278;1.22534;5.69376;0.00921664;fp_not_a_fp;-1;0.205585;
281037;3127.219562;494;102;32.4934;4.47214;0.0498555;208;491.752;102.38;0;162;1;1;-0.213499;-0.3704;-1.26122;-0.201634;-0.37734;-1.25557;1;-0.567;0.294352;-0.501228;1;-1.50991;2.69949;5.34449;0.00652337;fp_not_a_fp;-1;0.205552;
281038;3127.230690;496;100;32.2761;4.47214;0.00949457;381;496.032;100.272;0;163;1;1;-0.220855;-0.368053;-1.27296;-0.209403;-0.373283;-1.26132;1;-0.60091;0.298364;-0.550644;1;-2.53356;2.56433;3.06979;0.00656726;fp_not_a_fp;-1;0.205572;
281039;3127.241817;498;98;32.2157;5.65685;0.0304922;371;498.13;98.2061;0;164;1;1;-0.2272;-0.363896;-1.2786;-0.215787;-0.369291;-1.2674;1;-0.611012;0.309619;-0.56554;1;-1.20751;2.11456;1.40206;0.00832262;fp_not_a_fp;-1;0.205579;
281040;3127.252945;500;98;32.3193;5.65685;0.0599654;143;500.12;96.1548;0;165;1;1;-0.232338;-0.362767;-1.27448;-0.223474;-0.36628;-1.27182;1;-0.596141;0.287723;-0.452268;1;-1.8462;0.648215;2.25111;0.00829593;fp_not_a_fp;-1;0.205545;
281041;3127.264073;504;96;32.2813;4.47214;0.0488108;411;502.139;96.3908;0;166;1;1;-0.244402;-0.358393;-1.2792;-0.231199;-0.363278;-1.27631;1;-0.652244;0.292107;-0.401906;1;-1.91508;-0.0504581;2.23152;0.00656621;fp_not_a_fp;-1;0.205592;
281042;3127.275200;504;94;32.0409;4.47214;0.0483995;269;506.375;94.4457;0;167;1;1;-0.246282;-0.356169;-1.2921;-0.237556;-0.360307;-1.28109;1;-0.613779;0.282152;-0.477646;1;-0.289038;-0.364261;1.63996;0.00661549;fp_not_a_fp;-1;0.205539;
281043;3127.286327;508;92;31.9098;4.47214;0.0510536;133;506.125;92.4244;0;168;1;1;-0.259222;-0.352776;-1.30066;-0.245561;-0.357527;-1.28661;1;-0.667931;0.280946;-0.546247;1;-1.27876;-0.644232;0.43332;0.00664263;fp_not_a_fp;-1;0.205521;
281044;3127.297455;510;90;31.8118;6.32456;0.0414398;510;510.281;90.3673;0;169;1;1;-0.266026;-0.348953;-1.30797;-0.253983;-0.354074;-1.29498;1;-0.683104;0.288431;-0.588627;1;-1.95375;0.0158799;-3.0637;0.00942314;fp_not_a_fp;-1;0.205611;
281045;3127.308582;512;88;31.7517;4.47214;0.0241197;173;512.302;88.2728;0;170;1;1;-0.272547;-0.344695;-1.31375;-0.26102;-0.350649;-1.30362;1;-0.676991;0.303552;-0.597292;1;-0.55598;0.257133;-4.38982;0.00667568;fp_not_a_fp;-1;0.205577;
281046;3127.319709;516;86;31.6988;4.47214;0.0536794;106;514.237;86.2039;0;171;1;1;-0.28501;-0.340382;-1.31922;-0.270701;-0.346702;-1.3104;1;-0.730975;0.320524;-0.587457;1;-2.63309;0.862128;-2.46711;0.00668684;fp_not_a_fp;-1;0.205521;
281047;3127.330837;516;84;31.7448;6.32456;0.0744411;497;518.487;84.1532;0;172;1;1;-0.284643;-0.334929;-1.32064;-0.277057;-0.34224;-1.31539;1;-0.655842;0.349148;-0.524688;1;0.271541;1.53228;0.484344;0.00944303;fp_not_a_fp;-1;0.205587;
281048;3127.341964;518;82;31.6167;4.47214;0.0210433;159;518.222;82.1099;0;173;1;1;-0.291838;-0.331346;-1.3293;-0.28351;-0.337838;-1.32073;1;-0.623621;0.357521;-0.531152;1;1.33633;1.55223;1.29122;0.00670419;fp_not_a_fp;-1;0.205552;
281049;3127.353091;522;80;31.5382;4.47214;0.0570045;133;520.071;80.0883;0;174;1;1;-0.304634;-0.327257;-1.33591;-0.291531;-0.333479;-1.32627;1;-0.677437;0.362251;-0.541816;1;-0.0101698;1.31877;1.24631;0.00672088;fp_not_a_fp;-1;0.205568;
281050;3127.364219;524;80;31.5128;5.65685;0.0578396;503;524.277;78.0721;0;175;1;1;-0.310896;-0.32756;-1.33696;-0.298003;-0.330274;-1.3307;1;-0.685048;0.314528;-0.489181;1;1.03173;-0.134708;2.20785;0.00850824;fp_not_a_fp;-1;0.205586;
281051;3127.375346;524;76;31.4394;5.65685;0.0850031;154;526.296;78.3401;0;176;1;1;-0.311715;-0.318311;-1.3468;-0.304771;-0.326119;-1.33724;1;-0.610205;0.360705;-0.517861;1;1.02533;0.259698;0.15333;0.0085281;fp_not_a_fp;-1;0.205552;
281052;3127.386473;528;76;31.4117;4.47214;0.0730584;123;526.008;74.1327;0;177;1;1;-0.32406;-0.318669;-1.34794;-0.312826;-0.32295;-1.3419;1;-0.642962;0.329674;-0.476675;1;-0.434593;-0.625615;1.22391;0.00674795;fp_not_a_fp;-1;0.205549;
281053;3127.397601;530;74;31.431;7.2111;0.0509072;435;530.168;74.3126;0;178;1;1;-0.329939;-0.313504;-1.35045;-0.319153;-0.319512;-1.34554;1;-0.641875;0.334004;-0.427583;1;0.798987;-0.63462;2.56638;0.0108742;fp_not_a_fp;-1;0.205573;
281054;3127.408728;532;72;31.2406;4.47214;0.0304889;115;532.184;72.3482;0;179;1;1;-0.338066;-0.310416;-1.36204;-0.325945;-0.315226;-1.35181;1;-0.652713;0.328593;-0.4856;1;0.726475;0.315973;0.0803397;0.00678493;fp_not_a_fp;-1;0.205564;
281055;3127.419856;536;70;31.2098;4.47214;0.0579306;140;534.151;70.2999;0;180;1;1;-0.350596;-0.305757;-1.36671;-0.335666;-0.312087;-1.35678;1;-0.717567;0.337849;-0.501266;1;-2.41218;-0.513528;0.372756;0.0067916;fp_not_a_fp;-1;0.205573;
281056;3127.430984;536;68;31.1435;7.2111;0.0838259;406;538.432;68.2734;0;181;1;1;-0.351389;-0.301353;-1.37301;-0.342498;-0.307758;-1.36305;1;-0.661928;0.349061;-0.516004;1;-0.426194;0.435558;-0.88371;0.0109745;fp_not_a_fp;-1;0.20561;
281057;3127.442111;538;66;30.9982;4.47214;0.0299262;102;538.175;66.2017;0;182;1;1;-0.3592;-0.297727;-1.38283;-0.349813;-0.303814;-1.37115;1;-0.644044;0.350732;-0.568857;1;-0.048829;0.375819;-3.17408;0.00683797;fp_not_a_fp;-1;0.205561;
281058;3127.453238;544;64;30.8086;4.47214;0.104658;127;540.034;64.1569;0;183;1;1;-0.379918;-0.294568;-1.39469;-0.360276;-0.299852;-1.37931;1;-0.792001;0.342898;-0.654063;1;-3.1296;0.321379;-3.78498;0.00688004;fp_not_a_fp;-1;0.205578;
281059;3127.464366;544;64;30.8529;5.65685;0.00916229;329;546.518;62.13;0;184;1;1;-0.379373;-0.294146;-1.39269;-0.36747;-0.296949;-1.38581;1;-0.745879;0.300767;-0.582917;1;-0.636333;-0.833089;-1.83467;0.00869023;fp_not_a_fp;-1;0.205606;
281060;3127.475493;546;62;30.6224;2.82843;0.0884211;62;546.351;62.3786;0;185;1;1;-0.388468;-0.29126;-1.4066;-0.37674;-0.294426;-1.3942;1;-0.735938;0.278075;-0.6386;1;-1.66297;-1.59481;-2.75465;0.00437782;fp_not_a_fp;-1;0.205528;
281061;3127.486620;552;60;30.5057;4.47214;0.101138;143;548.244;60.4519;0;186;1;1;-0.408646;-0.287334;-1.41536;-0.389101;-0.291827;-1.40234;1;-0.869261;0.278236;-0.680605;1;-5.06026;-1.62871;-2.51092;0.00694837;fp_not_a_fp;-1;0.205545;
281062;3127.497748;550;58;30.5158;6.32456;0.0918441;304;554.72;58.4297;0;187;1;1;-0.402345;-0.28204;-1.41838;-0.394708;-0.288695;-1.40826;1;-0.741267;0.30349;-0.645748;1;1.13946;-0.88537;0.186572;0.00982332;fp_not_a_fp;-1;0.205583;
281063;3127.508875;554;56;30.4326;5.65685;0.0504365;66;552.212;56.3658;0;188;1;1;-0.415953;-0.277719;-1.42568;-0.403853;-0.284589;-1.4165;1;-0.74981;0.324748;-0.632626;1;-0.0886323;0.538758;-1.11694;0.00881023;fp_not_a_fp;-1;0.205556;
281064;3127.520002;558;56;30.3408;4;0.0805534;144;556.271;54.2693;0;189;1;1;-0.429708;-0.278639;-1.42994;-0.414163;-0.281433;-1.42234;1;-0.815376;0.281561;-0.59533;1;-1.78509;0.0782853;0.972082;0.00624862;fp_not_a_fp;-1;0.205559;
281065;3127.531129;558;54;30.3381;4.47214;0.056964;262;560.538;54.4809;0;190;1;1;-0.429794;-0.273476;-1.43355;-0.41945;-0.277969;-1.42688;1;-0.739464;0.286993;-0.545369;1;2.91603;0.196692;3.03839;0.00698675;fp_not_a_fp;-1;0.205584;
281066;3127.542257;560;52;30.0538;4.47214;0.0251702;66;560.239;52.5095;0;191;1;1;-0.440218;-0.270866;-1.4506;-0.428918;-0.275175;-1.43494;1;-0.733242;0.282543;-0.650598;1;0.18035;-0.470605;-0.108707;0.00705284;fp_not_a_fp;-1;0.20553;
281067;3127.553384;564;50;29.8734;6.32456;0.0797459;149;562.121;50.4745;0;192;1;1;-0.455617;-0.267314;-1.46284;-0.438835;-0.272574;-1.44423;1;-0.813673;0.285383;-0.751422;1;-1.43482;-0.884415;-2.66884;0.0100346;fp_not_a_fp;-1;0.205555;
281068;3127.564511;564;48;29.9936;4.47214;0.0532546;209;566.294;48.4088;0;193;1;1;-0.453841;-0.260995;-1.4605;-0.444868;-0.268163;-1.45187;1;-0.722766;0.32259;-0.670453;1;2.08073;0.921818;-1.68762;0.00706701;fp_not_a_fp;-1;0.205568;
281069;3127.575639;568;46;29.8909;7.2111;0.0920723;68;566.032;46.2912;0;194;1;1;-0.468135;-0.256707;-1.469;-0.454453;-0.263971;-1.46073;1;-0.756846;0.345964;-0.648897;1;-0.390543;1.32492;-2.32589;0.0114345;fp_not_a_fp;-1;0.205542;
281070;3127.586766;572;46;29.8363;4;0.0815049;172;570.215;44.2167;0;195;1;1;-0.481699;-0.257258;-1.47163;-0.464823;-0.260569;-1.46599;1;-0.829881;0.305181;-0.587378;1;-2.17124;0.508552;1.42033;0.00635427;fp_not_a_fp;-1;0.205529;
281071;3127.597893;572;42;29.7496;5.65685;0.0920881;192;574.544;44.4412;0;196;1;1;-0.483201;-0.247426;-1.48302;-0.471719;-0.255597;-1.47104;1;-0.77143;0.362114;-0.617612;1;0.94913;1.7239;3.00635;0.00901251;fp_not_a_fp;-1;0.20555;
281072;3127.609021;574;42;29.7899;4.47214;0.0605633;67;574.293;40.2039;0;197;1;1;-0.488911;-0.247132;-1.48099;-0.480486;-0.252131;-1.47616;1;-0.714329;0.342823;-0.528008;1;0.189554;0.454585;3.20026;0.00711532;fp_not_a_fp;-1;0.205561;
281073;3127.620148;578;40;29.6802;2.82843;0.112777;145;576.185;40.3581;0;198;1;1;-0.503543;-0.242825;-1.48997;-0.489339;-0.248661;-1.4814;1;-0.767355;0.340499;-0.526599;1;-0.236195;-0.122762;2.74766;0.0045168;fp_not_a_fp;-1;0.205529;
281074;3127.631275;578;38;29.5811;6.32456;0.0807685;168;580.357;38.3866;0;199;1;1;-0.505279;-0.238316;-1.49853;-0.495234;-0.243925;-1.48813;1;-0.71129;0.347785;-0.556989;1;2.66439;0.95725;0.682649;0.0101337;fp_not_a_fp;-1;0.205554;
281075;3127.642403;582;36;29.5149;6.32456;0.0717634;85;580.064;36.3232;0;200;1;1;-0.519309;-0.233601;-1.50542;-0.504261;-0.240469;-1.49373;1;-0.75821;0.36049;-0.577444;1;0.297039;-0.0364834;0.902398;0.0101565;fp_not_a_fp;-1;0.20551;
281076;3127.653530;586;34;29.4428;4.47214;0.0581449;157;584.242;34.2916;0;201;1;1;-0.533508;-0.228909;-1.51264;-0.51541;-0.235913;-1.50164;1;-0.843658;0.373539;-0.594993;1;-2.90566;0.690108;-1.50497;0.00719917;fp_not_a_fp;-1;0.205564;
281077;3127.664657;586;32;29.4582;5.65685;0.0554443;166;588.561;32.2158;0;202;1;1;-0.53328;-0.223446;-1.51544;-0.522844;-0.231069;-1.50801;1;-0.768745;0.393909;-0.558434;1;-0.031131;1.19997;-0.715231;0.00910166;fp_not_a_fp;-1;0.205557;
281078;3127.675785;590;32;29.4567;6.32456;0.0812164;77;588.312;30.1559;0;203;1;1;-0.546178;-0.22354;-1.51545;-0.533069;-0.227374;-1.51224;1;-0.787565;0.351011;-0.472293;1;-1.7136;0.0725439;1.9028;0.0101765;fp_not_a_fp;-1;0.205545;
281079;3127.686911;592;30;29.4213;4.47214;0.0354752;162;592.48;30.3958;0;204;1;1;-0.553329;-0.2185;-1.52084;-0.541574;-0.223599;-1.51609;1;-0.776869;0.346283;-0.438225;1;-0.419196;-0.319125;3.12781;0.00720445;fp_not_a_fp;-1;0.205533;
281080;3127.698038;594;28;29.3945;4.47214;0.0296748;117;594.455;28.4488;0;205;1;1;-0.560334;-0.213386;-1.5258;-0.54828;-0.219719;-1.51938;1;-0.753657;0.358782;-0.425061;1;2.02218;-0.331485;3.81786;0.00721104;fp_not_a_fp;-1;0.205556;
281081;3127.709166;598;26;29.4555;6.32456;0.0651098;61;596.353;26.4151;0;206;1;1;-0.572095;-0.207683;-1.52617;-0.557984;-0.215778;-1.52206;1;-0.782747;0.383557;-0.369653;1;-0.314495;-0.232547;4.24128;0.0101769;fp_not_a_fp;-1;0.205563;
281082;3127.720293;600;26;29.4745;4.47214;0.0565889;169;600.588;24.3449;0;207;1;1;-0.578159;-0.207591;-1.52516;-0.565979;-0.211791;-1.52449;1;-0.764436;0.345932;-0.288018;1;0.519725;-0.114164;4.14021;0.00719149;fp_not_a_fp;-1;0.20555;
281083;3127.731420;600;24;29.3528;4.47214;0.0631586;128;602.579;24.5263;0;208;1;1;-0.580606;-0.203089;-1.53508;-0.572799;-0.207938;-1.52805;1;-0.687417;0.337864;-0.331299;1;2.00986;-0.189188;2.4023;0.00722129;fp_not_a_fp;-1;0.205543;
281084;3127.742548;604;22;29.1641;8.94427;0.105592;58;602.204;22.5418;0;209;1;1;-0.597414;-0.199089;-1.54858;-0.582069;-0.204363;-1.53375;1;-0.760567;0.337281;-0.461664;1;-0.155062;-0.483137;-0.822251;0.0145361;fp_not_a_fp;-1;0.205556;
281085;3127.753675;608;22;29.3799;4.47214;0.0760293;135;606.294;20.4893;0;210;1;1;-0.605932;-0.19771;-1.53715;-0.590528;-0.20187;-1.53649;1;-0.791426;0.309831;-0.325632;1;-0.194866;-1.65646;0.989287;0.00721461;fp_not_a_fp;-1;0.205541;
281086;3127.764802;608;20;29.422;7.2111;0.0808464;122;610.569;20.6761;0;211;1;1;-0.605114;-0.192077;-1.53854;-0.597267;-0.197991;-1.53984;1;-0.693857;0.323542;-0.243817;1;1.58594;-0.503049;0.993382;0.0116167;fp_not_a_fp;-1;0.205517;
281087;3127.775930;612;18;29.3309;6.32456;0.0522714;54;610.323;18.639;0;212;1;1;-0.619972;-0.18739;-1.54687;-0.607108;-0.194067;-1.54278;1;-0.735332;0.341661;-0.274355;1;-1.0763;0.0852766;1.27974;0.0102201;fp_not_a_fp;-1;0.205523;
281088;3127.787057;616;16;29.4379;4.47214;0.0665102;129;614.489;16.5469;0;213;1;1;-0.630647;-0.181444;-1.54478;-0.615416;-0.189656;-1.54183;1;-0.78105;0.373728;-0.227999;1;-0.460106;0.818856;5.25007;0.00720043;fp_not_a_fp;-1;0.205542;
281089;3127.798184;616;14;29.347;5.65685;0.0472065;156;618.765;14.4309;0;214;1;1;-0.63265;-0.176642;-1.55316;-0.622096;-0.184389;-1.54584;1;-0.723285;0.394354;-0.27588;1;1.53111;1.89902;1.11794;0.00913615;fp_not_a_fp;-1;0.205564;
281090;3127.809312;620;14;29.4247;6.32456;0.0643304;64;618.448;12.3044;0;215;1;1;-0.643866;-0.176259;-1.54901;-0.631784;-0.180434;-1.54845;1;-0.735722;0.356972;-0.212861;1;-0.940519;0.751136;0.695463;0.0101876;fp_not_a_fp;-1;0.205558;
281091;3127.820439;624;14;29.3956;2.82843;0.132675;131;622.589;12.494;0;216;1;1;-0.657403;-0.176516;-1.55048;-0.641142;-0.177716;-1.54936;1;-0.802189;0.29304;-0.176611;1;-1.50211;-1.09235;2.19598;0.00456052;fp_not_a_fp;-1;0.205507;
281092;3127.831566;624;12;29.334;5.65685;0.0493862;143;626.822;12.7994;0;217;1;1;-0.658833;-0.171521;-1.55734;-0.648188;-0.175235;-1.5525;1;-0.743728;0.286508;-0.217704;1;0.838594;-1.95958;0.231171;0.0091402;fp_not_a_fp;-1;0.205575;
281093;3127.842694;630;10;29.3325;4.47214;0.108757;58;626.489;10.8262;0;218;1;1;-0.678307;-0.166288;-1.56094;-0.659602;-0.172647;-1.55444;1;-0.847922;0.307243;-0.248181;1;-2.80008;-1.95717;0.622239;0.0072263;fp_not_a_fp;-1;0.205548;
281094;3127.853821;632;10;29.484;2.82843;0.117947;121;632.894;8.73182;0;219;1;1;-0.68125;-0.165475;-1.55289;-0.668948;-0.16995;-1.55541;1;-0.816573;0.285947;-0.136836;1;-1.81632;-1.59584;1.70815;0.00454684;fp_not_a_fp;-1;0.205565;
281095;3127.864948;634;8;29.4589;5.65685;0.0439497;131;634.932;8.84777;0;220;1;1;-0.688317;-0.160314;-1.55777;-0.676677;-0.1659;-1.55724;1;-0.780463;0.299832;-0.129341;1;0.488359;0.152557;1.0621;0.00910145;fp_not_a_fp;-1;0.205553;
281096;3127.876076;638;6;29.4435;6.32456;0.0574299;56;636.789;6.7587;0;221;1;1;-0.701604;-0.155134;-1.56212;-0.68737;-0.161803;-1.55843;1;-0.81829;0.326697;-0.159568;1;-1.67497;0.902873;1.3063;0.010181;fp_not_a_fp;-1;0.20553;
281097;3127.887203;642;6;29.4719;4.47214;0.0532775;126;640.949;4.6249;0;222;1;1;-0.713794;-0.155068;-1.56056;-0.696241;-0.158998;-1.55834;1;-0.869291;0.296891;-0.133846;1;-0.480046;-0.232629;2.56892;0.00719208;fp_not_a_fp;-1;0.205578;
281098;3127.898329;642;4;29.4842;4.47214;0.0557607;122;645.121;4.77585;0;223;1;1;-0.713545;-0.149664;-1.56349;-0.704315;-0.155046;-1.56099;1;-0.776637;0.308648;-0.139743;1;0.897397;0.510003;-0.0652776;0.00718907;fp_not_a_fp;-1;0.205564;
281099;3127.909457;648;2;29.5103;6.32456;0.107328;70;644.76;2.70733;0;224;1;1;-0.732236;-0.144322;-1.56561;-0.715295;-0.151047;-1.56294;1;-0.85352;0.335378;-0.148573;1;-1.64117;0.798546;-0.432032;0.010158;fp_not_a_fp;-1;0.20551;
281100;3127.920584;650;2;29.5051;4.47214;0.0515263;140;651.092;0.58751;0;225;1;1;-0.738792;-0.144389;-1.56586;-0.724592;-0.148361;-1.56388;1;-0.851583;0.302878;-0.136159;1;-0.747841;-0.535228;0.52597;0.00718401;fp_not_a_fp;-1;0.205541;
281101;3127.931711;652;0;29.4992;4.47214;0.0367959;80;653.056;0.751175;0;226;1;1;-0.745415;-0.139123;-1.56972;-0.732497;-0.144375;-1.56617;1;-0.818085;0.31118;-0.157967;1;1.15068;0.320965;-0.541918;0.00718547;fp_not_a_fp;-1;0.205505;
281102;3127.942839;658;0;29.5284;6;0.0953962;46;654.874;-1.30893;0;227;1;1;-0.76394;-0.139109;-1.56809;-0.745096;-0.141736;-1.56732;1;-0.912232;0.275075;-0.128115;1;-3.04621;-0.754312;0.261238;0.00963085;fp_not_a_fp;-1;0.205542;
281103;3127.953966;660;0;29.7173;2;0.134698;43;661.296;-1.13593;0;228;1;1;-0.765462;-0.138265;-1.55809;-0.753403;-0.140222;-1.56544;1;-0.852224;0.234739;0.0151885;1;0.0292916;-2.26109;3.67932;0.00318984;fp_not_a_fp;-1;0.205547;
281104;3127.965093;660;0;29.7173;2;0.134698;43;663.264;-0.893558;1;0;1;1;-0.774929;-0.135797;-1.55769;-0.762437;-0.138074;-1.5634;1;-0.827249;0.216427;0.0770116;1;0.546912;-1.94228;4.78943;-1;fp_not_a_fp;-1;0.205549;
281105;3127.976220;660;0;29.7173;2;0.134698;43;666.533;-1.70033;2;0;1;1;-0.784087;-0.133512;-1.55654;-0.772105;-0.136671;-1.5601;1;-0.816391;0.207447;0.105935;1;0.0382432;-2.33059;5.92924;-1;fp_not_a_fp;-1;0.205551;
281106;3127.987348;660;0;29.7173;2;0.134698;43;669.833;-2.45362;3;0;1;1;-0.793156;-0.131351;-1.555;-0.779409;-0.134732;-1.55683;1;-0.81172;0.202047;0.122061;1;2.25827;-1.64077;5.62089;-1;fp_not_a_fp;-1;0.205509;
281107;3127.998475;660;0;29.7173;2;0.134698;43;673.108;-3.1983;4;0;1;1;-0.802035;-0.129207;-1.5533;-0.788552;-0.132467;-1.55563;1;-0.808045;0.198619;0.132681;1;0.992602;-0.811541;2.63979;-1;fp_not_a_fp;-1;0.205487;
281108;3128.009601;660;0;29.7173;2;0.134698;43;676.399;-3.95258;5;0;1;1;-0.810952;-0.12705;-1.55166;-0.797558;-0.13028;-1.55412;1;-0.805679;0.196593;0.138915;1;0.484627;-0.445627;1.39081;-1;fp_not_a_fp;-1;0.205517;
281109;3128.020729;660;0;29.7173;2;0.134698;43;679.702;-4.7099;6;0;1;1;-0.819874;-0.124893;-1.55003;-0.806505;-0.128126;-1.5525;1;-0.804202;0.195402;0.142448;1;0.273837;-0.270616;0.820359;-1;fp_not_a_fp;-1;0.205503;
281110;3128.031856;660;0;29.7173;2;0.134698;43;683.017;-5.46907;7;0;1;1;-0.828793;-0.122739;-1.5484;-0.815414;-0.125973;-1.55085;1;-0.803251;0.194683;0.144463;1;0.19028;-0.165464;0.503323;-1;fp_not_a_fp;-1;0.205517;
281111;3128.042983;660;0;29.7173;2;0.134698;43;686.343;-6.23048;8;0;1;1;-0.837706;-0.120586;-1.54676;-0.824332;-0.123817;-1.54921;1;-0.802577;0.194232;0.145626;1;0.12285;-0.0985511;0.290839;-1;fp_not_a_fp;-1;0.205507;
281112;3128.054111;660;0;29.7173;2;0.134698;43;689.681;-6.99446;9;0;1;1;-0.846616;-0.118434;-1.54513;-0.833248;-0.121663;-1.54758;1;-0.802058;0.193939;0.146283;1;0.081366;-0.0596294;0.165542;-1;fp_not_a_fp;-1;0.20552;
281113;3128.065238;660;0;29.7173;2;0.134698;43;693.03;-7.76106;10;0;1;1;-0.855523;-0.116283;-1.54349;-0.84216;-0.119511;-1.54594;1;-0.801641;0.193741;0.146647;1;0.0575315;-0.0373095;0.0943258;-1;fp_not_a_fp;-1;0.205497;
281114;3128.076365;660;0;29.7173;2;0.134698;43;696.391;-8.53026;11;0;1;1;-0.864427;-0.114132;-1.54185;-0.851068;-0.117359;-1.54431;1;-0.801283;0.193598;0.146835;1;0.044224;-0.0243696;0.0532893;-1;fp_not_a_fp;-1;0.205534;
281115;3128.087493;660;0;29.7173;2;0.134698;43;699.763;-9.30213;12;0;1;1;-0.873327;-0.111983;-1.54022;-0.859973;-0.115208;-1.54267;1;-0.800949;0.193485;0.146922;1;0.0365765;-0.0167899;0.029097;-1;fp_not_a_fp;-1;0.205521;
281116;3128.098620;660;0;29.7173;2;0.134698;43;703.147;-10.0766;13;0;1;1;-0.882224;-0.109834;-1.53859;-0.868876;-0.113058;-1.54104;1;-0.800641;0.193392;0.146951;1;0.0318222;-0.0122861;0.015004;-1;fp_not_a_fp;-1;0.205492;
281117;3128.109747;660;0;29.7173;2;0.134698;43;706.543;-10.8539;14;0;1;1;-0.891118;-0.107686;-1.53695;-0.877774;-0.110909;-1.5394;1;-0.800346;0.19331;0.146947;1;0.0290995;-0.0096833;0.00673395;-1;fp_not_a_fp;-1;0.205516;
281118;3128.120875;660;0;29.7173;2;0.134698;43;709.951;-11.6337;15;0;1;1;-0.900009;-0.105538;-1.53532;-0.88667;-0.108761;-1.53777;1;-0.800048;0.193232;0.14692;1;0.0277289;-0.00823314;0.00189919;-1;fp_not_a_fp;-1;0.205499;
281119;3128.132002;660;0;29.7173;2;0.134698;43;713.37;-12.4163;16;0;1;1;-0.908897;-0.103392;-1.53369;-0.895562;-0.106613;-1.53614;1;-0.79976;0.193158;0.146884;1;0.0267158;-0.00733476;-0.000857696;-1;fp_not_a_fp;-1;0.205505;
281120;3128.143128;660;0;29.7173;2;0.134698;43;716.801;-13.2017;17;0;1;1;-0.917781;-0.101246;-1.53205;-0.904452;-0.104466;-1.5345;1;-0.799477;0.193089;0.146843;1;0.0261439;-0.00681046;-0.00244065;-1;fp_not_a_fp;-1;0.205556;
281121;3128.154256;-1;-1;-1;-1;-1;-1;720.245;-13.9898;18;0;0;1;-0.917781;-0.101246;-1.53205;-0.904452;-0.104466;-1.5345;1;-0.799477;0.193089;0.146843;1;0.0261439;-0.00681046;-0.00244065;-1;fp_not_a_fp;-1;0.205474;
281122;3128.165383;-1;-1;-1;-1;-1;-1;720.245;-13.9898;19;0;0;1;-0.917781;-0.101246;-1.53205;-0.904452;-0.104466;-1.5345;1;-0.799477;0.193089;0.146843;1;0.0261439;-0.00681046;-0.00244065;-1;fp_not_a_fp;-1;0.205519;
