rs_id;elapsed;imLx_insect;imLy_insect;disparity_insect;size_insect;score_insect;motion_sum_insect;imLx_pred_insect;imLy_pred_insect;n_frames_lost_insect;n_frames_tracking_insect;foundL_insect;pos_valid_insect;posX_insect;posY_insect;posZ_insect;sposX_insect;sposY_insect;sposZ_insect;vel_valid_insect;svelX_insect;svelY_insect;svelZ_insect;acc_valid_insect;saccX_insect;saccY_insect;saccZ_insect;radius_insect;fp;hunt_id;light_level;
260853;2902.602880;160;266;22.4149;2;0;14;-1;-1;0;1;1;1;1.10835;-1.10358;-1.44794;1.10835;-1.10358;-1.44794;0;0;0;0;0;0;0;0;0.00422902;fp_not_a_fp;-1;0.205341;
260854;2902.614007;160;266;22.4149;2;0;14;160;266;1;0;1;1;1.10835;-1.10358;-1.44794;1.10835;-1.10358;-1.44794;1;-1.36652e-06;0;0;0;0;0;0;-1;fp_short_detection;-1;0.205327;
260855;2902.625135;162;264;22.4013;2;0.187191;15;160;266;0;1;1;1;1.1005;-1.09728;-1.4535;1.10573;-1.10148;-1.44979;1;-0.0900403;0.0722115;-0.0637318;0;-8.09107;6.48906;-5.72706;0.00423164;fp_not_a_fp;-1;0.205323;
260856;2902.636262;166;262;22.4485;2;0.120653;11;162.255;263.745;0;2;1;1;1.08123;-1.08807;-1.45508;1.09961;-1.09813;-1.45111;1;-0.336666;0.198392;-0.10003;0;-15.1281;8.91465;-4.49465;0.00422276;fp_not_a_fp;-1;0.20533;
260857;2902.647389;166;262;22.4571;2;0.0535714;17;166.838;261.417;0;3;1;1;1.08081;-1.08765;-1.45452;1.09272;-1.09414;-1.45276;1;-0.40042;0.230038;-0.0958436;0;-11.9953;6.89115;-2.87102;0.00422115;fp_not_a_fp;-1;0.205315;
260858;2902.658516;168;260;22.3076;2.82843;0.0771009;18;166.973;261.355;0;4;1;1;1.07949;-1.08794;-1.46896;1.0855;-1.09023;-1.45801;1;-0.390849;0.210463;-0.247504;0;-8.78143;4.72854;-5.56076;0.00600953;fp_not_a_fp;-1;0.205342;
260859;2902.669644;168;260;22.1858;2;0.0535714;19;169.151;259.163;0;5;1;1;1.08542;-1.09392;-1.47703;1.08173;-1.08939;-1.4639;1;-0.269063;0.10702;-0.371113;1;-4.0226;0.782323;-6.90599;0.00427277;fp_not_a_fp;-1;0.20531;
260860;2902.680771;170;258;22.2521;2.82843;0.0782423;12;169.176;259.125;0;6;1;1;1.07359;-1.08364;-1.47734;1.07983;-1.08829;-1.46946;1;-0.319949;0.16846;-0.378376;1;0.37536;-0.672298;-6.2536;0.00602455;fp_not_a_fp;-1;0.205323;
260861;2902.691898;172;258;22.2893;2;0.0926641;15;171.204;257.007;0;7;1;1;1.0633;-1.08188;-1.47484;1.07545;-1.08684;-1.47454;1;-0.418219;0.19247;-0.304407;1;-0.40015;-0.843891;-4.68573;0.00425292;fp_not_a_fp;-1;0.20533;
260862;2902.703026;174;256;22.2814;2.82843;0.072608;15;173.348;257.083;0;8;1;1;1.0551;-1.07526;-1.48007;1.06935;-1.08367;-1.47732;1;-0.499446;0.253765;-0.294953;1;-2.44002;0.97299;-1.06587;0.00601662;fp_not_a_fp;-1;0.205335;
260863;2902.714153;174;256;22.2019;2;0.0535714;18;175.49;254.979;0;9;1;1;1.05887;-1.07911;-1.48536;1.06272;-1.07997;-1.4794;1;-0.426024;0.202616;-0.314145;1;-3.52643;2.14773;1.27994;0.00426961;fp_not_a_fp;-1;0.205318;
260864;2902.725280;178;254;22.1378;2;0.142727;15;175.354;255.068;0;10;1;1;1.04475;-1.07524;-1.49436;1.0555;-1.07787;-1.48366;1;-0.503291;0.200022;-0.38518;1;-4.11917;0.70902;-0.152906;0.00428195;fp_not_a_fp;-1;0.205289;
260865;2902.736408;178;254;22.3227;2;0.0146244;21;179.66;252.973;0;11;1;1;1.03609;-1.06633;-1.48198;1.0487;-1.07398;-1.48544;1;-0.570222;0.275528;-0.223522;1;-3.4149;1.86589;1.81698;0.00424655;fp_not_a_fp;-1;0.205358;
260866;2902.747535;180;252;22.2785;2.82843;0.0628104;18;179.561;253.054;0;12;1;1;1.02957;-1.06144;-1.48964;1.04232;-1.07053;-1.48784;1;-0.599869;0.327653;-0.215899;1;-2.25615;1.65995;1.77587;0.00601739;fp_not_a_fp;-1;0.205311;
260867;2902.758662;180;252;22.1848;2;0.0191262;21;181.567;250.958;0;13;1;1;1.03392;-1.06592;-1.49592;1.03608;-1.06723;-1.49048;1;-0.48578;0.256035;-0.2573;1;-1.34248;1.20008;1.27688;0.00427295;fp_not_a_fp;-1;0.205317;
260868;2902.769790;182;250;21.9952;2.82843;0.0625797;16;181.364;251.055;0;14;1;1;1.03415;-1.06801;-1.51358;1.03343;-1.06542;-1.49528;1;-0.374094;0.169848;-0.444018;1;2.9027;-0.677929;-1.3219;0.00609494;fp_not_a_fp;-1;0.205316;
260869;2902.780917;184;250;22.1641;2;0.0570538;30;183.319;248.97;0;15;1;1;1.01771;-1.05993;-1.50201;1.02884;-1.06382;-1.50029;1;-0.468593;0.205201;-0.331923;1;2.28318;-1.57994;-2.43519;0.00427689;fp_not_a_fp;-1;0.205346;
260870;2902.792044;186;248;21.991;2.82843;0.0615484;23;185.431;249.055;0;16;1;1;1.01704;-1.06117;-1.5186;1.0257;-1.06375;-1.50753;1;-0.455651;0.179405;-0.433435;1;3.24006;-3.33067;-4.88726;0.00609608;fp_not_a_fp;-1;0.205303;
260871;2902.803172;186;248;22.1238;2;0.0191262;41;187.532;246.97;0;17;1;1;1.01093;-1.0548;-1.50949;1.01996;-1.06097;-1.51092;1;-0.462161;0.218874;-0.315615;1;0.530487;-0.83487;-1.3102;0.00428469;fp_not_a_fp;-1;0.205365;
260872;2902.814299;188;246;22.1005;2.82843;0.0620953;16;187.394;247.055;0;18;1;1;1.00335;-1.04884;-1.51582;1.01226;-1.05618;-1.51148;1;-0.492817;0.275545;-0.299249;1;-2.66743;2.37467;3.25231;0.00606583;fp_not_a_fp;-1;0.205322;
260873;2902.825426;188;246;22.0161;2;0.0191262;56;189.409;244.96;0;19;1;1;1.0072;-1.05287;-1.52164;1.00963;-1.05442;-1.51639;1;-0.398496;0.217687;-0.320987;1;1.57494;0.280421;0.245379;0.00430565;fp_not_a_fp;-1;0.205349;
260874;2902.836554;190;244;21.9913;2.82843;0.0655279;22;189.199;245.057;0;20;1;1;0.999644;-1.04695;-1.52812;1.00528;-1.05086;-1.51877;1;-0.395268;0.233804;-0.363327;1;1.35669;1.2221;1.57497;0.00609602;fp_not_a_fp;-1;0.205296;
260875;2902.847681;190;244;21.764;2;0.0234591;38;191.213;242.963;0;21;1;1;1.01008;-1.05788;-1.54408;1.00507;-1.05164;-1.52741;1;-0.223846;0.0853079;-0.517416;1;5.35441;-3.00099;-4.53395;0.00435551;fp_not_a_fp;-1;0.205337;
260876;2902.858808;194;242;21.7586;2;0.121409;26;191.053;243.067;0;22;1;1;0.992841;-1.05103;-1.54924;1.00244;-1.05218;-1.53577;1;-0.322106;0.0916499;-0.574309;1;3.83552;-4.13176;-6.17993;0.00435664;fp_not_a_fp;-1;0.205342;
260877;2902.869936;194;242;22.0361;2;0.0191262;42;195.387;240.975;0;23;1;1;0.980337;-1.03779;-1.52973;0.995727;-1.04841;-1.53779;1;-0.464953;0.234305;-0.300923;1;-1.49286;0.373074;0.450364;0.00430177;fp_not_a_fp;-1;0.205345;
260878;2902.881063;196;240;21.9039;2.82843;0.0623498;32;195.373;241.052;0;24;1;1;0.977531;-1.03693;-1.54375;0.990198;-1.04591;-1.5417;1;-0.49685;0.273297;-0.310266;1;-2.28209;0.887084;1.19163;0.00612037;fp_not_a_fp;-1;0.205315;
260879;2902.892190;196;240;22.0964;2.82843;0.0240831;50;197.43;238.962;0;25;1;1;0.969014;-1.02789;-1.5303;0.979931;-1.03841;-1.53826;1;-0.544287;0.358113;-0.120374;1;-7.19937;6.12909;8.92017;0.00606702;fp_not_a_fp;-1;0.205341;
260880;2902.903318;198;238;21.9758;2.82843;0.0585323;30;197.29;239.043;0;26;1;1;0.965634;-1.02642;-1.54346;0.973129;-1.03226;-1.53681;1;-0.533206;0.364313;-0.177431;1;-4.74274;6.12589;8.91661;0.00610031;fp_not_a_fp;-1;0.205312;
260881;2902.914445;200;238;21.9518;2;0.062535;44;199.279;236.952;0;27;1;1;0.958057;-1.02761;-1.54512;0.967559;-1.02971;-1.54066;1;-0.547473;0.306854;-0.197351;1;-1.8541;1.63002;2.32717;0.00431831;fp_not_a_fp;-1;0.205385;
260882;2902.925572;202;238;21.7606;2;0.0586364;29;201.397;237.049;0;28;1;1;0.957763;-1.03669;-1.55866;0.962617;-1.02965;-1.54438;1;-0.486908;0.139807;-0.335607;1;0.223361;-2.99927;-0.56921;0.00435622;fp_not_a_fp;-1;0.205324;
260883;2902.936700;202;236;21.8801;2.82843;0.0852841;30;203.509;237.249;0;29;1;1;0.95246;-1.02383;-1.55497;0.958479;-1.02864;-1.55055;1;-0.460555;0.200344;-0.307646;1;1.8812;-3.54485;-4.20752;0.00612698;fp_not_a_fp;-1;0.205349;
260884;2902.947827;204;236;21.7252;2;0.0562184;27;203.375;235.136;0;30;1;1;0.950529;-1.03119;-1.56602;0.954703;-1.02983;-1.55619;1;-0.413061;0.115426;-0.383573;1;2.69934;-5.59209;-4.63162;0.00436334;fp_not_a_fp;-1;0.20532;
260885;2902.958953;204;234;21.9801;2.82843;0.0820896;27;205.383;235.238;0;31;1;1;0.939436;-1.01207;-1.55267;0.950047;-1.02595;-1.55808;1;-0.467911;0.284812;-0.212912;1;1.78752;-0.495271;-0.349596;0.00609912;fp_not_a_fp;-1;0.205349;
260886;2902.970081;206;234;21.9648;2.82843;0.0572123;33;205.2;233.079;0;32;1;1;0.931458;-1.01283;-1.55371;0.943471;-1.01998;-1.55684;1;-0.522336;0.309765;-0.127176;1;-0.795976;3.81852;4.68286;0.00610338;fp_not_a_fp;-1;0.205306;
260887;2902.981208;208;232;21.8066;2;0.0699023;26;207.22;233.134;0;33;1;1;0.929455;-1.01302;-1.56979;0.93772;-1.01728;-1.56055;1;-0.501172;0.278414;-0.259864;1;-0.912493;1.75409;1.07348;0.00434707;fp_not_a_fp;-1;0.205339;
260888;2902.992335;210;232;21.9508;2.82843;0.0523435;27;209.35;231.019;0;34;1;1;0.91471;-1.00642;-1.55944;0.928765;-1.01109;-1.5589;1;-0.597525;0.305613;-0.162858;1;-4.14442;4.27313;4.9589;0.00610722;fp_not_a_fp;-1;0.205287;
260889;2903.003463;210;232;21.9422;2;0.0276323;32;211.5;231.087;0;35;1;1;0.915068;-1.00681;-1.56005;0.922673;-1.00977;-1.56074;1;-0.557021;0.27335;-0.109001;1;-2.00208;-0.257501;2.33439;0.00432016;fp_not_a_fp;-1;0.205319;
260890;2903.014591;212;232;21.6411;2;0.0537589;39;211.365;231.267;0;36;1;1;0.91904;-1.02088;-1.58171;0.919568;-1.01178;-1.56775;1;-0.423708;0.0639191;-0.321208;1;2.21582;-5.52347;-4.3595;0.00438027;fp_not_a_fp;-1;0.205373;
260891;2903.025717;212;230;21.802;2.82843;0.0862709;49;213.369;231.444;0;37;1;1;0.912192;-1.00613;-1.57489;0.915252;-1.01006;-1.56902;1;-0.393072;0.138307;-0.289742;1;2.42865;-3.14771;-0.671288;0.00614898;fp_not_a_fp;-1;0.205362;
260892;2903.036845;216;230;21.7078;2;0.112416;42;213.184;229.327;0;38;1;1;0.898681;-1.01061;-1.58164;0.911245;-1.01111;-1.57457;1;-0.485144;0.10009;-0.317177;1;2.52501;-4.6174;-3.46714;0.00436683;fp_not_a_fp;-1;0.205311;
260893;2903.047972;216;230;21.9244;2;0.0234591;53;217.482;229.368;0;39;1;1;0.889804;-1.00062;-1.56602;0.904929;-1.00956;-1.57607;1;-0.563072;0.185962;-0.108966;1;-0.135838;-1.96323;0.000943899;0.00432368;fp_not_a_fp;-1;0.205379;
260894;2903.059099;218;228;21.7823;2.82843;0.0729544;35;217.436;229.459;0;40;1;1;0.886836;-0.999981;-1.58105;0.896878;-1.00433;-1.5759;1;-0.557476;0.205089;-0.181295;1;-3.00529;3.17189;3.14363;0.00615452;fp_not_a_fp;-1;0.205318;
260895;2903.070227;218;228;21.5922;2;0.0234591;57;219.475;227.284;0;41;1;1;0.894643;-1.00878;-1.59497;0.892491;-1.005;-1.58092;1;-0.394572;0.0859332;-0.347594;1;-0.0338337;-1.17642;-1.29945;0.00439023;fp_not_a_fp;-1;0.205356;
260896;2903.081354;220;228;21.6683;2;0.0493487;33;219.292;227.341;0;42;1;1;0.882752;-1.0053;-1.58933;0.888509;-1.00367;-1.58284;1;-0.413223;0.0656743;-0.307349;1;1.61559;-0.773009;0.221131;0.00437476;fp_not_a_fp;-1;0.20534;
260897;2903.092481;222;226;21.7916;2.82843;0.0789086;57;221.283;227.443;0;43;1;1;0.868991;-0.992448;-1.58515;0.883306;-1.00163;-1.58762;1;-0.52597;0.196251;-0.203618;1;0.833292;0.231414;-2.1263;0.00615187;fp_not_a_fp;-1;0.205326;
260898;2903.103608;224;226;21.9682;2.82843;0.0529953;46;223.407;225.269;0;44;1;1;0.853373;-0.984523;-1.57236;0.87494;-0.997764;-1.58545;1;-0.684521;0.316031;0.0117999;1;-2.85482;2.49292;4.33885;0.00610239;fp_not_a_fp;-1;0.205328;
260899;2903.114736;224;226;21.6173;2;0.0191262;68;225.547;225.316;0;45;1;1;0.867225;-1.0005;-1.59789;0.868085;-0.995693;-1.58618;1;-0.503952;0.142041;-0.193238;1;-2.45797;1.26101;3.46854;0.00438507;fp_not_a_fp;-1;0.205324;
260900;2903.125863;228;224;21.7746;2;0.112526;51;225.378;225.435;0;46;1;1;0.843479;-0.986162;-1.59112;0.858267;-0.990909;-1.58663;1;-0.637259;0.216426;-0.175761;1;-5.03404;3.38745;2.957;0.00435342;fp_not_a_fp;-1;0.205367;
260901;2903.136990;228;224;21.8932;2.82843;0.0240831;49;229.693;223.262;0;47;1;1;0.838908;-0.980818;-1.5825;0.850746;-0.988002;-1.58597;1;-0.663458;0.280815;-0.0472887;1;-3.08948;1.90036;3.51288;0.00612335;fp_not_a_fp;-1;0.205302;
260902;2903.148118;230;224;21.6844;2;0.04383;45;229.581;223.313;0;48;1;1;0.838245;-0.990321;-1.5977;0.846964;-0.989451;-1.5923;1;-0.597268;0.162681;-0.162412;1;1.95991;-3.4449;-3.91355;0.00437151;fp_not_a_fp;-1;0.20531;
260903;2903.159245;232;222;21.7428;2.82843;0.0707894;70;231.568;223.431;0;49;1;1;0.827207;-0.980481;-1.59824;0.83696;-0.984446;-1.59239;1;-0.620261;0.205911;-0.195386;1;-2.61334;1.43525;-0.0480318;0.0061657;fp_not_a_fp;-1;0.205364;
260904;2903.170372;234;222;21.8789;2.82843;0.044736;48;233.66;221.261;0;50;1;1;0.813396;-0.974438;-1.58825;0.829439;-0.981515;-1.59167;1;-0.708968;0.266785;-0.0696767;1;-1.61123;1.13168;2.38365;0.00612731;fp_not_a_fp;-1;0.205329;
260905;2903.181500;236;222;21.641;0;0.126361;96;235.719;221.313;0;51;1;1;0.813575;-0.985204;-1.60567;0.823106;-0.982611;-1.59747;1;-0.653144;0.134505;-0.208472;1;0.231532;-3.28684;-3.62102;0;fp_not_a_fp;-1;0.205361;
260906;2903.192627;238;220;21.7086;2.82843;0.077648;49;237.785;221.431;0;52;1;1;0.802242;-0.974946;-1.60551;0.814105;-0.978767;-1.59942;1;-0.676676;0.180276;-0.237344;1;-1.7842;0.395569;-1.68338;0.00617541;fp_not_a_fp;-1;0.205337;
260907;2903.203754;238;220;21.7136;2.82843;0.0259181;90;239.852;219.262;0;53;1;1;0.802057;-0.974721;-1.60513;0.807817;-0.977327;-1.60114;1;-0.602214;0.178777;-0.214752;1;0.405408;-0.609388;-0.434926;0.00617401;fp_not_a_fp;-1;0.205364;
260908;2903.214882;242;220;21.5859;0;0.174676;49;239.611;219.318;0;54;1;1;0.789235;-0.980601;-1.61455;0.801777;-0.978868;-1.60772;1;-0.641593;0.0879593;-0.285955;1;1.51373;-4.01739;-4.85893;0;fp_not_a_fp;-1;0.205353;
260909;2903.226009;242;218;21.6818;2.82843;0.107251;91;243.831;219.433;0;55;1;1;0.785676;-0.969005;-1.61228;0.794803;-0.974818;-1.60937;1;-0.616826;0.172133;-0.252932;1;0.816057;0.845626;-0.998792;0.00618304;fp_not_a_fp;-1;0.205329;
260910;2903.237136;244;218;21.595;2;0.0307029;33;243.673;217.263;0;56;1;1;0.780055;-0.972957;-1.61873;0.789256;-0.974321;-1.61267;1;-0.592353;0.139661;-0.280861;1;1.89464;-0.912349;-0.977608;0.00438963;fp_not_a_fp;-1;0.205317;
260911;2903.248264;246;216;21.5497;2;0.0487575;88;245.636;217.322;0;57;1;1;0.772826;-0.967754;-1.62699;0.781948;-0.972579;-1.61814;1;-0.58954;0.16807;-0.351303;1;0.284827;-0.240446;-3.06773;0.00439884;fp_not_a_fp;-1;0.205326;
260912;2903.259390;248;216;21.5027;2;0.0291293;45;247.696;215.149;0;58;1;1;0.765701;-0.969929;-1.63051;0.776065;-0.969911;-1.62213;1;-0.594862;0.133434;-0.375977;1;1.04993;1.02165;-2.02248;0.0044085;fp_not_a_fp;-1;0.205342;
260913;2903.270517;248;214;21.5655;2.82843;0.104534;73;249.724;215.186;0;59;1;1;0.763402;-0.959806;-1.63066;0.770496;-0.967611;-1.62672;1;-0.547542;0.218149;-0.339953;1;1.55664;1.03382;-1.95505;0.00621636;fp_not_a_fp;-1;0.205363;
260914;2903.281645;250;214;21.5611;2;0.0335454;46;249.523;213.05;0;60;1;1;0.754763;-0.960057;-1.63095;0.764173;-0.964386;-1.62978;1;-0.557167;0.222454;-0.28503;1;0.790555;1.86011;-0.0936404;0.00439655;fp_not_a_fp;-1;0.205386;
260915;2903.292772;250;212;21.5243;2.82843;0.105444;76;251.497;213.114;0;61;1;1;0.755987;-0.954389;-1.63866;0.759963;-0.961045;-1.6327;1;-0.47605;0.260834;-0.314282;1;2.54988;2.08419;0.831655;0.00622831;fp_not_a_fp;-1;0.205323;
260916;2903.303899;252;212;21.5035;2;0.0508351;60;251.263;211.002;0;62;1;1;0.747902;-0.95537;-1.6402;0.755514;-0.957405;-1.63512;1;-0.474484;0.232176;-0.304019;1;2.70466;2.21852;1.61663;0.00440832;fp_not_a_fp;-1;0.205313;
260917;2903.315027;254;210;21.5019;2.82843;0.07613;64;253.258;211.082;0;63;1;1;0.73907;-0.948177;-1.6452;0.749431;-0.954498;-1.63875;1;-0.514547;0.273166;-0.318259;1;0.741426;1.23601;0.487346;0.00623478;fp_not_a_fp;-1;0.205326;
260918;2903.326154;256;210;21.5362;2;0.0446244;76;255.382;208.979;0;64;1;1;0.729089;-0.946723;-1.64254;0.743012;-0.951165;-1.64165;1;-0.579888;0.271928;-0.253043;1;-0.510407;1.11149;0.718706;0.00440164;fp_not_a_fp;-1;0.205351;
260919;2903.337281;256;208;21.436;2.82843;0.0818999;67;257.514;209.064;0;65;1;1;0.732427;-0.943805;-1.65514;0.737122;-0.948519;-1.64577;1;-0.49466;0.270182;-0.338332;1;-0.418005;0.209932;-0.540372;0.00625391;fp_not_a_fp;-1;0.205345;
260920;2903.348409;258;208;21.4451;2;0.0562519;67;257.368;206.97;0;66;1;1;0.723277;-0.943464;-1.65441;0.730966;-0.945542;-1.64932;1;-0.501224;0.238911;-0.321955;1;-0.600663;0.151293;-0.403026;0.00442033;fp_not_a_fp;-1;0.205338;
260921;2903.359536;258;206;21.4981;2.82843;0.0787003;62;259.39;207.06;0;67;1;1;0.721425;-0.933817;-1.65524;0.726555;-0.941952;-1.65183;1;-0.461236;0.306099;-0.283725;1;1.19785;0.740004;0.775833;0.00623591;fp_not_a_fp;-1;0.205361;
260922;2903.370663;262;206;21.3783;0;0.195483;74;259.194;204.961;0;68;1;1;0.70773;-0.939164;-1.66444;0.721215;-0.940062;-1.65731;1;-0.542869;0.233533;-0.337122;1;0.831794;-0.862589;-1.88915;0;fp_not_a_fp;-1;0.205315;
260923;2903.381791;262;204;21.4656;2.82843;0.0900593;66;263.49;205.059;0;69;1;1;0.704782;-0.928011;-1.66259;0.714304;-0.936114;-1.65917;1;-0.541154;0.30159;-0.295015;1;-1.04461;0.705564;0.973129;0.00624527;fp_not_a_fp;-1;0.205358;
260924;2903.392918;264;204;21.325;2;0.0491146;80;263.433;202.959;0;70;1;1;0.700538;-0.934187;-1.67351;0.708619;-0.933794;-1.66395;1;-0.520066;0.220446;-0.365184;1;-0.423338;-0.415028;-0.971377;0.00444521;fp_not_a_fp;-1;0.205322;
260925;2903.404045;264;202;21.3279;2.82843;0.0894569;73;265.467;203.059;0;71;1;1;0.700375;-0.926682;-1.67824;0.703356;-0.932011;-1.6697;1;-0.446889;0.244823;-0.401839;1;0.322322;-1.3769;-2.65388;0.00628562;fp_not_a_fp;-1;0.205339;
260926;2903.415173;266;200;21.3705;2.82843;0.068652;71;265.299;200.965;0;72;1;1;0.690036;-0.917526;-1.6798;0.698933;-0.926601;-1.67354;1;-0.47815;0.328623;-0.383577;1;1.45413;2.13613;-1.04389;0.00627308;fp_not_a_fp;-1;0.205311;
260927;2903.426300;268;200;21.3823;2;0.0609534;59;267.288;198.77;0;73;1;1;0.680791;-0.91708;-1.67884;0.692935;-0.923869;-1.6776;1;-0.536065;0.326451;-0.31608;1;0.114365;0.558423;-0.473291;0.00443329;fp_not_a_fp;-1;0.20533;
260928;2903.437427;270;198;21.1864;2;0.0458271;90;269.405;198.877;0;74;1;1;0.678064;-0.918185;-1.6993;0.687317;-0.919868;-1.68405;1;-0.522877;0.271242;-0.482466;1;-0.0631329;1.14112;-2.63508;0.00447427;fp_not_a_fp;-1;0.205324;
260929;2903.448555;270;198;21.0362;2;0.0127078;75;271.514;196.791;0;75;1;1;0.682906;-0.924742;-1.71144;0.68295;-0.919383;-1.69235;1;-0.395232;0.138675;-0.628779;1;1.16041;-2.38485;-5.09859;0.00450625;fp_not_a_fp;-1;0.205366;
260930;2903.459682;272;196;21.079;2.82843;0.0723479;74;271.36;196.945;0;76;1;1;0.672455;-0.915456;-1.71294;0.678554;-0.918865;-1.70063;1;-0.411876;0.172651;-0.626218;1;1.48878;-3.50411;-5.45131;0.00635983;fp_not_a_fp;-1;0.205321;
260931;2903.470809;272;196;20.9875;2;0.0127078;57;273.38;194.888;0;77;1;1;0.675387;-0.919448;-1.72041;0.677203;-0.919457;-1.71102;1;-0.332608;0.118913;-0.630902;1;4.57101;-4.66269;-7.07311;0.00451671;fp_not_a_fp;-1;0.205369;
260932;2903.481937;274;194;20.9987;2.82843;0.0776212;63;273.177;195.01;0;78;1;1;0.665926;-0.911519;-1.72448;0.674169;-0.917791;-1.71731;1;-0.365866;0.172418;-0.599039;1;3.52753;-2.22022;-2.61892;0.00638418;fp_not_a_fp;-1;0.205348;
260933;2903.493063;274;192;21.1017;2.82843;0.0683463;87;275.196;192.933;0;79;1;1;0.662607;-0.899613;-1.72107;0.669094;-0.911508;-1.71972;1;-0.370994;0.309019;-0.470434;1;0.544646;3.82725;3.55768;0.00635301;fp_not_a_fp;-1;0.205372;
260934;2903.504190;276;192;21.0395;2.82843;0.0699648;65;275.061;190.745;0;80;1;1;0.655553;-0.902329;-1.72612;0.664869;-0.908227;-1.72302;1;-0.406648;0.294918;-0.415105;1;0.117514;2.74703;4.74327;0.00637176;fp_not_a_fp;-1;0.205328;
260935;2903.515319;276;190;21.0438;2.82843;0.0607652;68;277.117;190.863;0;81;1;1;0.655349;-0.894666;-1.73079;0.659859;-0.902031;-1.72561;1;-0.371858;0.339313;-0.392817;1;-0.881887;4.95179;5.3492;0.00637047;fp_not_a_fp;-1;0.2053;
260936;2903.526446;278;190;20.7183;2;0.0784127;66;277;188.77;0;82;1;1;0.656494;-0.908781;-1.75794;0.657501;-0.901347;-1.73398;1;-0.296924;0.152577;-0.644731;1;1.54889;-0.445814;-1.02661;0.00457537;fp_not_a_fp;-1;0.205349;
260937;2903.537573;280;188;20.8503;2.82843;0.063081;64;279.059;188.938;0;83;1;1;0.643174;-0.895538;-1.75184;0.652643;-0.900328;-1.74167;1;-0.380777;0.207753;-0.596663;1;-0.219891;-2.27534;-2.83614;0.0064296;fp_not_a_fp;-1;0.205374;
260938;2903.548700;282;188;20.6183;2;0.0709499;54;281.244;186.879;0;84;1;1;0.641217;-0.905676;-1.77151;0.649059;-0.901165;-1.75302;1;-0.38929;0.0878357;-0.726225;1;0.389928;-4.65274;-6.9902;0.00459757;fp_not_a_fp;-1;0.205351;
260939;2903.559828;282;186;20.6702;2.82843;0.0717025;76;283.394;187.01;0;85;1;1;0.639535;-0.895788;-1.77218;0.645105;-0.901445;-1.76336;1;-0.362431;0.140419;-0.694761;1;0.211745;-4.46878;-6.78404;0.00648563;fp_not_a_fp;-1;0.205344;
260940;2903.570955;284;186;20.6233;2;0.0726589;63;283.29;184.935;0;86;1;1;0.631796;-0.897884;-1.77616;0.638931;-0.898721;-1.76792;1;-0.393815;0.120211;-0.63885;1;-2.17697;-0.727229;0.132121;0.00459644;fp_not_a_fp;-1;0.205347;
260941;2903.582082;286;184;20.7828;2.82843;0.0558521;63;285.33;185.038;0;87;1;1;0.617754;-0.88348;-1.76758;0.632576;-0.895707;-1.77186;1;-0.517527;0.261652;-0.435833;1;-3.07257;1.21101;3.61357;0.00645053;fp_not_a_fp;-1;0.205304;
260942;2903.593210;288;184;20.6634;2;0.0699145;62;287.443;182.944;0;88;1;1;0.612149;-0.888645;-1.77775;0.625309;-0.891449;-1.77342;1;-0.56689;0.227528;-0.412948;1;-3.99028;3.13866;7.03864;0.00458752;fp_not_a_fp;-1;0.205356;
260943;2903.604337;288;182;20.7556;2.82843;0.076481;80;289.548;183.045;0;89;1;1;0.609357;-0.877113;-1.77494;0.617764;-0.88678;-1.77411;1;-0.546981;0.316593;-0.318644;1;-4.14637;3.95842;8.45056;0.00645893;fp_not_a_fp;-1;0.205302;
260944;2903.615464;290;182;20.6647;2;0.0663089;47;289.406;180.949;0;90;1;1;0.602865;-0.881033;-1.78271;0.610531;-0.882567;-1.77575;1;-0.54341;0.268084;-0.328104;1;-3.36102;3.32255;6.98186;0.00458726;fp_not_a_fp;-1;0.205318;
260945;2903.626592;290;180;20.6208;2.82843;0.0771249;61;291.413;181.048;0;91;1;1;0.604075;-0.875275;-1.79163;0.607112;-0.880516;-1.78176;1;-0.458748;0.279848;-0.392379;1;1.32059;0.408927;0.97639;0.00650119;fp_not_a_fp;-1;0.205336;
260946;2903.637719;294;180;20.5463;4;0.157408;44;291.203;178.959;0;92;1;1;0.587811;-0.87857;-1.79805;0.601027;-0.877997;-1.78683;1;-0.551674;0.211245;-0.442442;1;0.341734;-0.365822;-0.662537;0.00922738;fp_not_a_fp;-1;0.205327;
260947;2903.648846;294;178;20.5089;2.82843;0.0670644;69;295.496;179.056;0;93;1;1;0.588808;-0.872494;-1.80647;0.59589;-0.876843;-1.79472;1;-0.508283;0.225598;-0.503273;1;0.869336;-2.04443;-4.14805;0.00653663;fp_not_a_fp;-1;0.20532;
260948;2903.659974;296;178;20.478;4;0.0902535;31;295.426;176.966;0;94;1;1;0.580441;-0.873874;-1.80917;0.590284;-0.875053;-1.80133;1;-0.521424;0.186931;-0.495076;1;0.493881;-1.82324;-3.75139;0.00925814;fp_not_a_fp;-1;0.205316;
260949;2903.671101;296;176;20.4946;2.82843;0.0571631;68;297.466;177.06;0;95;1;1;0.579898;-0.865485;-1.81285;0.58424;-0.872606;-1.80664;1;-0.466579;0.243273;-0.470823;1;-0.175874;-0.821666;-1.76246;0.00654122;fp_not_a_fp;-1;0.20533;
260950;2903.682229;298;174;20.299;2.82843;0.0388374;41;297.3;174.965;0;96;1;1;0.576072;-0.866131;-1.83548;0.581305;-0.869496;-1.81599;1;-0.428257;0.228128;-0.660163;1;2.77293;0.379404;-4.89165;0.00660422;fp_not_a_fp;-1;0.205338;
260951;2903.693357;298;174;20.4323;2.82843;0.00299665;59;299.272;172.786;0;97;1;1;0.572314;-0.86048;-1.82351;0.577181;-0.866493;-1.82025;1;-0.400873;0.25754;-0.516951;1;2.41323;0.717679;-0.307535;0.00656116;fp_not_a_fp;-1;0.205314;
260952;2903.704484;300;172;20.3685;2.82843;0.043101;42;299.113;172.884;0;98;1;1;0.564726;-0.85551;-1.83437;0.573252;-0.861901;-1.82656;1;-0.4254;0.29382;-0.516332;1;2.1574;2.4015;-0.47775;0.00658169;fp_not_a_fp;-1;0.205314;
260953;2903.715611;302;172;20.6471;0;0.173832;64;301.151;170.79;0;99;1;1;0.547924;-0.844026;-1.80958;0.565259;-0.856537;-1.82574;1;-0.573884;0.402979;-0.166012;1;-2.41098;3.58818;6.84827;0;fp_not_a_fp;-1;0.205349;
260954;2903.726739;302;170;20.2199;2.82843;0.0609345;46;303.327;170.917;0;100;1;1;0.559425;-0.854071;-1.85303;0.561097;-0.853522;-1.83012;1;-0.430226;0.281553;-0.498112;1;-0.0446147;1.20057;3.64147;0.00663006;fp_not_a_fp;-1;0.205314;
260955;2903.737866;304;170;20.0597;0;0.164359;57;303.165;168.884;0;101;1;1;0.554441;-0.860953;-1.86779;0.556629;-0.85364;-1.84119;1;-0.373106;0.116564;-0.740983;1;0.623519;-3.16715;-5.03272;0;fp_not_a_fp;-1;0.205374;
260956;2903.748993;304;168;20.0819;2.82843;0.0725123;47;305.232;169.013;0;102;1;1;0.553754;-0.852164;-1.87099;0.553886;-0.852803;-1.85035;1;-0.309784;0.134264;-0.783505;1;2.5973;-3.5846;-6.00203;0.0066756;fp_not_a_fp;-1;0.205353;
260957;2903.760121;306;168;20.2343;2;0.0687176;63;305.078;166.939;0;103;1;1;0.540214;-0.845807;-1.85685;0.551959;-0.853249;-1.86216;1;-0.399305;0.197324;-0.539132;1;3.92222;-4.62046;-8.3829;0.0046848;fp_not_a_fp;-1;0.205365;
260958;2903.771248;306;166;20.3165;2.82843;0.0782323;36;307.134;167.034;0;104;1;1;0.537956;-0.834639;-1.85454;0.546592;-0.848391;-1.86254;1;-0.411254;0.326235;-0.342922;1;0.426431;1.00371;3.48623;0.00659853;fp_not_a_fp;-1;0.205324;
260959;2903.782375;308;166;20.0046;0;0.141084;83;307.018;164.941;0;105;1;1;0.536865;-0.847712;-1.88341;0.542198;-0.84508;-1.86645;1;-0.376237;0.188033;-0.549028;1;-0.0701731;1.60557;4.31226;0;fp_not_a_fp;-1;0.205343;
260960;2903.793503;308;164;20.198;2.82843;0.103038;20;309.075;165.053;0;106;1;1;0.531652;-0.831805;-1.87062;0.536672;-0.839991;-1.86636;1;-0.373528;0.289269;-0.417497;1;-1.43202;3.4822;8.22256;0.00663727;fp_not_a_fp;-1;0.205349;
260961;2903.804630;310;164;20.0457;2;0.0555436;67;308.979;162.952;0;107;1;1;0.526234;-0.838186;-1.88479;0.533177;-0.838085;-1.87334;1;-0.386878;0.22106;-0.472316;1;0.279219;0.533007;1.50082;0.00472891;fp_not_a_fp;-1;0.205329;
260962;2903.815757;310;162;19.9664;2.82843;0.105477;18;311.055;163.055;0;108;1;1;0.528247;-0.833629;-1.89756;0.53075;-0.837833;-1.88409;1;-0.319964;0.216911;-0.581143;1;2.05107;-2.45652;-5.35265;0.00671422;fp_not_a_fp;-1;0.205352;
260963;2903.826885;312;162;19.8469;2;0.061422;62;310.951;160.968;0;109;1;1;0.521876;-0.838712;-1.90894;0.527003;-0.835583;-1.89048;1;-0.324524;0.129269;-0.682496;1;1.16189;-1.32034;-2.99882;0.00477627;fp_not_a_fp;-1;0.205345;
260964;2903.838012;312;160;19.6454;2.82843;0.0926344;28;313.033;161.066;0;110;1;1;0.527152;-0.839301;-1.9339;0.525878;-0.837457;-1.9063;1;-0.224534;0.0698109;-0.923404;1;3.34764;-4.93057;-11.3665;0.00682396;fp_not_a_fp;-1;0.205329;
260965;2903.849139;314;160;19.6751;2;0.0502554;57;312.928;158.986;0;111;1;1;0.516723;-0.8381;-1.93095;0.5235;-0.837436;-1.91784;1;-0.274122;0.0500931;-0.871324;1;2.53347;-3.84108;-8.96476;0.00481796;fp_not_a_fp;-1;0.205295;
260966;2903.860267;314;158;19.6833;2.82843;0.0809248;18;315.019;159.074;0;112;1;1;0.516431;-0.829754;-1.93551;0.520546;-0.836467;-1.92732;1;-0.262995;0.13123;-0.790948;1;1.28004;-1.92504;-4.71392;0.00681082;fp_not_a_fp;-1;0.205306;
260967;2903.871395;316;158;19.7542;2;0.0621433;37;314.931;156.98;0;113;1;1;0.504979;-0.826835;-1.92851;0.516322;-0.833498;-1.93222;1;-0.356128;0.181472;-0.57666;1;-0.709989;1.1727;2.37753;0.00479867;fp_not_a_fp;-1;0.205347;
260968;2903.882522;316;156;19.6983;2.82843;0.0809269;34;317.03;157.063;0;114;1;1;0.506338;-0.821194;-1.93936;0.511118;-0.828971;-1.93358;1;-0.333615;0.243758;-0.53885;1;-2.45078;3.90806;8.63983;0.00680565;fp_not_a_fp;-1;0.205338;
260969;2903.893650;318;156;19.5675;2;0.0622065;44;316.939;154.969;0;115;1;1;0.500033;-0.826746;-1.95228;0.506946;-0.826132;-1.93891;1;-0.354021;0.174774;-0.60257;1;-1.79509;2.8013;6.03822;0.00484446;fp_not_a_fp;-1;0.205354;
260970;2903.904777;318;154;19.5191;2.82843;0.0702218;48;319.027;155.066;0;116;1;1;0.501198;-0.820733;-1.96253;0.503137;-0.823877;-1.94567;1;-0.303955;0.1929;-0.669625;1;-0.920179;1.38574;2.72593;0.00686811;fp_not_a_fp;-1;0.205367;
260971;2903.915904;320;154;19.4252;2;0.0729539;37;318.934;152.974;0;117;1;1;0.493859;-0.824761;-1.97197;0.500357;-0.823358;-1.95653;1;-0.328618;0.129607;-0.720104;1;0.618148;-1.16512;-3.22273;0.00487995;fp_not_a_fp;-1;0.205389;
260972;2903.927032;320;152;19.4531;2.82843;0.0725962;30;321.022;153.07;0;118;1;1;0.493075;-0.815489;-1.97458;0.497041;-0.821932;-1.96534;1;-0.305881;0.193203;-0.679012;1;0.623133;-1.13583;-3.14907;0.00689142;fp_not_a_fp;-1;0.205359;
260973;2903.938159;322;152;19.3625;2;0.0729539;34;320.934;150.975;0;119;1;1;0.485591;-0.819369;-1.98378;0.493431;-0.820088;-1.97321;1;-0.343252;0.150356;-0.680861;1;0.241922;-0.548727;-1.75911;0.00489578;fp_not_a_fp;-1;0.205344;
260974;2903.949286;324;150;19.3805;2;0.0751603;43;323.023;151.069;0;120;1;1;0.475281;-0.81055;-1.98734;0.486952;-0.817542;-1.97942;1;-0.433104;0.214565;-0.635662;1;-2.90174;0.486655;0.762994;0.00489122;fp_not_a_fp;-1;0.205341;
260975;2903.960414;324;150;19.1618;2;0.0191262;39;325.217;148.973;0;121;1;1;0.480705;-0.819801;-2.01002;0.483663;-0.816302;-1.98893;1;-0.352823;0.107706;-0.795864;1;-0.544062;-0.491923;-1.70186;0.00494704;fp_not_a_fp;-1;0.205352;
260976;2903.971541;326;148;19.2769;2;0.0692024;33;325.098;149.074;0;122;1;1;0.467922;-0.806804;-2.00346;0.477375;-0.814131;-1.99615;1;-0.421175;0.19879;-0.685302;1;-2.59059;0.125807;-0.140944;0.00491751;fp_not_a_fp;-1;0.205316;
260977;2903.982668;326;148;19.3082;2;0.0146244;21;327.203;146.974;0;123;1;1;0.467163;-0.805495;-2.00021;0.472768;-0.810663;-2.00026;1;-0.404405;0.226086;-0.51493;1;-1.37418;1.70174;3.72852;0.00490952;fp_not_a_fp;-1;0.205325;
260978;2903.993795;328;146;19.214;2.82843;0.0790861;39;327.063;147.06;0;124;1;1;0.459509;-0.801317;-2.01547;0.468825;-0.808354;-2.00729;1;-0.433629;0.256416;-0.553824;1;-0.0119932;0.940561;1.83911;0.00697718;fp_not_a_fp;-1;0.205315;
260979;2904.004923;328;146;19.1716;2;0.0146244;26;329.116;144.97;0;125;1;1;0.460525;-0.803089;-2.01993;0.46378;-0.804176;-2.00977;1;-0.378751;0.215935;-0.550338;1;-0.582654;2.43175;5.51644;0.00494449;fp_not_a_fp;-1;0.205352;
260980;2904.016050;330;144;19.1779;2;0.0667866;18;328.997;145.062;0;126;1;1;0.450412;-0.794684;-2.02473;0.459403;-0.801146;-2.01509;1;-0.423695;0.26801;-0.533804;1;-0.0567054;1.55529;3.40383;0.00494288;fp_not_a_fp;-1;0.205272;
260981;2904.027177;330;144;19.0948;2;0.00994347;17;331.074;142.967;0;127;1;1;0.452371;-0.798141;-2.03354;0.455704;-0.799308;-2.02342;1;-0.365765;0.215718;-0.559848;1;0.86808;-0.232879;-1.00923;0.0049644;fp_not_a_fp;-1;0.205357;
260982;2904.038306;332;142;19.0717;2;0.062937;50;330.965;143.063;0;128;1;1;0.4429;-0.790919;-2.0415;0.451552;-0.796708;-2.02993;1;-0.403729;0.249369;-0.590429;1;0.671806;-0.158346;-0.82238;0.00497041;fp_not_a_fp;-1;0.205356;
260983;2904.049433;332;142;18.9249;2;0.00507262;16;333.049;140.97;0;129;1;1;0.446336;-0.797056;-2.05734;0.448005;-0.7952;-2.03928;1;-0.32853;0.161124;-0.709327;1;1.12847;-1.23159;-3.57207;0.00500896;fp_not_a_fp;-1;0.205332;
260984;2904.060560;332;140;18.9039;2.82843;0.088882;54;332.944;141.069;0;130;1;1;0.446753;-0.789614;-2.06522;0.44709;-0.793932;-2.0494;1;-0.250774;0.189405;-0.758253;1;3.88522;-1.76618;-5.04279;0.00709164;fp_not_a_fp;-1;0.205335;
260985;2904.071688;334;140;19.1822;0;0.148583;8;332.752;138.977;0;131;1;1;0.430387;-0.778221;-2.0352;0.441594;-0.788952;-2.04982;1;-0.374242;0.307523;-0.337767;1;-0.190166;2.06234;4.98897;0;fp_not_a_fp;-1;0.205364;
260986;2904.082815;334;138;19.0457;2.82843;0.096199;62;334.872;139.051;0;132;1;1;0.433394;-0.775536;-2.05534;0.439218;-0.785107;-2.05328;1;-0.343057;0.347888;-0.351786;1;1.36336;2.21328;5.36102;0.00703883;fp_not_a_fp;-1;0.205355;
260987;2904.093942;336;138;19.1621;0;0.142363;3;334.771;136.961;0;133;1;1;0.420868;-0.770889;-2.04281;0.432851;-0.778565;-2.04964;1;-0.43001;0.37347;-0.169057;1;-2.27984;4.77071;12.1379;0;fp_not_a_fp;-1;0.205358;
260988;2904.105070;336;138;18.8976;0;0.0744708;37;336.926;137.046;0;134;1;1;0.426758;-0.781679;-2.07141;0.427852;-0.776581;-2.05119;1;-0.343574;0.212726;-0.399721;1;-2.08495;0.524056;8.05508;0;fp_not_a_fp;-1;0.205353;
260989;2904.116197;336;138;18.8976;0;0.0744708;37;336.857;137.25;1;0;1;1;0.422812;-0.779283;-2.07535;0.425958;-0.776847;-2.06123;1;-0.309266;0.146628;-0.489271;1;1.45969;-3.61463;-3.40349;-1;fp_not_a_fp;-1;0.205351;
260990;2904.127324;336;136;18.5867;2;0.143434;34;337.669;136.569;0;1;1;1;0.433816;-0.786285;-2.11174;0.426064;-0.779534;-2.07533;1;-0.129501;0.0203472;-0.880988;1;4.79797;-7.35882;-11.8896;0.00510011;fp_not_a_fp;-1;0.20533;
260991;2904.138452;338;134;18.5559;2;0.0997575;10;336.56;135.301;0;2;1;1;0.424239;-0.779175;-2.1209;0.426907;-0.781605;-2.09485;1;-0.148459;0.0470548;-1.03547;1;6.32571;-7.33357;-19.4656;0.00510857;fp_not_a_fp;-1;0.205338;
260992;2904.149579;338;134;18.9657;2.82843;0.0718428;18;338.634;133.103;0;3;1;1;0.415071;-0.762337;-2.07506;0.423985;-0.77677;-2.09576;1;-0.242454;0.245113;-0.441829;1;2.27198;0.727618;-0.945655;0.0070685;fp_not_a_fp;-1;0.205347;
260993;2904.160706;338;134;18.7541;2;0.0240831;18;338.603;133.108;0;4;1;1;0.419755;-0.770939;-2.09848;0.423221;-0.774684;-2.10154;1;-0.196683;0.197089;-0.408557;1;2.52953;1.13368;1.81383;0.00505457;fp_not_a_fp;-1;0.205372;
260994;2904.171834;340;132;18.6753;2;0.0942557;7;338.487;133.254;0;5;1;1;0.411295;-0.765831;-2.11295;0.41759;-0.76957;-2.10185;1;-0.249651;0.210658;-0.50855;1;-2.69938;4.2758;8.36848;0.0050759;fp_not_a_fp;-1;0.205352;
260995;2904.182961;340;132;18.5157;2;0.0240831;42;340.676;131.144;0;6;1;1;0.414841;-0.772434;-2.13116;0.415241;-0.767885;-2.10441;1;-0.199049;0.113708;-0.693834;1;-1.13656;1.49757;7.67608;0.00511966;fp_not_a_fp;-1;0.205348;
260996;2904.194088;342;130;18.5015;2;0.0964967;9;340.632;131.244;0;7;1;1;0.404832;-0.764586;-2.13847;0.412681;-0.768447;-2.12026;1;-0.267487;0.1491;-0.765606;1;-0.562359;-2.15718;-7.2743;0.0051236;fp_not_a_fp;-1;0.205329;
260997;2904.205216;342;130;18.3935;2.82843;0.0578317;36;342.814;129.1;0;8;1;1;0.407208;-0.769074;-2.15102;0.409544;-0.767981;-2.1334;1;-0.234415;0.093268;-0.841487;1;-0.84775;-2.33249;-9.72653;0.0072884;fp_not_a_fp;-1;0.20536;
260998;2904.216343;342;130;18.4335;2;0.0155559;7;342.783;129.158;0;9;1;1;0.406324;-0.767403;-2.14635;0.408301;-0.768374;-2.14175;1;-0.200985;0.0774445;-0.711962;1;1.09333;-2.99286;-4.56997;0.00514248;fp_not_a_fp;-1;0.20535;
260999;2904.227470;342;128;18.3374;2.82843;0.0999258;39;342.644;129.316;0;10;1;1;0.408373;-0.762844;-2.16337;0.406684;-0.765976;-2.1498;1;-0.13804;0.11329;-0.762715;1;1.37065;-0.00926304;-1.54742;0.00731071;fp_not_a_fp;-1;0.205343;
261000;2904.238599;342;128;18.3374;2.82843;0.0999258;39;342.501;127.192;1;0;1;1;0.406924;-0.761586;-2.17194;0.407207;-0.765227;-2.15817;1;-0.111031;0.128074;-0.784636;1;3.51508;-0.472321;-0.427324;-1;fp_not_a_fp;-1;0.205326;
261001;2904.249725;344;126;18.4945;2.82843;0.0835554;43;342.917;126.352;0;1;1;1;0.394571;-0.747918;-2.15065;0.404048;-0.759938;-2.15807;1;-0.22731;0.274531;-0.449611;1;0.159512;4.07262;8.80483;0.00724858;fp_not_a_fp;-1;0.205337;
261002;2904.260853;346;124;18.5279;2;0.0823486;12;344.548;125.072;0;2;1;1;0.383548;-0.738142;-2.15244;0.398354;-0.752622;-2.1596;1;-0.372732;0.412097;-0.274265;1;-3.85885;7.51889;9.83425;0.00511631;fp_not_a_fp;-1;0.205322;
261003;2904.271981;346;124;18.2011;2.82843;0.0240831;40;346.821;122.868;0;3;1;1;0.390434;-0.751394;-2.19108;0.393869;-0.74976;-2.16652;1;-0.306362;0.264491;-0.609743;1;-3.78202;3.39743;3.43774;0.00736543;fp_not_a_fp;-1;0.205376;
261004;2904.283108;346;124;17.5814;2;0.0191262;11;346.813;122.98;0;4;1;1;0.404196;-0.777879;-2.26831;0.393187;-0.753833;-2.19062;1;-0.0821027;-0.133845;-1.55591;1;0.649738;-5.88427;-17.3278;0.00539172;fp_not_a_fp;-1;0.205348;
261005;2904.294235;346;122;18.2348;2.82843;0.0755292;45;346.677;123.193;0;5;1;1;0.389631;-0.741375;-2.19283;0.391952;-0.752198;-2.20116;1;-0.14591;0.137065;-0.883219;1;1.82872;-3.08814;-9.74124;0.00735184;fp_not_a_fp;-1;0.205352;
261006;2904.305363;348;122;18.0455;0;0.166714;5;346.546;121.082;0;6;1;1;0.383213;-0.749222;-2.21579;0.391868;-0.754967;-2.217;1;-0.227231;0.141593;-0.755745;1;3.26903;-6.07718;-10.817;0;fp_not_a_fp;-1;0.205346;
261007;2904.316490;348;120;18.0309;2.82843;0.0844478;42;348.656;121.201;0;7;1;1;0.383439;-0.741097;-2.22344;0.39012;-0.752393;-2.22509;1;-0.229262;0.218548;-0.694326;1;1.73233;-1.03211;-1.90023;0.00743499;fp_not_a_fp;-1;0.205359;
261008;2904.327617;348;120;17.6922;2;0.0172825;6;348.623;119.066;0;8;1;1;0.390781;-0.755286;-2.26601;0.386766;-0.746745;-2.22451;1;-0.116701;0.0598167;-1.06839;1;-0.777142;4.35104;10.9533;0.00535797;fp_not_a_fp;-1;0.205355;
261009;2904.338745;348;118;17.8005;2.82843;0.0775197;33;348.52;119.142;0;9;1;1;0.388318;-0.741847;-2.25815;0.386438;-0.746863;-2.24085;1;-0.0835203;0.14063;-0.996669;1;1.40189;0.079771;-2.54961;0.00753119;fp_not_a_fp;-1;0.205327;
261010;2904.349872;350;118;18.0634;0;0.166599;3;348.418;117.026;0;10;1;1;0.372171;-0.731117;-2.22524;0.383677;-0.742336;-2.24321;1;-0.244257;0.279082;-0.462596;1;-0.382576;3.08879;6.58607;0;fp_not_a_fp;-1;0.205376;
261011;2904.360999;350;116;17.8095;2.82843;0.0905902;47;350.58;117.085;0;11;1;1;0.377394;-0.732704;-2.2629;0.382166;-0.740238;-2.25307;1;-0.21966;0.282515;-0.614601;1;0.215688;1.43694;1.79099;0.00752741;fp_not_a_fp;-1;0.205331;
261012;2904.372127;350;116;17.8189;2;0.000885173;4;350.564;114.993;0;12;1;1;0.377194;-0.732317;-2.2617;0.378769;-0.734496;-2.252;1;-0.183762;0.252336;-0.585321;1;-1.50689;4.32536;10.8533;0.00531986;fp_not_a_fp;-1;0.205338;
261013;2904.383254;350;114;17.6112;2.82843;0.0863442;20;350.49;115.075;0;13;1;1;0.381557;-0.732014;-2.29437;0.377079;-0.732038;-2.26105;1;-0.0954745;0.211144;-0.873063;1;-0.268669;1.58435;2.77719;0.00761214;fp_not_a_fp;-1;0.205362;
261014;2904.394381;352;114;17.6822;0;0.153906;10;350.392;112.989;0;14;1;1;0.369304;-0.729145;-2.28511;0.376362;-0.731545;-2.27602;1;-0.187275;0.200078;-0.77447;1;1.28024;-1.77499;-7.0072;0;fp_not_a_fp;-1;0.205351;
261015;2904.405509;352;112;17.5493;2.82843;0.102294;31;352.554;113.073;0;15;1;1;0.372015;-0.725697;-2.30844;0.375018;-0.729793;-2.28741;1;-0.170248;0.209509;-0.902289;1;1.11013;-1.64024;-6.4636;0.00763899;fp_not_a_fp;-1;0.20536;
261016;2904.416636;352;112;17.4806;0;0.0723304;3;352.548;110.986;0;16;1;1;0.373477;-0.728549;-2.31751;0.374088;-0.728851;-2.30136;1;-0.124738;0.15399;-0.944016;1;1.32617;-2.20964;-8.05892;0;fp_not_a_fp;-1;0.205337;
261017;2904.427763;352;110;17.5263;2;0.0612361;9;352.475;111.077;0;17;1;1;0.372419;-0.717672;-2.31751;0.371804;-0.725266;-2.30714;1;-0.102139;0.236094;-0.84082;1;-0.149734;0.56056;0.724627;0.00540868;fp_not_a_fp;-1;0.205309;
261018;2904.438890;354;108;17.7075;2;0.0924666;11;352.387;108.979;0;18;1;1;0.357817;-0.701506;-2.2997;0.368932;-0.718356;-2.31079;1;-0.247168;0.425218;-0.486849;1;-1.34571;5.05838;6.46248;0.00535333;fp_not_a_fp;-1;0.205333;
261019;2904.450018;354;108;17.6795;2;0.017998;15;354.558;106.77;0;19;1;1;0.358383;-0.702617;-2.30335;0.365524;-0.712586;-2.30952;1;-0.269083;0.436408;-0.320205;1;-2.22057;5.09792;13.0778;0.00536181;fp_not_a_fp;-1;0.205375;
261020;2904.461145;354;108;17.5007;2;0.0240831;12;354.557;106.876;0;20;1;1;0.362045;-0.709797;-2.32688;0.362666;-0.707898;-2.31186;1;-0.201837;0.303064;-0.480308;1;-1.73221;3.34935;10.4181;0.00541659;fp_not_a_fp;-1;0.205296;
261021;2904.472273;356;106;17.3306;0;0.147889;7;354.481;107.073;0;21;1;1;0.354573;-0.707753;-2.35577;0.358205;-0.705418;-2.32143;1;-0.233954;0.232736;-0.816337;1;-2.96153;-0.0754412;0.549843;0;fp_not_a_fp;-1;0.205377;
261022;2904.483401;356;104;17.5688;2;0.0814562;18;356.667;105.027;0;22;1;1;0.349682;-0.689199;-2.32985;0.356171;-0.702341;-2.32896;1;-0.273454;0.386652;-0.553979;1;-0.590456;-0.866784;-1.50901;0.00539561;fp_not_a_fp;-1;0.205332;
261023;2904.494528;356;104;17.5175;2;0.030451;10;356.639;102.862;0;23;1;1;0.350705;-0.691216;-2.33667;0.354252;-0.699491;-2.33729;1;-0.243165;0.377815;-0.453074;1;0.582405;-1.31673;-2.98564;0.00541141;fp_not_a_fp;-1;0.205341;
261024;2904.505655;356;102;17.4218;2.82843;0.121023;22;356.541;102.946;0;24;1;1;0.352546;-0.685979;-2.35557;0.351877;-0.693536;-2.34447;1;-0.178529;0.386011;-0.570267;1;0.523761;1.86338;-2.02154;0.00769493;fp_not_a_fp;-1;0.205306;
261025;2904.516783;356;102;16.9326;2;0.0155559;12;356.43;100.834;0;25;1;1;0.36273;-0.705795;-2.42362;0.353916;-0.693047;-2.36143;1;-0.0123165;0.113033;-1.3259;1;4.9794;-2.68911;-11.4474;0.0055983;fp_not_a_fp;-1;0.205386;
261026;2904.527910;356;100;17.3062;2.82843;0.10448;22;356.289;100.998;0;26;1;1;0.354814;-0.681465;-2.37741;0.355199;-0.691113;-2.37332;1;-0.032795;0.264697;-0.939372;1;5.40671;-2.73949;-8.65733;0.00774631;fp_not_a_fp;-1;0.205362;
261027;2904.539037;358;100;17.1479;2;0.0794262;9;356.205;98.9107;0;27;1;1;0.347035;-0.687829;-2.39931;0.354281;-0.690267;-2.38898;1;-0.126257;0.220657;-0.910879;1;2.6263;-3.53042;-10.2843;0.00552804;fp_not_a_fp;-1;0.205361;
261028;2904.550165;358;100;17.3428;2;0.00216323;21;358.419;99.0283;0;28;1;1;0.343134;-0.680098;-2.37234;0.351928;-0.688796;-2.39317;1;-0.193485;0.262924;-0.47382;1;-0.336244;-2.76503;2.16755;0.00546592;fp_not_a_fp;-1;0.205351;
261029;2904.561292;358;98;17.2141;2;0.0535705;6;358.463;99.2171;0;29;1;1;0.345613;-0.676039;-2.39622;0.347649;-0.681357;-2.38632;1;-0.168175;0.293384;-0.506451;1;-3.50166;4.0519;18.41;0.00550679;fp_not_a_fp;-1;0.205363;
261030;2904.572419;358;96;17.3161;2.82843;0.0921432;32;358.418;97.1189;0;30;1;1;0.34349;-0.662966;-2.3882;0.344818;-0.676733;-2.38902;1;-0.160598;0.418415;-0.363437;1;-2.87131;3.4536;12.939;0.00774189;fp_not_a_fp;-1;0.205309;
261031;2904.583548;360;96;17.4135;2;0.0790151;8;358.349;94.9287;0;31;1;1;0.330682;-0.659329;-2.3748;0.34073;-0.669608;-2.38289;1;-0.283788;0.458396;-0.104345;1;-3.53895;5.34126;18.1195;0.00544371;fp_not_a_fp;-1;0.205338;
261032;2904.594675;358;94;17.2212;2.82843;0.135832;33;360.534;94.981;0;32;1;1;0.345297;-0.65748;-2.40751;0.341271;-0.663953;-2.39168;1;-0.130969;0.437643;-0.358872;1;1.40479;3.92548;2.58214;0.00778458;fp_not_a_fp;-1;0.205311;
261033;2904.605802;360;94;17.1763;2;0.0963892;9;358.248;92.8609;0;33;1;1;0.335161;-0.65927;-2.41374;0.338658;-0.659761;-2.39606;1;-0.167296;0.352731;-0.489812;1;0.0199828;1.33332;0.373346;0.00551889;fp_not_a_fp;-1;0.205326;
261034;2904.616930;360;94;17.2528;0;0.0999116;41;360.386;92.9869;0;34;1;1;0.333675;-0.656346;-2.40304;0.336204;-0.658106;-2.39977;1;-0.178004;0.306157;-0.358767;1;-0.390839;-2.52216;0.104099;0;fp_not_a_fp;-1;0.205333;
261035;2904.628057;360;94;17.2528;0;0.0999116;41;360.396;93.1947;1;0;1;1;0.331673;-0.6531;-2.40702;0.336452;-0.656549;-2.40783;1;-0.182674;0.285068;-0.304474;1;2.27176;-3.89417;-4.49671;-1;fp_not_a_fp;-1;0.205323;
261036;2904.639184;360;92;17.4513;2;0.117075;47;360.77;92.4657;0;1;1;1;0.329793;-0.63986;-2.38176;0.332576;-0.652144;-2.40139;1;-0.182851;0.39177;0.0463968;1;-1.16565;-1.03061;9.10503;0.00543191;fp_not_a_fp;-1;0.205375;
261037;2904.650313;360;92;17.4513;2;0.117075;47;360.296;91.2452;1;0;1;1;0.32769;-0.63557;-2.38068;0.330708;-0.646219;-2.39313;1;-0.183712;0.435059;0.197831;1;-0.368823;1.84971;15.449;-1;fp_not_a_fp;-1;0.205325;
261038;2904.661440;360;88;17.1039;2.82843;0.137577;40;360.532;90.4682;0;1;1;1;0.336319;-0.634454;-2.4425;0.331369;-0.640746;-2.40299;1;-0.0617195;0.410259;-0.473495;1;2.61267;2.33881;-2.57825;0.00783797;fp_not_a_fp;-1;0.205347;
261039;2904.672567;362;88;16.8354;2;0.0762199;4;360.133;86.869;0;2;1;1;0.330421;-0.644645;-2.4814;0.331056;-0.638632;-2.42159;1;-0.0710382;0.230857;-1.13646;1;2.50822;-1.21817;-18.6936;0.00563065;fp_not_a_fp;-1;0.20535;
261040;2904.683695;362;88;17.5642;0;0.0859864;34;362.346;86.8962;0;3;1;1;0.31671;-0.617895;-2.37844;0.327785;-0.633141;-2.42076;1;-0.222983;0.433877;-0.0852836;1;-0.901317;0.945464;-2.96148;0;fp_not_a_fp;-1;0.205361;
261041;2904.694822;362;86;16.5948;2;0.0530783;8;362.417;87.013;0;4;1;1;0.335122;-0.644507;-2.52375;0.329643;-0.635375;-2.45652;1;-0.0462812;0.157387;-1.30571;1;3.08807;-6.23906;-33.7834;0.00571228;fp_not_a_fp;-1;0.20533;
261042;2904.705949;362;86;17.0583;2;0.00983961;37;362.358;84.9943;0;5;1;1;0.326015;-0.626991;-2.45516;0.327067;-0.633509;-2.45969;1;-0.0717519;0.223831;-0.857317;1;-0.225129;-4.18901;-8.62562;0.00555705;fp_not_a_fp;-1;0.205313;
261043;2904.717077;362;84;17.0781;2.82843;0.103451;4;362.313;85.1126;0;6;1;1;0.32555;-0.61705;-2.45851;0.325849;-0.62661;-2.45397;1;-0.0784504;0.336693;-0.601035;1;-0.166244;2.37728;12.0274;0.00784979;fp_not_a_fp;-1;0.205338;
261044;2904.728204;362;84;17.2255;2;0.00983961;28;362.219;83.0008;0;7;1;1;0.322765;-0.61177;-2.43748;0.327363;-0.625079;-2.46873;1;-0.103141;0.400908;-0.177334;1;2.69254;-0.740919;-2.0684;0.00550314;fp_not_a_fp;-1;0.205381;
261045;2904.739332;364;82;16.9151;2;0.0998937;5;362.153;83.0741;0;8;1;1;0.317391;-0.613764;-2.4884;0.32293;-0.617393;-2.45989;1;-0.161786;0.353456;-0.563362;1;-2.5951;4.40497;16.6785;0.00560411;fp_not_a_fp;-1;0.20533;
261046;2904.750460;364;82;17.17;0;0.069213;37;364.388;80.9856;0;9;1;1;0.312679;-0.604651;-2.45146;0.319596;-0.611808;-2.45896;1;-0.219397;0.393207;-0.227584;1;-3.31708;3.80515;14.1473;0;fp_not_a_fp;-1;0.205334;
261047;2904.761587;364;82;17.17;0;0.069213;37;364.443;81.0579;1;0;1;1;0.310036;-0.600048;-2.45311;0.315718;-0.607558;-2.45761;1;-0.245515;0.412257;-0.0787659;1;-3.75342;1.69766;11.7335;-1;fp_not_a_fp;-1;0.205324;
261048;2904.772714;364;80;16.7918;2;0.118181;47;364.914;80.1679;0;1;1;1;0.319633;-0.608896;-2.51297;0.314935;-0.60684;-2.47648;1;-0.114992;0.266113;-0.693308;1;-0.266171;-3.02855;-11.5931;0.00564526;fp_not_a_fp;-1;0.205352;
261049;2904.783842;364;80;16.7918;2;0.118181;47;364.349;79.1166;1;0;1;1;0.318339;-0.606126;-2.52138;0.315172;-0.60493;-2.48473;1;-0.0612161;0.203522;-0.955347;1;2.25953;-3.36857;-8.80687;-1;fp_not_a_fp;-1;0.205353;
261050;2904.794969;364;78;16.5022;2;0.108541;44;364.624;78.2492;0;1;1;1;0.325152;-0.610044;-2.56347;0.31829;-0.606278;-2.51273;1;0.0469131;0.10679;-1.42421;1;5.98317;-6.43491;-26.8845;0.00574434;fp_not_a_fp;-1;0.205323;
261051;2904.806096;364;78;16.5022;2;0.108541;44;364.16;77.1088;1;0;1;1;0.326042;-0.609254;-2.58096;0.322291;-0.60858;-2.54469;1;0.0958245;0.0622422;-1.63675;1;7.66892;-7.86381;-35.0034;-1;fp_not_a_fp;-1;0.205386;
261052;2904.817225;366;76;16.8606;2;0.120777;41;364.267;76.2125;0;1;1;1;0.306906;-0.587813;-2.51519;0.31911;-0.603309;-2.54525;1;-0.11552;0.281659;-0.762013;1;-0.0115473;0.348955;-1.5449;0.0056222;fp_not_a_fp;-1;0.205369;
261053;2904.828352;366;74;17.1006;2.82843;0.106891;7;366.341;75.0454;0;2;1;1;0.302511;-0.570358;-2.48607;0.315153;-0.594367;-2.53642;1;-0.238506;0.536496;0.0305125;1;-3.98281;7.48061;22.1479;0.00783945;fp_not_a_fp;-1;0.20535;
261054;2904.839479;366;74;16.6993;2;0.00216323;37;366.4;72.8588;0;3;1;1;0.309782;-0.584066;-2.54582;0.311311;-0.587872;-2.53201;1;-0.175564;0.416239;-0.330805;1;-4.99801;6.952;24.5641;0.00567654;fp_not_a_fp;-1;0.205387;
261055;2904.850607;366;72;16.6288;2.82843;0.086164;7;366.367;72.9763;0;4;1;1;0.311005;-0.577076;-2.56297;0.307551;-0.579828;-2.52751;1;-0.113138;0.393569;-0.634456;1;-4.69452;7.4436;22.5176;0.0080619;fp_not_a_fp;-1;0.205359;
261056;2904.861734;366;72;16.4314;2.82843;0.0399788;31;366.307;70.8776;0;5;1;1;0.314742;-0.584009;-2.59376;0.30951;-0.578877;-2.54715;1;-0.030074;0.25452;-1.03201;1;1.9197;-0.609815;-6.06592;0.00815874;fp_not_a_fp;-1;0.205352;
261057;2904.872861;368;72;16.4863;0;0.167445;5;366.211;71.012;0;6;1;1;0.302194;-0.582138;-2.58506;0.309431;-0.581822;-2.5719;1;-0.135752;0.186041;-0.965;1;2.30856;-7.87389;-22.3664;0;fp_not_a_fp;-1;0.205361;
261058;2904.883988;368;70;16.5547;2.82843;0.109201;33;368.425;71.2159;0;7;1;1;0.300854;-0.570224;-2.58076;0.307199;-0.578362;-2.58064;1;-0.177464;0.270587;-0.764896;1;-0.0427922;-3.27244;-9.75249;0.00809793;fp_not_a_fp;-1;0.205346;
261059;2904.895117;368;70;16.514;2;0.00436422;6;368.465;69.1164;0;8;1;1;0.301597;-0.571632;-2.58713;0.304847;-0.577001;-2.58668;1;-0.163552;0.254873;-0.65768;1;-1.13267;-3.11616;-0.522162;0.00574024;fp_not_a_fp;-1;0.205355;
261060;2904.906244;368;68;16.4919;2.82843;0.0888814;30;368.42;69.2195;0;9;1;1;0.30191;-0.562852;-2.597;0.301639;-0.571711;-2.58749;1;-0.133355;0.316513;-0.642599;1;-2.32049;1.39286;8.74887;0.00812879;fp_not_a_fp;-1;0.205332;
261061;2904.917371;370;68;16.5046;0;0.171473;5;368.349;67.0778;0;10;1;1;0.29019;-0.562493;-2.59495;0.298638;-0.5668;-2.58996;1;-0.23821;0.305731;-0.530854;1;-2.30204;2.68914;9.75398;0;fp_not_a_fp;-1;0.205337;
261062;2904.928499;370;66;16.4964;2.82843;0.0972223;25;370.528;67.1342;0;11;1;1;0.290246;-0.553234;-2.60266;0.295986;-0.562552;-2.59543;1;-0.250527;0.368409;-0.505321;1;-1.64157;2.1977;5.83176;0.0081266;fp_not_a_fp;-1;0.205376;
261063;2904.939626;370;66;16.4523;0;0.0885564;4;370.535;65.016;0;12;1;1;0.291022;-0.554714;-2.60962;0.293342;-0.558323;-2.60106;1;-0.21476;0.330353;-0.510136;1;-1.15053;1.69569;3.31492;0;fp_not_a_fp;-1;0.205351;
261064;2904.950753;370;64;16.529;2.82843;0.107123;21;370.469;65.0941;0;13;1;1;0.289582;-0.542618;-2.60391;0.29026;-0.553264;-2.60278;1;-0.189097;0.411146;-0.381578;1;-1.25239;2.12601;5.86446;0.00811054;fp_not_a_fp;-1;0.205325;
261065;2904.961881;372;64;16.7111;0;0.15519;2;370.384;62.9825;0;14;1;1;0.275082;-0.53678;-2.57549;0.286483;-0.546836;-2.59792;1;-0.320572;0.459007;0.0459853;1;-1.85024;3.4435;12.9594;0;fp_not_a_fp;-1;0.205354;
261066;2904.973008;372;62;16.7356;2.82843;0.118127;20;372.561;63.0554;0;15;1;1;0.27459;-0.526589;-2.57803;0.282569;-0.540175;-2.59176;1;-0.339657;0.53706;0.187659;1;-2.00231;3.78906;15.5688;0.00801043;fp_not_a_fp;-1;0.205349;
261067;2904.984136;372;62;16.5745;2;0.0266854;14;372.562;60.9498;0;16;1;1;0.277259;-0.531708;-2.60309;0.279128;-0.534423;-2.59013;1;-0.273622;0.442136;-0.0650032;1;-1.32229;2.51141;10.0004;0.00571929;fp_not_a_fp;-1;0.205315;
261068;2904.995264;374;60;16.5137;2;0.089045;14;372.485;61.0526;0;17;1;1;0.266708;-0.524207;-2.61902;0.27341;-0.529821;-2.59391;1;-0.332365;0.432485;-0.343654;1;-3.21856;0.479366;0.851975;0.00574031;fp_not_a_fp;-1;0.205356;
261069;2905.006391;372;60;16.3601;2.82843;0.143482;13;374.678;58.9611;0;18;1;1;0.280801;-0.529054;-2.64366;0.27484;-0.527889;-2.61095;1;-0.152703;0.317775;-0.697473;1;3.77178;-3.17314;-16.7032;0.00819428;fp_not_a_fp;-1;0.205347;
261070;2905.017518;374;58;16.4388;2.82843;0.134617;6;372.35;59.0661;0;19;1;1;0.267832;-0.517019;-2.63737;0.27315;-0.525497;-2.62578;1;-0.207642;0.367795;-0.68263;1;2.96619;-3.80296;-19.5527;0.00815503;fp_not_a_fp;-1;0.20534;
261071;2905.028646;374;58;16.385;2;0.0121773;8;374.456;56.9694;0;20;1;1;0.268712;-0.518718;-2.64603;0.271013;-0.522249;-2.63652;1;-0.193776;0.322082;-0.68875;1;1.79409;-2.69723;-14.0136;0.00578541;fp_not_a_fp;-1;0.205315;
261072;2905.039773;376;56;16.3949;2;0.0795069;9;374.441;57.0635;0;21;1;1;0.256895;-0.50888;-2.65083;0.26856;-0.518417;-2.64447;1;-0.298784;0.374882;-0.658422;1;0.754504;-1.29412;-7.07216;0.00578192;fp_not_a_fp;-1;0.205311;
261073;2905.050900;374;56;16.4301;2.82843;0.13045;15;376.631;54.9682;0;22;1;1;0.267884;-0.507715;-2.64521;0.265331;-0.513083;-2.64486;1;-0.178103;0.362233;-0.497467;1;-0.57074;0.998961;4.49362;0.00815938;fp_not_a_fp;-1;0.205349;
261074;2905.062028;376;56;16.6118;0;0.170801;4;374.38;55.0558;0;23;1;1;0.253541;-0.502236;-2.61622;0.261758;-0.509387;-2.63958;1;-0.269915;0.373608;-0.0352435;1;-1.39901;0.130681;14.5444;0;fp_not_a_fp;-1;0.205314;
261075;2905.073156;376;54;16.4175;2.82843;0.102443;20;376.486;55.2359;0;24;1;1;0.25645;-0.498591;-2.65362;0.258693;-0.504355;-2.64147;1;-0.240086;0.37244;-0.268346;1;-1.04034;1.13138;9.44473;0.00816562;fp_not_a_fp;-1;0.205363;
261076;2905.084283;376;54;16.3268;2;0.0127078;13;376.46;53.1333;0;25;1;1;0.257875;-0.501361;-2.66836;0.258938;-0.502475;-2.64585;1;-0.1808;0.292694;-0.499476;1;2.65093;-1.84657;3.57045;0.00580605;fp_not_a_fp;-1;0.205309;
261077;2905.095411;376;52;16.3793;2.82843;0.0887423;17;376.359;53.2355;0;26;1;1;0.256958;-0.490145;-2.66626;0.256206;-0.498083;-2.65112;1;-0.143754;0.350964;-0.507242;1;0.7718;-0.253321;-0.220258;0.00818467;fp_not_a_fp;-1;0.205344;
261078;2905.106538;378;52;16.1852;0;0.172849;5;376.305;51.0866;0;27;1;1;0.248326;-0.496099;-2.69818;0.254902;-0.496549;-2.67161;1;-0.20906;0.262023;-0.811682;1;1.36713;-2.50723;-17.4448;0;fp_not_a_fp;-1;0.205391;
261079;2905.117665;378;50;16.272;2.82843;0.0973378;23;378.49;51.154;0;28;1;1;0.246909;-0.483779;-2.69028;0.252517;-0.492846;-2.68077;1;-0.225625;0.333075;-0.743359;1;0.324746;-0.88462;-10.6726;0.00823863;fp_not_a_fp;-1;0.205347;
261080;2905.128793;380;50;16.3216;2;0.073338;6;378.509;49.0296;0;29;1;1;0.234543;-0.482385;-2.68206;0.246684;-0.488102;-2.6842;1;-0.345425;0.335929;-0.526054;1;-3.69861;0.971171;-0.597849;0.00580789;fp_not_a_fp;-1;0.205372;
261081;2905.139920;378;50;16.0791;2;0.0876976;24;380.737;49.0977;0;30;1;1;0.249871;-0.489583;-2.72256;0.244912;-0.487961;-2.69827;1;-0.175172;0.21175;-0.833417;1;-0.705731;-3.12786;-7.329;0.00589548;fp_not_a_fp;-1;0.205396;
261082;2905.151047;378;50;16.0791;2;0.0876976;24;378.445;49.2863;1;0;1;1;0.247881;-0.487423;-2.73227;0.244801;-0.485792;-2.70679;1;-0.105281;0.158178;-0.965474;1;2.3319;-2.33315;-3.4558;-1;fp_not_a_fp;-1;0.205341;
261083;2905.162176;380;48;16.4774;2;0.106953;27;378.748;48.6373;0;1;1;1;0.232235;-0.46827;-2.66311;0.241133;-0.481915;-2.7;1;-0.242308;0.335393;-0.104151;1;-0.374296;0.051698;14.3592;0.00575297;fp_not_a_fp;-1;0.205367;
261084;2905.173303;382;46;16.3286;2;0.0887871;4;380.436;47.2887;1;0;1;1;0.229519;-0.464541;-2.66338;0.239877;-0.477454;-2.69533;1;-0.299157;0.408605;0.261984;1;1.03983;1.63246;17.7035;-1;fp_not_a_fp;-1;0.205319;
261085;2905.184430;382;46;16.4487;2.82843;0.0569862;21;380.903;46.5437;2;0;1;1;0.226259;-0.4599;-2.65937;0.233974;-0.470033;-2.67953;1;-0.32186;0.439939;0.425774;1;-3.29539;5.12644;28.289;-1;fp_not_a_fp;-1;0.205355;
261086;2905.195558;382;46;15.8643;2;0.075112;3;381.425;45.7685;3;0;1;1;0.22248;-0.454695;-2.6529;0.227624;-0.461851;-2.65969;1;-0.333511;0.456427;0.513392;1;-5.12746;6.7005;33.2245;-1;fp_not_a_fp;-1;0.205327;
261087;2905.206685;382;44;16.4449;2.82843;0.0448993;25;381.975;44.9757;0;1;1;1;0.220983;-0.450128;-2.68117;0.224811;-0.457315;-2.6642;1;-0.312942;0.457387;0.160049;1;-1.58691;2.74086;5.93538;0.00815201;fp_not_a_fp;-1;0.205357;
261088;2905.217812;384;44;16.4268;2;0.0747111;5;382.541;43.0755;0;2;1;1;0.209686;-0.450699;-2.68407;0.219852;-0.453855;-2.66938;1;-0.394026;0.392889;-0.0396939;1;-2.13143;-0.35312;-6.77843;0.00577069;fp_not_a_fp;-1;0.205283;
261089;2905.228940;384;42;16.0103;2.82843;0.0924065;29;384.75;43.1517;0;3;1;1;0.215047;-0.452592;-2.76049;0.217049;-0.452028;-2.69466;1;-0.315826;0.294425;-0.993125;1;0.135451;-3.26916;-31.8776;0.00837329;fp_not_a_fp;-1;0.20539;
261090;2905.240068;386;42;16.1534;0;0.155678;9;384.711;41.0446;0;4;1;1;0.201406;-0.44866;-2.73599;0.211781;-0.450519;-2.71543;1;-0.399595;0.261258;-0.979564;1;-1.48486;-4.38475;-33.5413;0;fp_not_a_fp;-1;0.205349;
261091;2905.251195;386;40;16.0218;2.82843;0.110074;22;386.888;41.1168;0;5;1;1;0.202967;-0.442521;-2.76506;0.207277;-0.448618;-2.7364;1;-0.365349;0.2846;-1.18225;1;-1.1776;-3.88189;-30.1562;0.00836729;fp_not_a_fp;-1;0.205361;
261092;2905.262323;388;40;16.2254;0;0.141518;3;386.833;39.0191;0;6;1;1;0.188737;-0.437046;-2.73032;0.202039;-0.445204;-2.74797;1;-0.467705;0.320695;-0.717056;1;-1.6553;-1.62188;-15.2177;0;fp_not_a_fp;-1;0.205289;
261093;2905.273450;388;38;16.137;2.82843;0.11124;25;388.968;39.0843;0;7;1;1;0.189678;-0.429685;-2.75182;0.195697;-0.439477;-2.7458;1;-0.439562;0.379084;-0.679802;1;-2.77981;1.90201;7.03856;0.00830758;fp_not_a_fp;-1;0.205338;
261094;2905.284577;388;38;16.2504;2;0.00436422;6;388.896;36.9846;0;8;1;1;0.188354;-0.426687;-2.73262;0.192434;-0.433984;-2.74496;1;-0.387037;0.389232;-0.357589;1;0.28241;2.87519;13.9735;0.00583335;fp_not_a_fp;-1;0.205335;
261095;2905.295705;390;38;16.0004;0;0.145289;32;388.728;37.0621;0;9;1;1;0.179448;-0.433429;-2.77525;0.186554;-0.431711;-2.7475;1;-0.418049;0.266497;-0.667462;1;-1.18372;-0.406536;11.566;0;fp_not_a_fp;-1;0.205344;
261096;2905.306832;390;36;15.9832;2;0.0847706;4;390.836;37.2617;0;10;1;1;0.179548;-0.42405;-2.78486;0.184257;-0.428462;-2.76114;1;-0.376391;0.289302;-0.820555;1;2.05169;-0.705095;-2.32444;0.00593087;fp_not_a_fp;-1;0.205311;
261097;2905.317960;390;36;15.8154;2;0.017998;24;390.746;35.152;0;11;1;1;0.181453;-0.428548;-2.81441;0.182201;-0.428178;-2.77679;1;-0.289334;0.210262;-1.1178;1;3.37536;-3.79276;-9.83969;0.00599378;fp_not_a_fp;-1;0.205327;
261098;2905.329087;390;36;15.8154;2;0.017998;24;390.607;35.2531;1;0;1;1;0.178446;-0.426446;-2.82743;0.179724;-0.428118;-2.80049;1;-0.250916;0.174873;-1.2474;1;3.05837;-4.81587;-19.9911;-1;fp_not_a_fp;-1;0.205334;
261099;2905.340215;392;34;16.1332;2;0.0903236;15;391.164;34.5389;0;1;1;1;0.166035;-0.410427;-2.76547;0.176371;-0.422367;-2.79804;1;-0.345293;0.321555;-0.431582;1;1.63483;1.23669;5.29797;0.00587572;fp_not_a_fp;-1;0.205381;
261100;2905.351342;392;34;16.1332;2;0.0903236;15;392.648;33.1915;1;0;1;1;0.162299;-0.406778;-2.76993;0.172058;-0.418049;-2.79431;1;-0.383075;0.38299;-0.0906047;1;-0.149964;2.10462;16.3985;-1;fp_not_a_fp;-1;0.205334;
261101;2905.362469;392;32;15.8698;2;0.106358;27;393.341;32.3677;0;1;1;1;0.168696;-0.407321;-2.81803;0.168869;-0.412742;-2.79521;1;-0.276494;0.353301;-0.489426;1;0.288662;3.21341;14.1162;0.00597325;fp_not_a_fp;-1;0.205352;
261102;2905.373597;394;30;15.9548;2;0.107695;3;392.521;31.1171;0;2;1;1;0.155822;-0.395363;-2.80959;0.163213;-0.404972;-2.79075;1;-0.344755;0.433029;-0.495076;1;-2.10804;5.79969;16.9011;0.00594143;fp_not_a_fp;-1;0.205323;
261103;2905.384724;394;30;15.8252;2.82843;0.0578317;26;394.666;28.9214;0;3;1;1;0.157097;-0.3986;-2.83259;0.160979;-0.402015;-2.80753;1;-0.314367;0.373639;-0.69794;1;0.69495;1.17005;-5.98445;0.00847124;fp_not_a_fp;-1;0.20536;
261104;2905.395851;394;30;15.8439;2;0.0155559;5;394.612;29.0109;0;4;1;1;0.156912;-0.398129;-2.82924;0.159632;-0.399853;-2.82236;1;-0.263841;0.306843;-0.654338;1;2.67898;-1.71096;-12.6657;0.00598299;fp_not_a_fp;-1;0.205329;
261105;2905.406980;394;28;15.7218;2.82843;0.098516;18;394.504;29.1815;0;5;1;1;0.158036;-0.39121;-2.85794;0.156967;-0.395825;-2.83234;1;-0.196423;0.319402;-0.881851;1;1.79897;-0.761779;-8.81642;0.00852697;fp_not_a_fp;-1;0.205338;
261106;2905.418107;396;28;15.835;0;0.156094;4;394.403;27.0995;0;6;1;1;0.144933;-0.388491;-2.83746;0.154245;-0.394107;-2.83931;1;-0.293701;0.315016;-0.628573;1;1.14688;-2.65149;-2.99885;0;fp_not_a_fp;-1;0.20531;
261107;2905.429234;396;26;15.7668;2.82843;0.116386;16;396.565;27.2011;0;7;1;1;0.145466;-0.380189;-2.85644;0.151337;-0.389504;-2.84527;1;-0.290337;0.368186;-0.661324;1;0.539704;-0.122534;0.823223;0.00850265;fp_not_a_fp;-1;0.205344;
261108;2905.440362;396;26;15.6604;0;0.0859864;2;396.558;25.0674;0;8;1;1;0.146453;-0.38277;-2.87583;0.148722;-0.385665;-2.85692;1;-0.240596;0.313618;-0.812747;1;0.521971;0.152292;-3.55818;0;fp_not_a_fp;-1;0.20533;
261109;2905.451489;396;24;15.6165;2.82843;0.106776;23;396.482;25.135;0;9;1;1;0.14677;-0.373769;-2.8907;0.145906;-0.381304;-2.8651;1;-0.18572;0.354244;-0.942082;1;0.240329;0.782911;-1.35282;0.00858448;fp_not_a_fp;-1;0.205368;
261110;2905.462616;396;24;15.6165;2.82843;0.106776;23;396.389;23.0229;1;0;1;1;0.144721;-0.369785;-2.90125;0.145853;-0.376628;-2.88105;1;-0.162838;0.371524;-0.996318;1;2.94008;1.2697;-8.26205;-1;fp_not_a_fp;-1;0.20533;
261111;2905.473744;398;22;15.5893;2.82843;0.0624768;14;396.714;21.9871;0;1;1;1;0.134769;-0.364402;-2.90245;0.143179;-0.372681;-2.89255;1;-0.24669;0.392972;-0.905462;1;0.980732;0.556953;-5.48509;0.00859943;fp_not_a_fp;-1;0.205374;
261112;2905.484871;398;22;15.583;0;0.0841192;5;398.484;20.9562;0;2;1;1;0.134824;-0.36455;-2.90363;0.140271;-0.368126;-2.89951;1;-0.249248;0.350012;-0.765967;1;-0.194202;0.817657;1.05081;0;fp_not_a_fp;-1;0.20536;
261113;2905.495999;398;22;15.5129;2;0.0121773;9;398.49;21.0848;0;3;1;1;0.135433;-0.366198;-2.91675;0.137437;-0.366233;-2.90602;1;-0.21153;0.268729;-0.761025;1;-0.579704;-1.92133;4.06764;0.00611066;fp_not_a_fp;-1;0.205333;
261114;2905.507127;400;20;15.4175;0;0.162031;2;398.428;21.2895;0;4;1;1;0.123877;-0.358333;-2.94159;0.132226;-0.36337;-2.91611;1;-0.301418;0.291004;-0.946612;1;-3.11325;-1.80914;1.11687;0;fp_not_a_fp;-1;0.205323;
261115;2905.518254;400;20;15.7042;0;0.0524785;5;400.621;19.2014;0;5;1;1;0.121615;-0.351791;-2.88789;0.128937;-0.360218;-2.91247;1;-0.326045;0.338083;-0.286941;1;-1.78278;-1.23325;13.8968;0;fp_not_a_fp;-1;0.20535;
261116;2905.529381;400;18;15.71;2;0.112127;6;400.612;19.2639;0;6;1;1;0.121476;-0.341644;-2.89356;0.1256;-0.354491;-2.90995;1;-0.296233;0.430738;-0.0427836;1;-1.05549;1.81366;16.2483;0.00603401;fp_not_a_fp;-1;0.205327;
261117;2905.540509;400;18;15.6364;2;0.0578318;5;400.525;17.1004;0;7;1;1;0.122048;-0.343252;-2.90718;0.122254;-0.348754;-2.90755;1;-0.239574;0.395658;-0.0925193;1;-0.630063;2.85179;15.02;0.00606241;fp_not_a_fp;-1;0.205344;
261118;2905.551636;400;16;15.5446;2.82843;0.134758;10;400.42;17.152;0;8;1;1;0.122672;-0.335151;-2.93114;0.121953;-0.342959;-2.90494;1;-0.178446;0.423548;-0.375891;1;2.76278;2.978;12.8226;0.00862416;fp_not_a_fp;-1;0.205304;
261119;2905.562763;402;16;15.5401;0;0.130465;6;400.29;15.0298;0;9;1;1;0.110508;-0.335329;-2.93193;0.119176;-0.338843;-2.91595;1;-0.269859;0.379018;-0.454174;1;1.26228;0.919776;-3.75732;0;fp_not_a_fp;-1;0.205354;
261120;2905.573892;402;16;16.1197;0;0.0457956;2;402.485;15.1036;0;10;1;1;0.106534;-0.323272;-2.82651;0.115441;-0.33425;-2.89919;1;-0.318759;0.45047;0.779734;1;-0.506087;0.443281;18.4774;0;fp_not_a_fp;-1;0.205326;
261121;2905.585019;402;14;15.4797;2;0.125655;4;402.526;15.2487;0;11;1;1;0.110842;-0.326469;-2.9502;0.112639;-0.330055;-2.90995;1;-0.248925;0.385893;-0.227638;1;-0.209969;-0.219515;-3.03827;0.00612377;fp_not_a_fp;-1;0.20533;
261122;2905.596146;402;14;15.3888;2;0.074376;15;402.446;13.1589;0;12;1;1;0.111498;-0.328398;-2.96764;0.109846;-0.328366;-2.91907;1;-0.180806;0.287867;-0.81478;1;-0.0529218;-3.04854;-9.86306;0.00615996;fp_not_a_fp;-1;0.205379;
261123;2905.607274;404;12;15.457;2;0.145644;4;402.363;13.2564;0;13;1;1;0.0986436;-0.316846;-2.96132;0.10688;-0.323745;-2.92642;1;-0.276927;0.343055;-0.881113;1;-0.158588;-0.808216;-9.59449;0.00613277;fp_not_a_fp;-1;0.205338;
261124;2905.618401;404;12;15.5344;0;0.0309748;11;404.535;11.1051;0;14;1;1;0.0981518;-0.315266;-2.94656;0.104784;-0.321744;-2.95643;1;-0.286967;0.340217;-0.626888;1;0.71442;-2.4772;-31.603;0;fp_not_a_fp;-1;0.205349;
261125;2905.629529;404;12;15.5344;0;0.0309748;11;404.541;11.1538;1;0;1;1;0.0950073;-0.311638;-2.95547;0.100825;-0.318036;-2.95775;1;-0.290557;0.337228;-0.544071;1;-0.935223;-1.09346;-7.10933;-1;fp_not_a_fp;-1;0.20535;
261126;2905.640656;404;10;15.5275;2;0.0990597;10;405.091;10.3478;0;1;1;1;0.0980995;-0.30527;-2.95468;0.0974758;-0.312254;-2.95451;1;-0.219538;0.36598;-0.43137;1;-0.870172;1.75487;8.61415;0.00610493;fp_not_a_fp;-1;0.20534;
261127;2905.651784;404;10;15.5275;2;0.0990597;10;404.409;9.14572;1;0;1;1;0.0956064;-0.301095;-2.95894;0.0967165;-0.308317;-2.95391;1;-0.190763;0.379035;-0.37862;1;1.93578;0.808341;11.2895;-1;fp_not_a_fp;-1;0.205321;
261128;2905.662911;406;8;15.466;2;0.105722;11;404.733;8.29079;0;1;1;1;0.086135;-0.296387;-2.97321;0.0937123;-0.303597;-2.96058;1;-0.26311;0.390055;-0.472101;1;0.535882;1.1197;3.4775;0.00612921;fp_not_a_fp;-1;0.205316;
261129;2905.674039;406;8;15.3124;0;0.0486179;3;406.473;7.09351;0;2;1;1;0.086999;-0.29936;-3.00304;0.0917102;-0.300527;-2.97247;1;-0.249545;0.310779;-0.792373;1;0.921299;-0.594147;-5.57824;0;fp_not_a_fp;-1;0.205316;
261130;2905.685166;406;6;15.4791;2;0.115265;9;406.462;7.20877;0;3;1;1;0.0859654;-0.285967;-2.97752;0.0886767;-0.295701;-2.97818;1;-0.223958;0.391903;-0.531145;1;-0.0993344;0.582578;-2.24106;0.00612402;fp_not_a_fp;-1;0.205331;
261131;2905.696293;406;6;15.07;0;0.0227272;4;406.413;5.07927;0;4;1;1;0.0882991;-0.29373;-3.05835;0.0868499;-0.29386;-3.00303;1;-0.158065;0.286448;-1.28204;1;0.734652;-2.08009;-20.2972;0;fp_not_a_fp;-1;0.205347;
261132;2905.707422;406;4;15.4791;2.82843;0.158562;20;406.322;5.18367;0;5;1;1;0.0858689;-0.275798;-2.98435;0.0867834;-0.288713;-3.00581;1;-0.138528;0.41187;-0.580596;1;2.79901;0.489978;-2.43869;0.00866068;fp_not_a_fp;-1;0.205326;
261133;2905.718549;406;4;15.2135;0;0.0486179;2;406.231;3.03317;0;6;1;1;0.0873677;-0.280612;-3.03644;0.0868755;-0.284026;-3.01416;1;-0.0956041;0.355985;-0.813769;1;3.45865;1.01537;-0.482431;0;fp_not_a_fp;-1;0.205374;
261134;2905.729676;406;2;15.3202;2.82843;0.146838;16;406.157;3.1166;0;7;1;1;0.0866619;-0.268384;-3.0222;0.0870497;-0.27963;-3.02533;1;-0.0737614;0.427654;-0.643079;1;3.37452;0.802979;-2.51649;0.0087505;fp_not_a_fp;-1;0.205333;
261135;2905.740804;406;2;15.3202;2.82843;0.146838;16;406.109;0.999339;1;0;1;1;0.0860507;-0.263583;-3.0295;0.0864875;-0.272093;-3.01812;1;-0.062332;0.457754;-0.574195;1;2.15082;3.84854;15.902;-1;fp_not_a_fp;-1;0.205328;
261136;2905.751931;406;0;15.2418;2.82843;0.0158619;11;406.198;-0.0648646;0;1;1;1;0.0870094;-0.259436;-3.04467;0.0867727;-0.268003;-3.0332;1;-0.0386681;0.459336;-0.646397;1;2.24358;1.06641;-1.47843;0.0087955;fp_not_a_fp;-1;0.205329;
261137;2905.763058;406;0;15.2418;2.82843;0.0158619;11;406.055;-1.05969;1;0;1;1;0.0867184;-0.254267;-3.05194;0.0866103;-0.261417;-3.03708;1;-0.0272929;0.460659;-0.677159;1;1.53476;2.35172;3.06922;-1;fp_not_a_fp;-1;0.205319;
261138;2905.774186;406;0;15.7871;2;0.0541264;9;406.096;-2.13492;0;1;1;1;0.0840038;-0.250474;-2.93949;0.0859458;-0.25694;-3.0164;1;-0.0502278;0.44592;0.685482;1;0.528715;0.410325;29.8492;0.00600451;fp_not_a_fp;-1;0.205335;
261139;2905.785314;406;0;15.7871;2;0.0541264;9;406.024;-0.795403;1;0;1;1;0.0834782;-0.245495;-2.93003;0.0853027;-0.252418;-2.99153;1;-0.059323;0.44003;1.2696;1;0.0676191;-0.3982;41.4242;-1;fp_not_a_fp;-1;0.205328;
261140;2905.796441;406;0;15.7871;2;0.0541264;9;406.038;-1.46122;2;0;1;1;0.0828232;-0.24063;-2.91337;0.0842562;-0.247716;-2.95871;1;-0.0630241;0.437234;1.54008;1;-0.547202;-0.496571;49.1234;-1;fp_not_a_fp;-1;0.205366;
261141;2905.807568;406;0;15.7871;2;0.0541264;9;406.051;-2.07361;3;0;1;1;0.0820891;-0.235803;-2.89323;0.0830988;-0.2431;-2.91903;1;-0.0649297;0.435643;1.68634;1;-0.845586;-0.562029;53.1006;-1;fp_not_a_fp;-1;0.205336;
261142;2905.818696;406;0;15.7871;2;0.0541264;9;406.063;-2.66181;4;0;1;1;0.0813155;-0.230997;-2.87121;0.0824268;-0.238231;-2.90196;1;-0.0663024;0.434503;1.78403;1;-0.36114;-0.256507;24.6803;-1;fp_not_a_fp;-1;0.205328;
261143;2905.829823;406;0;15.7871;2;0.0541264;9;406.075;-3.27163;5;0;1;1;0.0805565;-0.226185;-2.84987;0.0816963;-0.233403;-2.88192;1;-0.0671136;0.43377;1.84153;1;-0.175036;-0.140655;12.8497;-1;fp_not_a_fp;-1;0.205371;
261144;2905.840950;406;0;15.7871;2;0.0541264;9;406.087;-3.89277;6;0;1;1;0.0797999;-0.221374;-2.82861;0.0809405;-0.228589;-2.86073;1;-0.0675605;0.433287;1.87405;1;-0.101922;-0.0886736;7.50334;-1;fp_not_a_fp;-1;0.205317;
261145;2905.852079;406;0;15.7871;2;0.0541264;9;406.1;-4.52324;7;0;1;1;0.0790429;-0.216565;-2.80732;0.080179;-0.22378;-2.83925;1;-0.0678044;0.432939;1.89243;1;-0.0645865;-0.0607447;4.63032;-1;fp_not_a_fp;-1;0.20533;
261146;2905.863206;406;0;15.7871;2;0.0541264;9;406.112;-5.16346;8;0;1;1;0.0782856;-0.211759;-2.78601;0.0794215;-0.21897;-2.81795;1;-0.0679376;0.432672;1.90296;1;-0.0367393;-0.041133;2.67213;-1;fp_not_a_fp;-1;0.205312;
261147;2905.874333;406;0;15.7871;2;0.0541264;9;406.125;-5.8142;9;0;1;1;0.0775285;-0.206954;-2.7647;0.0786645;-0.214162;-2.79666;1;-0.0680062;0.432453;1.90885;1;-0.0200569;-0.0295934;1.51245;-1;fp_not_a_fp;-1;0.205322;
261148;2905.885461;406;0;15.7871;2;0.0541264;9;406.139;-6.47576;10;0;1;1;0.0767716;-0.20215;-2.7434;0.0779074;-0.209357;-2.77536;1;-0.068036;0.432258;1.91198;1;-0.0106855;-0.0231202;0.852151;-1;fp_not_a_fp;-1;0.205333;
261149;2905.896589;406;0;15.7871;2;0.0541264;9;406.152;-7.14839;11;0;1;1;0.076015;-0.197349;-2.7221;0.0771504;-0.204553;-2.75405;1;-0.0680436;0.432079;1.91352;1;-0.00537707;-0.019325;0.473844;-1;fp_not_a_fp;-1;0.205376;
261150;2905.907715;406;0;15.7871;2;0.0541264;9;406.165;-7.83242;12;0;1;1;0.0752586;-0.19255;-2.70081;0.0763937;-0.19975;-2.73275;1;-0.0680378;0.431913;1.91416;1;-0.00225448;-0.017048;0.251509;-1;fp_not_a_fp;-1;0.205319;
261151;2905.918844;406;0;15.7871;2;0.0541264;9;406.179;-8.52812;13;0;1;1;0.0745025;-0.187752;-2.67953;0.0756372;-0.19495;-2.71146;1;-0.068024;0.431748;1.91422;1;-0.000401105;-0.0158498;0.12063;-1;fp_not_a_fp;-1;0.205333;
261152;2905.929971;406;0;15.7871;2;0.0541264;9;406.193;-9.23583;14;0;1;1;0.0737466;-0.182956;-2.65825;0.0748809;-0.190151;-2.69017;1;-0.0680068;0.431586;1.91398;1;0.000654264;-0.0150995;0.0448208;-1;fp_not_a_fp;-1;0.205307;
261153;2905.941098;406;0;15.7871;2;0.0541264;9;406.208;-9.9558;15;0;1;1;0.0729909;-0.178161;-2.63698;0.0741249;-0.185354;-2.66889;1;-0.0679874;0.431426;1.91355;1;0.00126023;-0.0146764;0.000655279;-1;fp_not_a_fp;-1;0.205358;
261154;2905.952226;406;0;15.7871;2;0.0541264;9;406.222;-10.6884;16;0;1;1;0.0722356;-0.173369;-2.61572;0.0733692;-0.180559;-2.64762;1;-0.0679652;0.431265;1.913;1;0.0016298;-0.0145694;-0.0258704;-1;fp_not_a_fp;-1;0.205359;
261155;2905.963353;406;0;15.7871;2;0.0541264;9;406.237;-11.434;17;0;1;1;0.0714806;-0.168578;-2.59447;0.0726137;-0.175765;-2.62636;1;-0.0679414;0.431105;1.9124;1;0.00185329;-0.0144325;-0.0408581;-1;fp_not_a_fp;-1;0.205362;
261156;2905.974481;-1;-1;-1;-1;-1;-1;406.252;-12.1929;18;0;0;1;0.0714806;-0.168578;-2.59447;0.0726137;-0.175765;-2.62636;1;-0.0679414;0.431105;1.9124;1;0.00185329;-0.0144325;-0.0408581;-1;fp_not_a_fp;-1;0.205323;
261157;2905.985609;-1;-1;-1;-1;-1;-1;406.252;-12.1929;19;0;0;1;0.0714806;-0.168578;-2.59447;0.0726137;-0.175765;-2.62636;1;-0.0679414;0.431105;1.9124;1;0.00185329;-0.0144325;-0.0408581;-1;fp_not_a_fp;-1;0.205326;
