rs_id;elapsed;imLx_insect;imLy_insect;disparity_insect;size_insect;score_insect;motion_sum_insect;imLx_pred_insect;imLy_pred_insect;n_frames_lost_insect;n_frames_tracking_insect;foundL_insect;pos_valid_insect;posX_insect;posY_insect;posZ_insect;sposX_insect;sposY_insect;sposZ_insect;vel_valid_insect;svelX_insect;svelY_insect;svelZ_insect;acc_valid_insect;saccX_insect;saccY_insect;saccZ_insect;radius_insect;fp;hunt_id;light_level;
192777;2145.099401;668;426;99;26.8328;0;10055;-1;-1;0;1;1;1;-0.234297;-0.380178;-0.240373;-0.234297;-0.380178;-0.240373;0;0;0;0;0;0;0;0;0.0128464;fp_not_a_fp;-1;0.205487;
192778;2145.110529;662;422;99;21.6333;0.0276108;7983;668;426;0;2;1;1;-0.228581;-0.376962;-0.242531;-0.231439;-0.37857;-0.241452;1;0.0655149;0.0368676;-0.0247447;0;0;0;0;0.0103571;fp_not_a_fp;-1;0.205493;
192779;2145.121655;650;418;97.5763;27.2029;0.0612609;11850;661.236;421.491;0;3;1;1;-0.220288;-0.379161;-0.248285;-0.227722;-0.378767;-0.24373;1;0.179298;0.022185;-0.0977718;0;10.226;-1.31958;-6.5632;0.0132137;fp_not_a_fp;-1;0.205519;
192780;2145.132782;640;414;95.542;22.8035;0.0436121;8960;647.53;416.854;0;4;1;1;-0.215087;-0.383876;-0.255825;-0.224563;-0.380044;-0.246754;1;0.263068;-0.0407633;-0.201917;0;8.8773;-3.48842;-7.96142;0.0113125;fp_not_a_fp;-1;0.205505;
192781;2145.143910;634;410;94.0284;20.5913;0.0219778;8311;635.985;412.277;0;5;1;1;-0.212532;-0.386669;-0.262216;-0.219122;-0.381667;-0.252215;1;0.293426;-0.0935903;-0.292457;0;6.82755;-3.90802;-8.01972;0.0103795;fp_not_a_fp;-1;0.205481;
192782;2145.155037;622;404;92.5509;29.5296;0.079861;13554;629.19;407.801;0;6;1;1;-0.203681;-0.387662;-0.26988;-0.212897;-0.384342;-0.259052;1;0.370003;-0.114865;-0.380417;0;6.84123;-3.40902;-7.9911;0.0151227;fp_not_a_fp;-1;0.205517;
192783;2145.166164;612;402;91.1205;20;0.0278713;8409;616.114;401.201;0;7;1;1;-0.196491;-0.391954;-0.27532;-0.206948;-0.38754;-0.26581;1;0.436874;-0.158206;-0.430608;1;5.78721;-4.05294;-7.47802;0.0104032;fp_not_a_fp;-1;0.205506;
192784;2145.177292;606;398;89.9629;22.3607;0.0209467;8411;604.742;398.862;0;8;1;1;-0.19273;-0.393458;-0.281238;-0.201358;-0.389936;-0.272163;1;0.451902;-0.173176;-0.464263;1;4.24268;-2.97493;-5.89419;0.0117807;fp_not_a_fp;-1;0.20553;
192785;2145.188419;594;392;88.329;26.8328;0.0601162;12150;598.727;394.785;0;9;1;1;-0.183466;-0.395308;-0.290083;-0.194092;-0.392095;-0.27913;1;0.506664;-0.178484;-0.520351;1;4.79105;-1.90738;-5.1203;0.0143984;fp_not_a_fp;-1;0.205497;
192786;2145.199546;586;390;86.5148;18.4391;0.0128038;8245;586.245;388.469;0;10;1;1;-0.178565;-0.401723;-0.297425;-0.187813;-0.395611;-0.286017;1;0.520854;-0.231445;-0.561317;1;3.3893;-2.61929;-4.06441;0.0101018;fp_not_a_fp;-1;0.205508;
192787;2145.210674;578;386;85.2787;18.868;0.00796827;7789;578.223;386.633;0;11;1;1;-0.172295;-0.403798;-0.304252;-0.181764;-0.398572;-0.29325;1;0.532153;-0.247592;-0.5849;1;2.14067;-2.00825;-3.46649;0.0104866;fp_not_a_fp;-1;0.205504;
192788;2145.221801;566;382;83.7575;26;0.049222;10305;570.322;382.652;0;12;1;1;-0.161877;-0.407286;-0.312358;-0.174051;-0.402029;-0.30103;1;0.58836;-0.262678;-0.612964;1;3.06591;-2.0109;-3.34096;0.014713;fp_not_a_fp;-1;0.205506;
192789;2145.232927;560;378;82.1406;17.2047;0.053444;7226;557.943;378.649;0;13;1;1;-0.158175;-0.411427;-0.321109;-0.167728;-0.406058;-0.308786;1;0.578986;-0.282875;-0.646692;1;1.62489;-2.34543;-2.8386;0.00992749;fp_not_a_fp;-1;0.205512;
192790;2145.244055;552;374;80.8966;18.868;0.0261963;7444;552.241;374.667;0;14;1;1;-0.151269;-0.413802;-0.328698;-0.160904;-0.409078;-0.316604;1;0.58042;-0.282368;-0.665137;1;1.3383;-1.14412;-2.33256;0.0110547;fp_not_a_fp;-1;0.205491;
192791;2145.255182;542;370;79.2475;21.5407;0.0220153;8003;544.458;370.616;0;15;1;1;-0.142492;-0.418365;-0.338256;-0.153453;-0.41272;-0.325105;1;0.607592;-0.298448;-0.697482;1;1.69494;-1.14265;-2.52947;0.0128832;fp_not_a_fp;-1;0.205495;
192792;2145.266309;536;366;77.8238;16.1245;0.0517881;6171;534.408;366.598;0;16;1;1;-0.137828;-0.421927;-0.34719;-0.147441;-0.416381;-0.333813;1;0.59479;-0.307856;-0.724297;1;0.144456;-1.01506;-2.50142;0.00982031;fp_not_a_fp;-1;0.205516;
192793;2145.277437;530;362;76.4789;21.6333;0.0173087;6952;528.769;362.582;0;17;1;1;-0.132852;-0.425183;-0.35609;-0.14111;-0.41982;-0.342558;1;0.570661;-0.309795;-0.745005;1;-0.187002;-0.604834;-2.20882;0.013407;fp_not_a_fp;-1;0.205523;
192794;2145.288564;518;360;75.0773;16.1245;0.0755185;5514;523.185;358.568;0;18;1;1;-0.120201;-0.430928;-0.364209;-0.133343;-0.424101;-0.351436;1;0.632928;-0.336937;-0.75161;1;1.17978;-1.22605;-1.94283;0.0101796;fp_not_a_fp;-1;0.205528;
192795;2145.299691;516;356;73.64;16.1245;0.0663515;5239;510.861;356.811;0;19;1;1;-0.120012;-0.435048;-0.374198;-0.127723;-0.428271;-0.360422;1;0.580097;-0.352403;-0.772985;1;-0.617772;-1.21227;-1.69638;0.0103782;fp_not_a_fp;-1;0.205485;
192796;2145.310818;508;352;72.3133;18.868;0.0168054;5413;509.517;352.889;0;20;1;1;-0.111767;-0.438609;-0.38403;-0.121208;-0.432442;-0.369632;1;0.578786;-0.354671;-0.795927;1;-0.359592;-1.05185;-1.60934;0.0123668;fp_not_a_fp;-1;0.205515;
192797;2145.321946;500;348;70.9722;14.4222;0.052145;4554;501.732;348.873;0;21;1;1;-0.103235;-0.442394;-0.394309;-0.113804;-0.436745;-0.379187;1;0.602216;-0.353749;-0.821713;1;0.708897;-0.98757;-1.72342;0.0096315;fp_not_a_fp;-1;0.205496;
192798;2145.333073;496;346;69.9202;13.4164;0.0645562;3684;493.709;344.826;0;22;1;1;-0.0993859;-0.446764;-0.401776;-0.1086;-0.440704;-0.388579;1;0.579207;-0.358347;-0.813152;1;-1.20708;-0.481045;-1.38269;0.00909463;fp_not_a_fp;-1;0.205498;
192799;2145.344200;488;340;68.6856;16.1245;0.0438693;3839;490.149;342.978;0;23;1;1;-0.0901948;-0.447849;-0.413659;-0.101146;-0.443904;-0.398444;1;0.601179;-0.326975;-0.842114;1;0.47363;0.571317;-1.55314;0.0111268;fp_not_a_fp;-1;0.205502;
192800;2145.355327;482;338;67.4812;12.8062;0.049299;3956;482.125;336.746;0;24;1;1;-0.0833978;-0.453456;-0.422644;-0.0940533;-0.447616;-0.408097;1;0.611489;-0.336577;-0.849656;1;0.734709;0.406543;-1.20711;0.00899477;fp_not_a_fp;-1;0.205531;
192801;2145.366454;478;334;66.5766;8.94427;0.0948762;2494;476.221;334.86;0;25;1;1;-0.0788791;-0.454852;-0.431584;-0.0879644;-0.45073;-0.417416;1;0.589551;-0.313619;-0.846884;1;-0.284573;0.901645;-0.56554;0.00636759;fp_not_a_fp;-1;0.205485;
192802;2145.377581;470;330;65.1913;15.2315;0.0293365;3516;472.59;330.859;0;26;1;1;-0.0689672;-0.459615;-0.444046;-0.0803597;-0.453943;-0.427983;1;0.618912;-0.318723;-0.880571;1;0.892082;0.890269;-1.51477;0.011074;fp_not_a_fp;-1;0.205526;
192803;2145.388709;468;328;64.2111;11.6619;0.0619779;3409;464.527;326.801;0;27;1;1;-0.0670901;-0.464161;-0.452483;-0.0745836;-0.458021;-0.437689;1;0.573619;-0.332288;-0.878878;1;-0.61913;-0.119338;-0.826017;0.00860816;fp_not_a_fp;-1;0.2055;
192804;2145.399836;462;324;63.3394;10;0.0595216;1947;463.034;325.009;0;28;1;1;-0.0590797;-0.465522;-0.462084;-0.0685041;-0.461037;-0.447549;1;0.57356;-0.31111;-0.876142;1;-0.85208;0.572216;-0.595119;0.00748303;fp_not_a_fp;-1;0.205489;
192805;2145.410963;454;320;62.1593;14.5602;0.0421174;2517;457.213;321;0;29;1;1;-0.0480481;-0.469217;-0.474308;-0.0607963;-0.464629;-0.45823;1;0.626838;-0.305041;-0.903386;1;0.837885;0.192766;-1.26951;0.0111023;fp_not_a_fp;-1;0.205493;
192806;2145.422091;452;318;61.2721;10;0.0671154;2954;448.96;316.94;0;30;1;1;-0.0456733;-0.473423;-0.482914;-0.0549728;-0.468081;-0.467947;1;0.596123;-0.311831;-0.898055;1;-0.511854;0.1549;-0.392865;0.00773551;fp_not_a_fp;-1;0.205509;
192807;2145.433218;446;314;60.3433;7.2111;0.087587;1581;447.334;315.099;0;31;1;1;-0.036999;-0.475433;-0.493888;-0.04745;-0.470899;-0.478299;1;0.606828;-0.2979;-0.907108;1;0.746229;0.772661;-0.634281;0.005664;fp_not_a_fp;-1;0.205499;
192808;2145.444345;440;312;59.2917;8.94427;0.0548346;2304;441.369;311.063;0;32;1;1;-0.0280872;-0.481149;-0.50447;-0.0397019;-0.474806;-0.488895;1;0.636011;-0.319674;-0.916451;1;1.40324;-0.192412;-0.905669;0.00714994;fp_not_a_fp;-1;0.205516;
192809;2145.455472;440;308;58.4729;11.6619;0.0456852;2491;435.308;309.23;0;33;1;1;-0.02853;-0.482503;-0.515148;-0.0348224;-0.478127;-0.499105;1;0.561872;-0.303417;-0.925817;1;-1.45944;0.0364472;-0.503972;0.00945292;fp_not_a_fp;-1;0.205489;
192810;2145.466599;434;306;57.6742;8.48528;0.0569982;1295;435.979;305.202;0;34;1;1;-0.0190887;-0.486393;-0.524156;-0.0281762;-0.481369;-0.509416;1;0.567795;-0.302586;-0.914853;1;-0.636304;0.207662;-0.377393;0.00697327;fp_not_a_fp;-1;0.205523;
192811;2145.477726;428;304;56.7483;8.94427;0.0468775;1864;430.053;303.313;0;35;1;1;-0.00940337;-0.491492;-0.534613;-0.0212773;-0.485384;-0.519597;1;0.608845;-0.322101;-0.913504;1;0.0454684;-0.5438;-0.143691;0.0074704;fp_not_a_fp;-1;0.205484;
192812;2145.488854;426;300;55.8936;10;0.038158;2368;423.907;301.514;0;36;1;1;-0.00620704;-0.493353;-0.546582;-0.0158073;-0.488435;-0.530125;1;0.584788;-0.310415;-0.933625;1;-1.15068;0.207978;-0.385811;0.00847987;fp_not_a_fp;-1;0.205546;
192813;2145.499981;422;298;55.1921;5.65685;0.0780148;1018;422.193;297.436;0;37;1;1;0.000557797;-0.496728;-0.555473;-0.00853536;-0.491992;-0.540206;1;0.577802;-0.304684;-0.924776;1;0.357969;-0.0284943;0.0234302;0.00485792;fp_not_a_fp;-1;0.205504;
192814;2145.511108;418;296;54.2049;8.48528;0.0215863;1270;418.287;295.522;0;38;1;1;0.00753632;-0.502826;-0.567568;-0.0018791;-0.4961;-0.551059;1;0.581214;-0.333354;-0.94181;1;0.301549;-0.691336;-0.605625;0.00741958;fp_not_a_fp;-1;0.20548;
192815;2145.522236;416;294;53.4124;10;0.0279202;1892;414.392;293.661;0;39;1;1;0.0111705;-0.507317;-0.577982;0.00326437;-0.500056;-0.561902;1;0.550146;-0.35416;-0.948094;1;-1.31874;-0.720303;-0.77713;0.00887379;fp_not_a_fp;-1;0.205468;
192816;2145.533363;410;294;52.7656;5.65685;0.0993292;932;412.723;291.79;0;40;1;1;0.0220862;-0.513468;-0.585113;0.0103377;-0.505085;-0.571535;1;0.592264;-0.388093;-0.911506;1;0.168025;-1.74524;0.496968;0.00508131;fp_not_a_fp;-1;0.20552;
192817;2145.544490;404;292;51.8756;10.198;0.0550785;1428;406.538;292.179;0;41;1;1;0.0334009;-0.519173;-0.597235;0.0185485;-0.510696;-0.581975;1;0.663829;-0.418016;-0.919074;1;1.93289;-2.5463;0.128106;0.00931761;fp_not_a_fp;-1;0.205481;
192818;2145.555618;404;290;51.1576;10;0.0408699;2175;400.199;290.359;0;42;1;1;0.0338415;-0.523383;-0.607683;0.0251247;-0.515835;-0.592004;1;0.613782;-0.425317;-0.924728;1;0.731879;-2.06617;0.383821;0.00926491;fp_not_a_fp;-1;0.205487;
192819;2145.566744;400;290;50.5492;4.47214;0.104428;726;400.588;288.411;0;43;1;1;0.0417497;-0.529635;-0.615029;0.0327695;-0.521415;-0.601265;1;0.605467;-0.445751;-0.893321;1;1.24302;-2.05786;1.23067;0.00419327;fp_not_a_fp;-1;0.20547;
192820;2145.577871;396;288;49.7315;7.2111;0.0290439;971;396.71;288.659;0;44;1;1;0.0500313;-0.535129;-0.627297;0.0397558;-0.52683;-0.611811;1;0.619736;-0.460321;-0.907034;1;0.617314;-1.62283;0.100496;0.00687259;fp_not_a_fp;-1;0.205545;
192821;2145.588999;394;288;48.9256;8.94427;0.0373032;1962;392.763;286.686;0;45;1;1;0.0547304;-0.54392;-0.637647;0.0450882;-0.533017;-0.621914;1;0.600447;-0.50839;-0.915644;1;-1.42395;-2.03043;0.077125;0.00866484;fp_not_a_fp;-1;0.205491;
192822;2145.600126;390;286;48.3131;4.47214;0.0897105;668;391.031;286.892;0;46;1;1;0.0632424;-0.547507;-0.647951;0.0524384;-0.539048;-0.631981;1;0.613465;-0.504536;-0.920529;1;-0.0071013;-1.77979;0.0943699;0.00438734;fp_not_a_fp;-1;0.205507;
192823;2145.611253;386;286;47.6722;6.32456;0.0424727;805;387.005;284.894;0;47;1;1;0.0720462;-0.554818;-0.656696;0.0600125;-0.545343;-0.642398;1;0.641519;-0.522389;-0.905377;1;0.810069;-1.7218;-0.27086;0.00628806;fp_not_a_fp;-1;0.205484;
192824;2145.622381;384;284;46.853;8.24621;0.0316567;1832;382.919;285.031;0;48;1;1;0.0773214;-0.561133;-0.67045;0.0668351;-0.551844;-0.653186;1;0.631751;-0.535526;-0.941291;1;0.270047;-1.68958;-0.769579;0.00834197;fp_not_a_fp;-1;0.205535;
192825;2145.633508;382;284;46.3202;4.47214;0.0832396;598;381.087;282.993;0;49;1;1;0.0823036;-0.567562;-0.678179;0.0737284;-0.557755;-0.663319;1;0.604247;-0.546338;-0.92467;1;0.0854225;-0.852589;-0.202722;0.0045761;fp_not_a_fp;-1;0.205516;
192826;2145.644635;378;282;45.7101;7.2111;0.0285364;628;379.293;283.096;0;50;1;1;0.0916654;-0.57164;-0.689577;0.0808341;-0.563788;-0.673726;1;0.623124;-0.527872;-0.930511;1;0.217061;-0.524286;-0.224196;0.00747721;fp_not_a_fp;-1;0.205514;
192827;2145.655763;376;282;44.9387;10.198;0.0614276;1525;375.273;281.032;0;51;1;1;0.0974578;-0.581427;-0.701433;0.087187;-0.57044;-0.68491;1;0.617839;-0.565091;-0.950137;1;-0.532006;-0.959341;-1.00556;0.0107559;fp_not_a_fp;-1;0.205507;
192828;2145.666889;374;282;44.3747;5.65685;0.0443232;463;373.419;281.128;0;52;1;1;0.102969;-0.588789;-0.710366;0.0935989;-0.577354;-0.694889;1;0.600023;-0.592793;-0.939458;1;-0.712872;-1.28661;0.0412124;0.00604215;fp_not_a_fp;-1;0.205527;
192829;2145.678016;372;280;43.7781;6.32456;0.0283054;510;371.577;281.309;0;53;1;1;0.108669;-0.59319;-0.722478;0.10019;-0.583761;-0.705964;1;0.581476;-0.579072;-0.95406;1;-0.511626;-0.735396;-0.660296;0.00684737;fp_not_a_fp;-1;0.205468;
192830;2145.689144;370;278;43.1418;10.7703;0.0737031;1470;369.726;279.218;0;54;1;1;0.114633;-0.598262;-0.735601;0.105932;-0.590417;-0.71747;1;0.567999;-0.557677;-0.988823;1;-1.23852;-0.669643;-1.31004;0.0118326;fp_not_a_fp;-1;0.205473;
192831;2145.700271;368;278;42.6384;4.47214;0.0734214;365;367.883;277.049;0;55;1;1;0.120433;-0.605297;-0.744305;0.111676;-0.596384;-0.728188;1;0.556465;-0.558356;-0.976844;1;-1.37892;0.151283;-0.59998;0.00497125;fp_not_a_fp;-1;0.205465;
192832;2145.711398;368;278;42.0473;5.65685;0.0232117;431;365.985;277.094;0;56;1;1;0.122126;-0.613807;-0.754769;0.116465;-0.602639;-0.739289;1;0.50013;-0.584967;-0.967249;1;-2.24439;0.175781;-0.624341;0.0063766;fp_not_a_fp;-1;0.205527;
192833;2145.722526;366;276;41.5312;8.24621;0.0420236;1568;366.315;277.234;0;57;1;1;0.128173;-0.617615;-0.766711;0.121341;-0.608745;-0.750347;1;0.482375;-0.564998;-0.976791;1;-2.22656;0.316118;-0.510625;0.0094109;fp_not_a_fp;-1;0.205527;
192834;2145.733653;366;276;40.9963;4.47214;0.0571953;295;364.443;275.163;0;58;1;1;0.129846;-0.625674;-0.776715;0.125144;-0.615598;-0.760626;1;0.432681;-0.577059;-0.970824;1;-3.04031;-0.435516;0.404421;0.00517038;fp_not_a_fp;-1;0.205528;
192835;2145.744780;364;274;40.4258;4.47214;0.0748452;449;364.72;275.265;0;59;1;1;0.136332;-0.63058;-0.79031;0.129119;-0.621919;-0.772127;1;0.43131;-0.564678;-1.00037;1;-2.81196;-0.142099;-0.528524;0.00524333;fp_not_a_fp;-1;0.205492;
192836;2145.755906;362;272;39.9937;8.24621;0.0479283;1511;362.775;273.147;0;60;1;1;0.142509;-0.633427;-0.801511;0.134215;-0.626824;-0.783812;1;0.446543;-0.520178;-1.01338;1;-1.20396;1.45568;-1.03654;0.00977271;fp_not_a_fp;-1;0.205509;
192837;2145.767034;362;272;39.3681;2.82843;0.103903;404;360.688;270.941;0;61;1;1;0.144774;-0.643493;-0.814248;0.138365;-0.633293;-0.795696;1;0.421839;-0.550817;-1.0355;1;-1.36006;0.318708;-1.31904;0.00340528;fp_not_a_fp;-1;0.205484;
192838;2145.778161;362;270;38.8027;4.47214;0.0653434;789;360.852;271.022;0;62;1;1;0.146846;-0.648812;-0.828835;0.142615;-0.639078;-0.808726;1;0.381577;-0.554197;-1.07977;1;-1.14814;0.513739;-2.44784;0.00546267;fp_not_a_fp;-1;0.205502;
192839;2145.789288;362;268;38.4723;8.94427;0.0721105;1760;361.07;268.927;0;63;1;1;0.14807;-0.650292;-0.838698;0.14555;-0.644006;-0.820823;1;0.330291;-0.501864;-1.0734;1;-2.26964;1.4114;-1.64092;0.0110191;fp_not_a_fp;-1;0.205518;
192840;2145.800416;360;268;37.9647;4.47214;0.0710245;567;361.307;266.787;0;64;1;1;0.155043;-0.658955;-0.849934;0.148683;-0.650388;-0.832929;1;0.346901;-0.515531;-1.06265;1;-2.23871;0.104476;-1.10683;0.00558324;fp_not_a_fp;-1;0.2055;
192841;2145.811543;360;266;37.4915;6.32456;0.0353517;1485;359.267;266.913;0;65;1;1;0.156961;-0.663073;-0.863479;0.15173;-0.655283;-0.845237;1;0.331507;-0.502628;-1.07793;1;-2.02958;1.08272;-0.953334;0.00799555;fp_not_a_fp;-1;0.205512;
192842;2145.822670;360;266;37.2436;7.2111;0.026826;1326;359.339;264.848;0;66;1;1;0.158006;-0.667487;-0.869226;0.15452;-0.659952;-0.855334;1;0.294837;-0.483775;-1.01264;1;-1.94891;1.58227;1.50846;0.009177;fp_not_a_fp;-1;0.205525;
192843;2145.833798;360;264;36.7078;5.65685;0.026603;781;359.451;264.988;0;67;1;1;0.160273;-0.672942;-0.884792;0.157571;-0.665614;-0.866858;1;0.268061;-0.476804;-1.03491;1;-1.39816;0.563058;0.864865;0.00730413;fp_not_a_fp;-1;0.20549;
192844;2145.844924;360;262;36.2202;7.2111;0.0477607;1692;359.572;262.952;0;68;1;1;0.162391;-0.677655;-0.89962;0.159408;-0.670289;-0.879279;1;0.24708;-0.467134;-1.08209;1;-2.24275;1.08738;-0.436862;0.00943629;fp_not_a_fp;-1;0.205529;
192845;2145.856051;360;260;35.9544;5.65685;0.0225032;921;359.708;260.807;0;69;1;1;0.163551;-0.678286;-0.909208;0.161055;-0.674092;-0.890712;1;0.220193;-0.410788;-1.07348;1;-2.50098;2.06345;0.0999204;0.00745717;fp_not_a_fp;-1;0.205482;
192846;2145.867179;360;258;35.3961;4.47214;0.0512027;808;359.8;258.66;0;70;1;1;0.16609;-0.684537;-0.926534;0.163076;-0.678355;-0.905039;1;0.210097;-0.406763;-1.1316;1;-1.90387;1.73027;-2.67272;0.0059884;fp_not_a_fp;-1;0.205498;
192847;2145.878306;362;258;34.932;8.94427;0.0930952;1767;359.865;256.515;0;71;1;1;0.162869;-0.693667;-0.938822;0.163725;-0.683536;-0.918546;1;0.14221;-0.45787;-1.15213;1;-2.82759;0.425398;-2.63355;0.0121359;fp_not_a_fp;-1;0.205484;
192848;2145.889433;362;256;34.659;2;0.142609;571;362.169;256.674;0;72;1;1;0.16411;-0.694588;-0.949264;0.164155;-0.687769;-0.930957;1;0.110242;-0.431149;-1.13336;1;-3.07447;0.808521;-1.15181;0.00273504;fp_not_a_fp;-1;0.205522;
192849;2145.900561;362;254;34.1901;5.65685;0.0236478;804;362.28;254.676;0;73;1;1;0.166319;-0.699511;-0.965374;0.164847;-0.693076;-0.944999;1;0.108285;-0.421539;-1.16571;1;-2.51434;-0.241555;-2.07181;0.00784199;fp_not_a_fp;-1;0.205501;
192850;2145.911688;362;254;33.7928;8.94427;0.0541264;1631;362.287;252.617;0;74;1;1;0.168275;-0.707735;-0.976725;0.165393;-0.698875;-0.957546;1;0.116081;-0.458082;-1.1605;1;-2.11236;-1.15301;-0.649261;0.0125451;fp_not_a_fp;-1;0.205479;
192851;2145.922815;362;252;33.4412;2.82843;0.108953;573;362.252;252.795;0;75;1;1;0.17;-0.710469;-0.990153;0.167176;-0.703076;-0.970379;1;0.124282;-0.446091;-1.16426;1;-0.402828;0.264661;-0.272401;0.00400881;fp_not_a_fp;-1;0.205482;
192852;2145.933943;362;250;33.0068;4.47214;0.0496821;1058;362.175;250.764;0;76;1;1;0.172194;-0.715049;-1.00638;0.169197;-0.708191;-0.984659;1;0.136958;-0.436734;-1.20335;1;0.600247;-0.125505;-1.57221;0.00642189;fp_not_a_fp;-1;0.205501;
192853;2145.945070;362;248;32.8318;6.32456;0.0293898;1334;362.121;248.677;0;77;1;1;0.173068;-0.714068;-1.01497;0.170884;-0.71183;-0.997058;1;0.134749;-0.365911;-1.16442;1;0.594577;1.24984;0.0289142;0.00913035;fp_not_a_fp;-1;0.205507;
192854;2145.956197;362;248;32.4919;4.47214;0.0291144;588;362.083;246.566;0;78;1;1;0.174878;-0.721536;-1.02558;0.172535;-0.71528;-1.00927;1;0.137399;-0.375582;-1.1215;1;0.478944;1.85357;0.876276;0.00652366;fp_not_a_fp;-1;0.205472;
192855;2145.967324;362;244;32.0906;7.2111;0.0923799;1434;362.057;246.703;0;79;1;1;0.176975;-0.720748;-1.04499;0.174279;-0.71785;-1.02298;1;0.145002;-0.322641;-1.1832;1;0.465506;2.77359;-0.425374;0.0106506;fp_not_a_fp;-1;0.205478;
192856;2145.978451;362;244;31.9182;4.47214;0.0264988;795;362.038;242.435;0;80;1;1;0.177931;-0.724641;-1.05064;0.175713;-0.720248;-1.03405;1;0.140607;-0.304235;-1.12248;1;0.0819743;2.97691;1.817;0.0066409;fp_not_a_fp;-1;0.205507;
192857;2145.989578;362;242;31.516;2.82843;0.0919756;648;362.026;242.537;0;81;1;1;0.180156;-0.728896;-1.0674;0.177485;-0.723955;-1.04715;1;0.146365;-0.306597;-1.14637;1;0.260974;1.3326;0.40567;0.0042537;fp_not_a_fp;-1;0.205507;
192858;2146.000706;364;240;31.1647;7.2111;0.0919865;1494;362.018;240.543;0;82;1;1;0.176057;-0.732098;-1.08279;0.177779;-0.726596;-1.06146;1;0.0830882;-0.305166;-1.18647;1;-1.22014;1.58205;-1.45947;0.010967;fp_not_a_fp;-1;0.205486;
192859;2146.011833;364;240;30.9274;2.82843;0.0790059;604;364.276;238.466;0;83;1;1;0.177408;-0.737716;-1.0911;0.177888;-0.730838;-1.07298;1;0.0618268;-0.33005;-1.14695;1;-1.86867;-0.166479;0.814535;0.00433464;fp_not_a_fp;-1;0.205499;
192860;2146.022960;364;238;30.604;2.82843;0.089731;667;364.353;238.684;0;84;1;1;0.179235;-0.740367;-1.10608;0.178214;-0.734769;-1.08685;1;0.0661019;-0.328632;-1.15606;1;-1.67386;-0.548173;-0.754454;0.00438044;fp_not_a_fp;-1;0.205505;
192861;2146.034088;366;236;30.302;7.2111;0.0969717;1451;364.338;236.684;0;85;1;1;0.174718;-0.742593;-1.12057;0.176854;-0.738193;-1.10014;1;0.00765808;-0.311638;-1.17842;1;-3.11623;-0.113295;-0.719957;0.0112793;fp_not_a_fp;-1;0.205495;
192862;2146.045214;366;236;29.9873;2.82843;0.0690243;455;366.552;234.614;0;86;1;1;0.176551;-0.750384;-1.13233;0.176978;-0.742765;-1.11252;1;0.00354358;-0.354184;-1.17213;1;-1.7871;-1.10142;0.322084;0.00447052;fp_not_a_fp;-1;0.205499;
192863;2146.056341;368;234;29.6603;4.47214;0.0465961;599;366.544;234.791;0;87;1;1;0.172057;-0.753391;-1.14835;0.17564;-0.746684;-1.12683;1;-0.050124;-0.361056;-1.20366;1;-2.51519;-0.696723;-1.27421;0.00714645;fp_not_a_fp;-1;0.205517;
192864;2146.067469;368;232;29.5181;7.2111;0.0781225;1390;368.733;232.758;0;88;1;1;0.172837;-0.751688;-1.15746;0.17404;-0.749514;-1.13968;1;-0.0569705;-0.298319;-1.1676;1;-2.76505;0.680883;-0.259272;0.0115788;fp_not_a_fp;-1;0.205521;
192865;2146.078596;368;232;29.1644;2.82843;0.0672536;434;368.725;230.658;0;89;1;1;0.174933;-0.760805;-1.1715;0.174094;-0.754067;-1.15241;1;-0.0285023;-0.338853;-1.1647;1;-0.812423;-0.611655;0.308206;0.00459668;fp_not_a_fp;-1;0.205445;
192866;2146.089723;370;230;28.7501;4.47214;0.0376988;758;368.593;230.822;0;90;1;1;0.170809;-0.766335;-1.19203;0.172659;-0.758054;-1.16733;1;-0.0603706;-0.375778;-1.25027;1;-1.43599;-0.485314;-1.75563;0.00737272;fp_not_a_fp;-1;0.205496;
192867;2146.100851;372;230;28.594;4.47214;0.0410234;1162;370.725;228.783;0;91;1;1;0.165112;-0.77056;-1.1985;0.170923;-0.762347;-1.17987;1;-0.13115;-0.391535;-1.20042;1;-1.82032;-0.684895;0.0728002;0.00741296;fp_not_a_fp;-1;0.205514;
192868;2146.111978;372;228;28.3822;2.82843;0.0913345;542;372.929;228.942;0;92;1;1;0.166293;-0.770763;-1.21117;0.169287;-0.767116;-1.1933;1;-0.130133;-0.350436;-1.17189;1;-1.64367;-1.17094;-0.0963742;0.00472336;fp_not_a_fp;-1;0.205518;
192869;2146.123104;374;228;28.1034;5.65685;0.0739939;973;372.899;226.91;0;93;1;1;0.161197;-0.778453;-1.22316;0.165853;-0.771528;-1.20622;1;-0.171533;-0.376903;-1.14804;1;-3.21348;-0.854854;0.374254;0.00954043;fp_not_a_fp;-1;0.205469;
192870;2146.134232;374;226;27.9338;4.47214;0.0336516;954;375.034;227.034;0;94;1;1;0.162124;-0.777544;-1.23437;0.163681;-0.77433;-1.2168;1;-0.156137;-0.329356;-1.12024;1;-2.15157;1.04296;2.92139;0.00758817;fp_not_a_fp;-1;0.205485;
192871;2146.145359;376;226;27.6129;2.82843;0.0963544;471;374.934;224.971;0;95;1;1;0.157142;-0.786623;-1.24868;0.161689;-0.778346;-1.22934;1;-0.186966;-0.371768;-1.12995;1;-1.25412;0.444044;1.58317;0.00485495;fp_not_a_fp;-1;0.205503;
192872;2146.156486;380;224;27.2547;4.47214;0.0861461;825;377.004;225.077;0;96;1;1;0.145242;-0.791275;-1.26891;0.156426;-0.783474;-1.24378;1;-0.312269;-0.395198;-1.22174;1;-4.09231;-1.00582;-1.12019;0.00777724;fp_not_a_fp;-1;0.205516;
192873;2146.167614;380;224;27.1561;4.47214;0.00284795;855;381.435;223.008;0;97;1;1;0.14577;-0.794148;-1.27352;0.152569;-0.787397;-1.25637;1;-0.318178;-0.387403;-1.15665;1;-3.29487;-0.236041;-0.193629;0.00780548;fp_not_a_fp;-1;0.205489;
192874;2146.178741;380;222;26.982;2.82843;0.0965793;406;381.416;223.096;0;98;1;1;0.146657;-0.793437;-1.28565;0.148703;-0.791371;-1.26919;1;-0.269869;-0.326624;-1.12128;1;-2.5554;0.0613177;-0.0236172;0.00496847;fp_not_a_fp;-1;0.205511;
192875;2146.189868;384;222;26.6769;4.47214;0.0911805;874;381.223;221.013;0;99;1;1;0.134121;-0.802603;-1.3003;0.142947;-0.795366;-1.28209;1;-0.359183;-0.364914;-1.13153;1;-3.86942;0.153938;-0.0357369;0.00794569;fp_not_a_fp;-1;0.205518;
192876;2146.200995;384;220;26.5477;4.47214;0.0568477;629;385.485;221.105;0;100;1;1;0.134719;-0.800577;-1.3106;0.140316;-0.797691;-1.29252;1;-0.343425;-0.310969;-1.10956;1;-0.700029;1.8924;2.52035;0.00798434;fp_not_a_fp;-1;0.205507;
192877;2146.212123;386;220;26.2275;4.47214;0.0400653;397;385.357;219.017;0;101;1;1;0.129135;-0.810399;-1.32657;0.136158;-0.801754;-1.30578;1;-0.357105;-0.361589;-1.14204;1;-0.87461;0.580086;0.328337;0.00808183;fp_not_a_fp;-1;0.205538;
192878;2146.223251;388;218;25.9839;4.47214;0.0423445;858;387.388;219.109;0;102;1;1;0.122994;-0.811984;-1.34304;0.130242;-0.806391;-1.32013;1;-0.387605;-0.35456;-1.1986;1;-2.64524;-0.627535;-1.73705;0.00815761;fp_not_a_fp;-1;0.205487;
192879;2146.234378;388;218;25.9409;2.82843;0.0505423;474;389.492;217.025;0;103;1;1;0.123198;-0.813329;-1.34527;0.127512;-0.809072;-1.33137;1;-0.348436;-0.321845;-1.09459;1;0.241488;0.967755;0.830122;0.00516787;fp_not_a_fp;-1;0.20547;
192880;2146.245506;390;218;25.6754;2;0.112802;331;389.297;217.105;0;104;1;1;0.117088;-0.821786;-1.35915;0.123104;-0.814374;-1.34351;1;-0.357837;-0.364205;-1.07107;1;-0.323744;-1.19589;0.864708;0.00369202;fp_not_a_fp;-1;0.20547;
192881;2146.256633;392;216;25.5188;4.47214;0.061737;833;391.309;217.289;0;105;1;1;0.110321;-0.820709;-1.3716;0.1184;-0.816952;-1.35477;1;-0.393652;-0.322909;-1.06747;1;-0.821109;0.869134;1.67523;0.00830628;fp_not_a_fp;-1;0.205504;
192882;2146.267760;392;216;25.4756;2;0.0803987;348;393.393;215.185;0;106;1;1;0.110508;-0.822098;-1.37392;0.115279;-0.81948;-1.36248;1;-0.356101;-0.280587;-0.956449;1;0.707829;1.66209;5.44043;0.00372097;fp_not_a_fp;-1;0.205536;
192883;2146.278888;394;214;25.0745;4.47214;0.0651364;280;393.228;215.269;0;107;1;1;0.104657;-0.829021;-1.40008;0.110643;-0.823403;-1.37619;1;-0.362221;-0.306651;-1.08845;1;-0.309702;0.341504;0.138131;0.00845346;fp_not_a_fp;-1;0.205491;
192884;2146.290015;396;214;25.0295;4;0.0417166;644;395.257;213.137;0;108;1;1;0.0972711;-0.83056;-1.40257;0.105689;-0.825597;-1.38704;1;-0.403215;-0.295956;-1.03267;1;-1.01954;1.53344;0.862981;0.0075746;fp_not_a_fp;-1;0.20552;
192885;2146.301142;396;212;24.8933;2.82843;0.0838626;232;397.362;213.183;0;109;1;1;0.0977451;-0.828779;-1.41449;0.102545;-0.827614;-1.39777;1;-0.363293;-0.233375;-1.01449;1;0.682121;2.01166;1.19045;0.00538536;fp_not_a_fp;-1;0.205503;
192886;2146.312271;398;212;24.6204;4.47214;0.0605318;372;397.201;211.068;0;110;1;1;0.0911282;-0.838014;-1.43013;0.0977004;-0.831593;-1.41182;1;-0.376299;-0.283586;-1.05689;1;-0.453741;-0.0672267;-2.25644;0.00860936;fp_not_a_fp;-1;0.205517;
192887;2146.323398;400;210;24.5005;4.47214;0.063317;478;399.244;211.142;0;111;1;1;0.0837774;-0.835741;-1.44141;0.0924805;-0.833273;-1.42215;1;-0.417937;-0.242111;-1.06893;1;-1.25176;1.45017;0.438579;0.00865152;fp_not_a_fp;-1;0.205482;
192888;2146.334525;400;210;24.3962;2.82843;0.0300663;182;401.351;209.039;0;112;1;1;0.0841356;-0.839314;-1.44757;0.0891966;-0.835462;-1.4334;1;-0.377732;-0.235045;-1.00819;1;0.572586;1.36863;0.549963;0.00549509;fp_not_a_fp;-1;0.205518;
192889;2146.345653;402;208;24.1134;2.82843;0.0619294;339;401.195;209.116;0;113;1;1;0.0772;-0.842677;-1.4689;0.0840603;-0.838936;-1.447;1;-0.392431;-0.240692;-1.09889;1;-0.654609;-0.164297;-1.89585;0.00555953;fp_not_a_fp;-1;0.205504;
192890;2146.356780;402;208;23.8188;4.47214;0.0327059;411;403.24;207.027;0;114;1;1;0.0781548;-0.853099;-1.48706;0.080817;-0.842707;-1.46124;1;-0.337506;-0.331796;-1.20446;1;0.871635;-1.08318;-3.31524;0.0088991;fp_not_a_fp;-1;0.205498;
192891;2146.367907;402;208;23.9678;2.82843;0.0328638;111;403.067;207.116;0;115;1;1;0.0776693;-0.847798;-1.47782;0.07929;-0.845722;-1.47034;1;-0.277324;-0.266367;-0.988547;1;3.15931;-0.544971;1.80621;0.00559331;fp_not_a_fp;-1;0.205485;
192892;2146.379035;404;206;23.6173;4.47214;0.0788748;473;402.843;207.285;0;116;1;1;0.0707333;-0.853765;-1.50419;0.0759394;-0.849334;-1.48449;1;-0.29658;-0.273736;-1.07547;1;1.8234;-0.869267;-1.51106;0.00897504;fp_not_a_fp;-1;0.205514;
192893;2146.390163;404;206;23.451;2.82843;0.0355909;210;404.9;205.186;0;117;1;1;0.071235;-0.85982;-1.51486;0.0744481;-0.85362;-1.49599;1;-0.260958;-0.311276;-1.0965;1;2.95395;-1.58583;0.0538267;0.00571658;fp_not_a_fp;-1;0.205487;
192894;2146.401290;404;204;23.2037;2.82843;0.0726035;106;404.784;205.275;0;118;1;1;0.0719319;-0.8622;-1.53556;0.0728924;-0.855896;-1.50811;1;-0.204962;-0.314372;-1.20261;1;2.978;0.391509;0.0416613;0.0057775;fp_not_a_fp;-1;0.205509;
192895;2146.412418;404;204;23.1046;2.82843;0.0260314;498;404.632;203.138;0;119;1;1;0.0722404;-0.865898;-1.54215;0.0715352;-0.86042;-1.52419;1;-0.152142;-0.317935;-1.16855;1;2.81248;-1.15858;-4.0442;0.00580228;fp_not_a_fp;-1;0.205502;
192896;2146.423545;404;204;23.0679;2.82843;0.0260314;76;404.49;203.186;0;120;1;1;0.0723552;-0.867274;-1.5446;0.0719407;-0.863798;-1.53429;1;-0.109591;-0.294632;-1.03353;1;4.20108;-0.469494;0.942189;0.0058115;fp_not_a_fp;-1;0.205483;
192897;2146.434672;404;202;22.8795;2.82843;0.0608087;155;404.339;203.339;0;121;1;1;0.0728877;-0.867534;-1.56193;0.0723538;-0.865726;-1.54606;1;-0.0719238;-0.250399;-1.04459;1;4.24703;1.36776;1.16609;0.00585935;fp_not_a_fp;-1;0.205524;
192898;2146.445801;404;202;22.7825;4.47214;0.0430893;468;404.232;201.218;0;122;1;1;0.0731983;-0.87123;-1.56859;0.0726704;-0.867984;-1.55431;1;-0.0436237;-0.242547;-0.992208;1;3.6247;1.61371;4.72706;0.00930391;fp_not_a_fp;-1;0.205507;
192899;2146.456927;404;202;22.6406;2.82843;0.0200454;114;404.158;201.293;0;123;1;1;0.0736568;-0.876688;-1.57841;0.0730245;-0.870681;-1.56338;1;-0.0211074;-0.270932;-0.956648;1;2.94397;1.05601;4.76087;0.00592118;fp_not_a_fp;-1;0.205476;
192900;2146.468055;402;200;22.529;2.82843;0.0949856;252;404.107;201.417;0;124;1;1;0.0823726;-0.87399;-1.59096;0.0755289;-0.872361;-1.57497;1;0.0907982;-0.217183;-0.963727;1;4.50219;1.74005;1.56817;0.00595051;fp_not_a_fp;-1;0.20552;
192901;2146.479183;402;200;22.4958;4.47214;0.0430893;391;401.799;199.269;0;125;1;1;0.0824943;-0.875281;-1.59331;0.0779305;-0.874297;-1.58282;1;0.126858;-0.182065;-0.870663;1;4.46601;1.53517;3.90754;0.00942247;fp_not_a_fp;-1;0.205493;
192902;2146.490310;402;200;22.3196;2.82843;0.0200454;103;401.693;199.326;0;126;1;1;0.0831454;-0.88219;-1.60588;0.0804173;-0.877038;-1.59214;1;0.133044;-0.223526;-0.865314;1;3.96921;0.427263;2.85084;0.00600634;fp_not_a_fp;-1;0.205497;
192903;2146.501437;402;200;22.1407;2;0.0560952;262;401.69;199.44;0;127;1;1;0.0838173;-0.889319;-1.61886;0.0829574;-0.880195;-1.60225;1;0.126332;-0.293862;-0.901477;1;3.3125;-0.515261;1.23937;0.00428144;fp_not_a_fp;-1;0.20549;
192904;2146.512565;402;198;22.115;4.47214;0.0957771;253;401.73;199.56;0;128;1;1;0.0838493;-0.883234;-1.62552;0.0833266;-0.882506;-1.61089;1;0.107811;-0.215706;-0.87776;1;0.382191;0.0329902;1.93124;0.00958471;fp_not_a_fp;-1;0.205534;
192905;2146.523692;400;198;21.9323;2.82843;0.0734134;101;401.811;197.42;0;129;1;1;0.093192;-0.890539;-1.6391;0.086001;-0.886321;-1.62234;1;0.193501;-0.239631;-0.911687;1;1.49731;-1.29346;-0.921742;0.00611242;fp_not_a_fp;-1;0.205519;
192906;2146.534820;400;198;21.809;4;0.0262928;378;399.595;197.436;0;130;1;1;0.0937187;-0.895572;-1.64836;0.0886443;-0.889666;-1.63296;1;0.210269;-0.276643;-0.915605;1;1.73508;-1.19351;-1.12994;0.00869311;fp_not_a_fp;-1;0.205525;
192907;2146.545948;400;196;21.8391;2.82843;0.0686958;75;399.555;197.515;0;131;1;1;0.0935233;-0.88713;-1.65093;0.0910708;-0.889119;-1.64098;1;0.18814;-0.159887;-0.829849;1;1.38873;3.00979;1.60913;0.00613849;fp_not_a_fp;-1;0.205505;
192908;2146.557075;398;196;21.6376;2.82843;0.0744;137;399.593;195.331;0;132;1;1;0.103156;-0.895339;-1.66635;0.0958976;-0.892145;-1.65118;1;0.265419;-0.185338;-0.865282;1;3.54108;0.682125;0.280222;0.00619568;fp_not_a_fp;-1;0.205505;
192909;2146.568202;398;196;21.4758;2.82843;0.0150773;368;397.389;195.373;0;133;1;1;0.103933;-0.902081;-1.67889;0.0985828;-0.89503;-1.66113;1;0.272406;-0.249499;-0.913391;1;1.77283;-0.221928;-0.0384383;0.00624233;fp_not_a_fp;-1;0.205532;
192910;2146.579330;398;196;21.36;2;0.0573769;40;397.412;195.472;0;134;1;1;0.104497;-0.906975;-1.688;0.101277;-0.897881;-1.67104;1;0.247011;-0.300288;-0.921174;1;0.825571;-0.531336;-0.125263;0.00443793;fp_not_a_fp;-1;0.20551;
192911;2146.590457;396;194;21.321;2.82843;0.0798435;119;397.498;195.58;0;135;1;1;0.113512;-0.901192;-1.69608;0.106275;-0.901396;-1.68233;1;0.308346;-0.216686;-0.899467;1;2.70078;-1.27607;-1.56413;0.00628766;fp_not_a_fp;-1;0.205504;
192912;2146.601584;396;194;21.2064;2.82843;0.00501688;337;395.322;193.434;0;136;1;1;0.114125;-0.906061;-1.70524;0.109017;-0.904077;-1.69205;1;0.301394;-0.21031;-0.88081;1;0.808318;-0.560985;-0.348898;0.00632163;fp_not_a_fp;-1;0.205479;
192913;2146.612713;394;194;21.2751;2.82843;0.0522137;43;395.364;193.444;0;137;1;1;0.122668;-0.90308;-1.69978;0.1137;-0.904327;-1.69727;1;0.357995;-0.14669;-0.698113;1;1.92289;2.30984;4.8364;0.00630123;fp_not_a_fp;-1;0.205499;
192914;2146.623840;394;194;21.1147;2;0.0510787;136;393.181;193.515;0;138;1;1;0.1236;-0.909941;-1.71269;0.118476;-0.905069;-1.70345;1;0.346406;-0.180332;-0.68159;1;2.23303;2.69495;5.38249;0.00448949;fp_not_a_fp;-1;0.205526;
192915;2146.634967;394;192;20.8244;2.82843;0.060611;271;393.212;193.61;0;139;1;1;0.125253;-0.915065;-1.74164;0.121411;-0.908537;-1.71484;1;0.316385;-0.229975;-0.919643;1;0.180482;-0.298729;-0.453759;0.00643759;fp_not_a_fp;-1;0.205497;
192916;2146.646094;392;192;20.967;2.82843;0.0491831;35;393.364;191.458;0;140;1;1;0.133443;-0.908784;-1.72983;0.126241;-0.909218;-1.72098;1;0.357505;-0.149153;-0.765365;1;1.26053;1.37386;2.59329;0.00639381;fp_not_a_fp;-1;0.205492;
192917;2146.657222;390;192;20.6593;2.82843;0.0503998;137;391.222;191.454;0;141;1;1;0.144607;-0.922263;-1.75563;0.131726;-0.914013;-1.73495;1;0.456864;-0.251223;-0.899773;1;2.22112;-2.34843;-4.53062;0.00648905;fp_not_a_fp;-1;0.205517;
192918;2146.668349;390;192;20.5243;2;0.035534;190;389.028;191.532;0;142;1;1;0.145559;-0.92833;-1.76718;0.137216;-0.918611;-1.74857;1;0.450557;-0.330911;-0.972949;1;2.33981;-3.38294;-6.54592;0.00461863;fp_not_a_fp;-1;0.205531;
192919;2146.679476;390;192;20.5142;2;0.0316546;12;389.07;191.623;0;143;1;1;0.14563;-0.928786;-1.76805;0.14231;-0.922041;-1.75517;1;0.391302;-0.326863;-0.88904;1;1.68295;-2.17661;0.687859;0.0046209;fp_not_a_fp;-1;0.205509;
192920;2146.690604;388;192;20.4057;2;0.0677406;99;389.202;191.738;0;144;1;1;0.155695;-0.933666;-1.77749;0.147873;-0.928261;-1.76709;1;0.432266;-0.339424;-0.849163;1;1.67939;-4.27466;-1.88251;0.00464547;fp_not_a_fp;-1;0.205505;
192921;2146.701732;388;190;20.2722;2.82843;0.0807732;181;387.118;191.819;0;145;1;1;0.156649;-0.93205;-1.79441;0.150883;-0.930708;-1.77678;1;0.404997;-0.282799;-0.918307;1;-1.16543;-0.709412;-0.416453;0.00661296;fp_not_a_fp;-1;0.205491;
192922;2146.712859;386;190;20.0556;2.82843;0.0586618;23;387.225;189.602;0;146;1;1;0.167794;-0.942054;-1.81383;0.156442;-0.934139;-1.78844;1;0.469818;-0.338005;-1.05231;1;0.43267;-0.159387;-1.78322;0.00668437;fp_not_a_fp;-1;0.205518;
192923;2146.723987;386;190;19.8531;4.47214;0.0708503;113;385.1;189.563;0;147;1;1;0.169506;-0.951666;-1.83233;0.162411;-0.939859;-1.80451;1;0.456305;-0.427882;-1.1856;1;1.46043;-2.26948;-6.66287;0.0106767;fp_not_a_fp;-1;0.205462;
192924;2146.735114;386;190;19.8612;2.82843;0.00760487;96;385.164;189.605;0;148;1;1;0.169437;-0.951279;-1.83159;0.165846;-0.944262;-1.81804;1;0.391727;-0.406009;-1.08091;1;-0.910776;-1.49585;-5.20655;0.00674983;fp_not_a_fp;-1;0.205483;
192925;2146.746241;384;190;19.6072;2.82843;0.0494033;24;385.323;189.67;0;149;1;1;0.181301;-0.963541;-1.85536;0.172009;-0.952135;-1.83328;1;0.451071;-0.485742;-1.17223;1;1.0352;-4.55943;-5.70474;0.00683726;fp_not_a_fp;-1;0.205472;
192926;2146.757369;384;190;19.5282;2;0.0392195;134;383.211;189.773;0;150;1;1;0.182033;-0.967434;-1.86285;0.175569;-0.95848;-1.84553;1;0.426458;-0.501362;-1.14638;1;-0.974142;-3.67;-2.11318;0.0048542;fp_not_a_fp;-1;0.205535;
192927;2146.768497;384;190;19.4541;2;0.0354735;73;383.29;189.844;0;151;1;1;0.182727;-0.97112;-1.86995;0.178874;-0.963343;-1.85494;1;0.369842;-0.48612;-1.07084;1;-1.94258;-1.30841;2.57849;0.0048727;fp_not_a_fp;-1;0.205504;
192928;2146.779624;384;188;19.2492;2;0.0991393;26;383.413;189.893;0;152;1;1;0.184597;-0.973282;-1.89535;0.182665;-0.968844;-1.87088;1;0.320711;-0.442602;-1.19418;1;-1.5955;-0.822115;-2.54477;0.00492458;fp_not_a_fp;-1;0.20548;
192929;2146.790752;382;188;19.2259;2.82843;0.0680251;144;383.543;187.656;0;153;1;1;0.194681;-0.974396;-1.89768;0.18601;-0.971558;-1.88146;1;0.375082;-0.38093;-1.11956;1;-1.70735;2.35476;1.18309;0.00697283;fp_not_a_fp;-1;0.205516;
192930;2146.801879;382;188;19.2841;2.82843;0.00760487;20;381.41;187.596;0;154;1;1;0.194094;-0.971459;-1.89196;0.189025;-0.972564;-1.88874;1;0.342982;-0.273187;-0.880357;1;-1.87562;5.12644;5.97682;0.00695181;fp_not_a_fp;-1;0.205497;
192931;2146.813006;382;188;19.1297;2.82843;0.00377537;19;381.422;187.621;0;155;1;1;0.195661;-0.979298;-1.90723;0.192258;-0.974609;-1.89805;1;0.303922;-0.283672;-0.844212;1;-1.48119;4.54841;5.09165;0.00700791;fp_not_a_fp;-1;0.205481;
192932;2146.824134;382;188;19.0223;2;0.0392195;141;381.506;187.683;0;156;1;1;0.196765;-0.984826;-1.91799;0.1953;-0.977495;-1.90372;1;0.261674;-0.315183;-0.844993;1;-1.32648;2.86276;7.84521;0.0049833;fp_not_a_fp;-1;0.205512;
192933;2146.835261;382;188;19.0223;2;0.0392195;141;381.604;187.78;1;0;1;1;0.199591;-0.988151;-1.9269;0.196528;-0.980933;-1.91102;1;0.243226;-0.326121;-0.83961;1;-2.9624;1.23151;6.28994;-1;fp_not_a_fp;-1;0.205507;
192934;2146.846389;382;186;18.3312;2.82843;0.102706;14;381.274;187.597;0;1;1;1;0.204105;-1.01337;-1.99607;0.19903;-0.991411;-1.93705;1;0.256322;-0.578107;-1.52319;1;-1.94696;-6.85071;-14.4427;0.00731317;fp_not_a_fp;-1;0.205506;
192935;2146.857517;382;186;18.5112;2.82843;0.0155558;106;381.802;185.623;0;2;1;1;0.20212;-1.00352;-1.97666;0.200645;-0.997465;-1.9544;1;0.206293;-0.495569;-1.38895;1;-2.19329;-4.76088;-12.239;0.00724206;fp_not_a_fp;-1;0.205473;
192936;2146.868644;382;186;18.5112;2.82843;0.0155558;106;381.876;185.58;1;0;1;1;0.204277;-1.00932;-1.99285;0.202523;-1.00359;-1.97312;1;0.184028;-0.464738;-1.34188;1;-1.7444;-3.36026;-11.1639;-1;fp_not_a_fp;-1;0.205527;
192937;2146.879771;384;186;18.3504;0;0.234911;8;381.782;185.143;0;1;1;1;0.19356;-1.01237;-1.99394;0.201015;-1.00964;-1.98988;1;0.0285076;-0.427785;-1.16376;1;-4.82408;-2.28426;-7.28296;0;fp_not_a_fp;-1;0.205491;
192938;2146.890899;384;186;18.3093;4;0.0718428;71;384.226;185.67;0;2;1;1;0.193995;-1.01465;-1.99842;0.198488;-1.00996;-1.99047;1;-0.0344179;-0.384007;-0.99303;1;-6.53196;4.36069;11.9107;0.0103548;fp_not_a_fp;-1;0.205503;
192939;2146.902026;384;186;18.3093;4;0.0718428;71;384.33;185.785;1;0;1;1;0.193209;-1.01865;-2.00871;0.19626;-1.01375;-1.99848;1;-0.0650391;-0.362759;-0.913864;1;-6.09603;2.98383;10.6736;-1;fp_not_a_fp;-1;0.205492;
192940;2146.913153;384;184;18.1369;2.82843;0.105843;6;384.705;185.615;0;1;1;1;0.195758;-1.01561;-2.02323;0.19413;-1.01532;-2.00607;1;-0.0401748;-0.272913;-0.930984;1;-5.03716;4.30974;9.2314;0.0073915;fp_not_a_fp;-1;0.205509;
192941;2146.924282;384;184;18.1124;2.82843;0.0155558;36;384.302;183.63;0;2;1;1;0.196024;-1.01699;-2.02597;0.194746;-1.01647;-2.01408;1;-0.0217312;-0.216765;-0.850771;1;-1.12866;4.74088;7.03153;0.00740153;fp_not_a_fp;-1;0.205518;
192942;2146.935409;386;184;18.1191;0;0.168473;2;384.2;183.585;0;3;1;1;0.185488;-1.01668;-2.02518;0.19262;-1.01698;-2.02077;1;-0.132113;-0.162342;-0.699968;1;-2.19506;4.98016;6.58429;0;fp_not_a_fp;-1;0.205526;
192943;2146.946536;386;184;17.5998;2;0.0172826;15;386.412;183.619;0;4;1;1;0.19096;-1.04667;-2.08493;0.192058;-1.02399;-2.03983;1;-0.0981477;-0.46298;-1.23327;1;-0.743954;-2.25178;-7.17634;0.00538608;fp_not_a_fp;-1;0.205482;
192944;2146.957664;386;184;17.6655;2;0.0127079;16;386.431;183.695;0;5;1;1;0.19025;-1.04278;-2.07717;0.190681;-1.03078;-2.05331;1;-0.0797327;-0.48355;-1.20748;1;-0.888887;-4.7325;-6.21235;0.00536603;fp_not_a_fp;-1;0.205496;
192945;2146.968791;386;184;17.6655;2;0.0127079;16;386.396;183.786;1;0;1;1;0.189309;-1.04844;-2.09097;0.189002;-1.03864;-2.06956;1;-0.0727364;-0.49531;-1.201;1;-1.14604;-6.25812;-7.86867;-1;fp_not_a_fp;-1;0.205519;
192946;2146.979918;388;182;17.4185;2;0.159134;5;386.778;183.61;0;1;1;1;0.181982;-1.0486;-2.11265;0.188125;-1.04662;-2.09143;1;-0.144566;-0.438794;-1.29366;1;-0.279819;-6.21112;-13.3387;0.00544216;fp_not_a_fp;-1;0.205504;
192947;2146.991046;388;182;17.4185;2;0.159134;5;388.514;181.619;1;0;1;1;0.180358;-1.05386;-2.12785;0.185475;-1.04842;-2.10216;1;-0.17442;-0.419748;-1.34114;1;-1.71364;0.971322;-2.42352;-1;fp_not_a_fp;-1;0.205508;
192948;2147.002173;388;182;17.0238;2;0.135245;4;389.091;181.148;0;1;1;1;0.1862;-1.07291;-2.16163;0.184462;-1.05595;-2.12328;1;-0.0975395;-0.576709;-1.57691;1;-0.399993;-2.09315;-8.30004;0.00556832;fp_not_a_fp;-1;0.205511;
192949;2147.013301;390;182;17.3683;0;0.148993;4;388.453;181.608;0;2;1;1;0.171592;-1.0517;-2.11871;0.180033;-1.05677;-2.13021;1;-0.220782;-0.32488;-0.981224;1;-3.32612;3.82901;4.93769;0;fp_not_a_fp;-1;0.205503;
192950;2147.024429;390;182;17.3683;0;0.148993;4;390.625;181.684;1;0;1;1;0.168933;-1.05507;-2.12931;0.176771;-1.05839;-2.13437;1;-0.274024;-0.218035;-0.731363;1;-2.90841;4.95957;12.6328;-1;fp_not_a_fp;-1;0.205504;
192951;2147.035556;390;182;17.3683;0;0.148993;4;391.304;181.429;2;0;1;1;0.165709;-1.05719;-2.13666;0.173109;-1.05922;-2.13658;1;-0.298034;-0.170331;-0.619033;1;-2.77714;5.60347;16.2233;-1;fp_not_a_fp;-1;0.205511;
192952;2147.046683;390;182;17.3683;0;0.148993;4;392.007;181.2;3;0;1;1;0.162226;-1.05874;-2.14253;0.167115;-1.05567;-2.1318;1;-0.309866;-0.146621;-0.56102;1;-4.77032;9.66276;22.8239;-1;fp_not_a_fp;-1;0.205504;
192953;2147.057811;390;182;17.3683;0;0.148993;4;392.739;180.973;4;0;1;1;0.158489;-1.05977;-2.14736;0.16384;-1.05769;-2.13896;1;-0.318069;-0.129958;-0.520789;1;-2.18567;4.37916;10.3442;-1;fp_not_a_fp;-1;0.205493;
192954;2147.068938;390;182;17.3683;0;0.148993;4;393.46;180.744;5;0;1;1;0.15482;-1.06094;-2.15251;0.160311;-1.05916;-2.14476;1;-0.322947;-0.11995;-0.496751;1;-1.09916;2.20369;5.27107;-1;fp_not_a_fp;-1;0.205481;
192955;2147.080065;390;182;17.3683;0;0.148993;4;394.175;180.516;6;0;1;1;0.151164;-1.06214;-2.1577;0.156675;-1.0604;-2.15002;1;-0.325683;-0.114233;-0.482995;1;-0.621197;1.26035;3.05636;-1;fp_not_a_fp;-1;0.20547;
192956;2147.091193;390;182;17.3683;0;0.148993;4;394.888;180.29;7;0;1;1;0.147507;-1.06333;-2.16288;0.152995;-1.06154;-2.15511;1;-0.327192;-0.110956;-0.475061;1;-0.38927;0.801264;1.93122;-1;fp_not_a_fp;-1;0.205507;
192957;2147.102321;390;182;17.3683;0;0.148993;4;395.598;180.064;8;0;1;1;0.143847;-1.06451;-2.16804;0.149334;-1.06273;-2.16028;1;-0.328028;-0.109014;-0.470324;1;-0.22375;0.470558;1.13382;-1;fp_not_a_fp;-1;0.205517;
192958;2147.113448;390;182;17.3683;0;0.148993;4;396.305;179.84;9;0;1;1;0.140189;-1.0657;-2.17319;0.145677;-1.06392;-2.16545;1;-0.32847;-0.107857;-0.467477;1;-0.124085;0.271679;0.657693;-1;fp_not_a_fp;-1;0.205495;
192959;2147.124575;390;182;17.3683;0;0.148993;4;397.009;179.617;10;0;1;1;0.136531;-1.06688;-2.17835;0.142019;-1.0651;-2.17061;1;-0.32868;-0.107167;-0.465752;1;-0.0673286;0.158741;0.387378;-1;fp_not_a_fp;-1;0.205487;
192960;2147.135704;390;182;17.3683;0;0.148993;4;397.71;179.394;11;0;1;1;0.132875;-1.06806;-2.1835;0.138361;-1.06629;-2.17577;1;-0.32875;-0.10675;-0.464676;1;-0.034997;0.0944858;0.233307;-1;fp_not_a_fp;-1;0.205529;
192961;2147.146831;390;182;17.3683;0;0.148993;4;398.408;179.173;12;0;1;1;0.12922;-1.06924;-2.18865;0.134704;-1.06747;-2.18092;1;-0.328744;-0.106493;-0.463981;1;-0.0160877;0.0566181;0.142506;-1;fp_not_a_fp;-1;0.205524;
192962;2147.157958;390;182;17.3683;0;0.148993;4;399.102;178.953;13;0;1;1;0.125567;-1.07042;-2.19379;0.131048;-1.06865;-2.18607;1;-0.328693;-0.10633;-0.463511;1;-0.00499941;0.0343216;0.0891052;-1;fp_not_a_fp;-1;0.205498;
192963;2147.169086;390;182;17.3683;0;0.148993;4;399.794;178.733;14;0;1;1;0.121914;-1.0716;-2.19894;0.127394;-1.06983;-2.19122;1;-0.328611;-0.106219;-0.463163;1;0.00154224;0.0213071;0.0581773;-1;fp_not_a_fp;-1;0.205493;
192964;2147.180213;390;182;17.3683;0;0.148993;4;400.482;178.515;15;0;1;1;0.118263;-1.07278;-2.20408;0.123741;-1.07101;-2.19636;1;-0.328517;-0.106138;-0.462892;1;0.0052402;0.0137684;0.0400752;-1;fp_not_a_fp;-1;0.205512;
192965;2147.191340;390;182;17.3683;0;0.148993;4;401.168;178.297;16;0;1;1;0.114613;-1.07396;-2.20922;0.120089;-1.07219;-2.20151;1;-0.328413;-0.106077;-0.462669;1;0.00743642;0.00936295;0.0294748;-1;fp_not_a_fp;-1;0.205478;
192966;2147.202468;390;182;17.3683;0;0.148993;4;401.85;178.081;17;0;1;1;0.110964;-1.07513;-2.21436;0.116439;-1.07337;-2.20665;1;-0.328301;-0.106024;-0.462465;1;0.00879811;0.00687159;0.0235008;-1;fp_not_a_fp;-1;0.205543;
192967;2147.213595;-1;-1;-1;-1;-1;-1;402.529;177.865;18;0;0;1;0.110964;-1.07513;-2.21436;0.116439;-1.07337;-2.20665;1;-0.328301;-0.106024;-0.462465;1;0.00879811;0.00687159;0.0235008;-1;fp_not_a_fp;-1;0.205477;
192968;2147.224723;-1;-1;-1;-1;-1;-1;402.529;177.865;19;0;0;1;0.110964;-1.07513;-2.21436;0.116439;-1.07337;-2.20665;1;-0.328301;-0.106024;-0.462465;1;0.00879811;0.00687159;0.0235008;-1;fp_not_a_fp;-1;0.205522;
