rs_id;elapsed;imLx_insect;imLy_insect;disparity_insect;size_insect;score_insect;motion_sum_insect;imLx_pred_insect;imLy_pred_insect;n_frames_lost_insect;n_frames_tracking_insect;foundL_insect;pos_valid_insect;posX_insect;posY_insect;posZ_insect;sposX_insect;sposY_insect;sposZ_insect;vel_valid_insect;svelX_insect;svelY_insect;svelZ_insect;acc_valid_insect;saccX_insect;saccY_insect;saccZ_insect;radius_insect;fp;hunt_id;light_level;
41526;462.064629;510;178;18.4557;2.82843;0;29;-1;-1;0;1;1;1;-0.41072;-0.918462;-2.03185;-0.41072;-0.918462;-2.03185;0;0;0;0;0;0;0;0;0.00728156;fp_not_a_fp;-1;0.227122;
41527;462.075757;510;178;18.4557;2.82843;0;29;510;178;1;0;1;1;-0.41072;-0.918462;-2.03185;-0.41072;-0.918462;-2.03185;1;-6.83246e-07;0;0;0;0;0;0;-1;fp_short_detection;-1;0.227143;
41528;462.086884;510;178;18.4557;2.82843;0;29;510;178;2;0;1;1;-0.41072;-0.918462;-2.03185;-0.41072;-0.918462;-2.03185;1;-8.78459e-07;0;0;0;-1.75441e-05;0;0;-1;fp_short_detection;-1;0.227142;
41529;462.098011;504;178;18.3585;2.82843;0.257179;21;510;178;0;1;1;1;-0.381839;-0.92357;-2.04245;-0.4035;-0.919739;-2.0345;1;0.331064;-0.0585581;-0.121516;0;14.8766;-2.63135;-5.46044;0.0073201;fp_not_a_fp;-1;0.227159;
41530;462.109139;504;178;18.3585;2.82843;0.257179;21;503.24;178;1;0;1;1;-0.378161;-0.924221;-2.0438;-0.39536;-0.921179;-2.03748;1;0.467817;-0.0827467;-0.171711;0;14.014;-2.47878;-5.14382;-1;fp_short_detection;-1;0.227148;
41531;462.120266;500;178;18.6752;2;0.160783;10;502.169;178;0;1;1;1;-0.355013;-0.908072;-2.00771;-0.381433;-0.918581;-2.03145;1;0.730006;0.102924;0.243057;0;16.4012;2.31245;5.46089;0.00508833;fp_not_a_fp;-1;0.227132;
41532;462.131393;500;178;18.6752;2;0.160783;10;498.496;178;1;0;1;1;-0.346902;-0.906929;-2.00501;-0.365479;-0.915698;-2.02474;1;0.838224;0.179636;0.41442;1;18.8326;4.03598;9.31098;-1;fp_short_detection;-1;0.227143;
41533;462.142521;500;178;18.6752;2;0.160783;10;496.605;178;2;0;1;1;-0.336426;-0.904683;-1.99984;-0.354125;-0.910976;-2.01409;1;0.896111;0.21416;0.491744;1;12.6948;6.12726;13.7784;-1;fp_short_detection;-1;0.227118;
41534;462.153648;494;178;17.6556;0;0.173434;12;494.687;178;0;1;1;1;-0.343223;-0.960768;-2.1235;-0.345391;-0.920113;-2.03402;1;0.727816;-0.441781;-0.956534;1;5.84143;-8.06662;-17.633;0;fp_not_a_fp;-1;0.227123;
41535;462.164775;494;178;17.6556;0;0.173434;12;492.088;178;1;0;1;1;-0.334775;-0.966174;-2.13521;-0.340331;-0.934639;-2.06589;1;0.662268;-0.718488;-1.56736;1;-1.52202;-18.4552;-40.6758;-1;fp_short_detection;-1;0.227136;
41536;462.175904;490;178;18.5384;0;0.156907;6;490.184;178;0;1;1;1;-0.306376;-0.915177;-2.02227;-0.3302;-0.936701;-2.0702;1;0.876222;-0.156668;-0.325323;1;0.853186;-7.55714;-16.6229;0;fp_not_a_fp;-1;0.227105;
41537;462.187031;488;176;18.7951;2.82843;0.0744796;19;487.956;178;0;2;1;1;-0.291985;-0.894235;-2.00004;-0.31909;-0.934089;-2.07025;1;1.01784;0.335562;0.484298;1;2.73463;2.72661;-0.169587;0.00715007;fp_not_a_fp;-1;0.227111;
41538;462.198158;486;178;18.5309;0;0.128033;8;485.902;175.706;0;3;1;1;-0.285988;-0.915708;-2.02298;-0.304781;-0.922824;-2.04513;1;1.01528;0.250032;0.494124;1;6.45821;15.5423;32.5902;0;fp_not_a_fp;-1;0.227111;
41539;462.209286;484;176;18.5585;2.82843;0.0744796;34;483.927;177.919;0;4;1;1;-0.275226;-0.905795;-2.02543;-0.289894;-0.907729;-2.01768;1;1.00808;0.296423;0.407116;1;7.76911;22.8015;44.3596;0.00724123;fp_not_a_fp;-1;0.227131;
41540;462.220413;482;176;18.4596;2;0.0519042;7;481.925;175.717;0;5;1;1;-0.266407;-0.910732;-2.03623;-0.279902;-0.906618;-2.02117;1;0.977618;0.221193;0.195368;1;2.27818;8.4897;11.6991;0.00514776;fp_not_a_fp;-1;0.227131;
41541;462.231540;480;176;18.9596;2.82843;0.0336431;24;479.957;175.678;0;6;1;1;-0.249357;-0.886791;-1.98248;-0.269245;-0.904757;-2.01678;1;1.03578;0.436332;0.699157;1;0.403066;2.26407;4.82774;0.00708802;fp_not_a_fp;3;0.227136;
41542;462.242668;478;176;18.6479;2;0.0517753;19;477.912;175.725;0;7;1;1;-0.243334;-0.901695;-2.01556;-0.258581;-0.901253;-2.01492;1;0.996738;0.29876;0.438938;1;-0.41651;1.09507;-1.23899;0.00509574;fp_not_a_fp;3;0.227129;
41543;462.253795;476;176;19.0222;0;0.0758013;9;475.957;175.756;0;8;1;1;-0.228556;-0.884034;-1.97586;-0.246913;-0.895813;-2.00253;1;1.02287;0.406249;0.730551;1;0.332459;2.46793;7.26764;0;fp_not_a_fp;3;0.227125;
41544;462.264923;474;174;18.9012;2.82843;0.14919;70;473.921;175.826;0;9;1;1;-0.219869;-0.881294;-1.99386;-0.235279;-0.888453;-1.99194;1;1.00277;0.430253;0.551537;1;0.565303;4.69746;8.00306;0.00710991;fp_not_a_fp;3;0.227114;
41545;462.276051;470;174;18.7284;2.82843;0.143908;12;471.941;173.585;0;10;1;1;-0.201604;-0.889587;-2.01216;-0.223341;-0.889153;-1.99936;1;1.07592;0.29024;0.197492;1;0.90186;-3.28174;-11.2698;0.00717552;fp_not_a_fp;3;0.227093;
41546;462.287178;470;174;18.8064;2;0.0121772;64;467.687;173.547;0;11;1;1;-0.200768;-0.8859;-2.00382;-0.212699;-0.885204;-1.99642;1;0.978499;0.237624;0.121589;1;-0.409961;-1.37327;-7.12921;0.00505283;fp_not_a_fp;3;0.227136;
41547;462.298305;468;174;18.9849;2;0.0161588;13;467.894;173.586;0;12;1;1;-0.18887;-0.877648;-1.98492;-0.202778;-0.883608;-1.99869;1;0.949815;0.280159;0.291296;1;-1.64152;-2.83267;-9.86829;0.00500531;fp_not_a_fp;3;0.227155;
41548;462.309433;466;172;18.9337;2.82843;0.106125;34;465.978;173.652;0;13;1;1;-0.179249;-0.871639;-1.99564;-0.192623;-0.881194;-1.99913;1;0.927089;0.330883;0.201477;1;-1.7006;-2.23245;-7.86412;0.00709772;fp_not_a_fp;3;0.227147;
41549;462.320560;464;170;18.8923;2.82843;0.081877;62;464.026;171.468;0;14;1;1;-0.169488;-0.865151;-2.00537;-0.184594;-0.875085;-1.99744;1;0.911331;0.384013;0.0270349;1;-3.698;2.10673;-3.82959;0.00711328;fp_not_a_fp;3;0.227151;
41550;462.331687;460;170;18.8184;2.82843;0.108703;36;462.076;169.173;0;15;1;1;-0.149957;-0.868711;-2.01315;-0.171891;-0.870788;-1.99977;1;1.01247;0.316181;-0.137681;1;0.763338;1.76486;-5.82503;0.00714122;fp_not_a_fp;3;0.227142;
41551;462.342816;460;168;19.1239;2.82843;0.095965;136;457.775;169.162;0;16;1;1;-0.147468;-0.846455;-1.98633;-0.16154;-0.862989;-2.00012;1;0.953657;0.50292;0.119203;1;0.0865198;5.00437;-3.86689;0.00702712;fp_not_a_fp;3;0.227119;
41552;462.353943;458;168;18.9313;2.82843;0.0624791;29;457.929;166.959;0;17;1;1;-0.13893;-0.855147;-2.0065;-0.151461;-0.858866;-2.00284;1;0.905584;0.416298;-0.0209578;1;-0.483016;1.91863;-4.99818;0.00709863;fp_not_a_fp;3;0.227139;
41553;462.365070;456;168;19.2363;2.82843;0.0546049;44;456.035;167.056;0;18;1;1;-0.126847;-0.841666;-1.97463;-0.1408;-0.852995;-1.99515;1;0.908708;0.481938;0.289067;1;-0.0587886;2.19967;5.88654;0.00698608;fp_not_a_fp;3;0.227131;
41554;462.376198;454;166;19.3342;2.82843;0.0506531;120;454.031;167.23;0;19;1;1;-0.116284;-0.829198;-1.96987;-0.132382;-0.843117;-1.98433;1;0.915175;0.590498;0.434828;1;-2.18589;6.16263;12.862;0.00695072;fp_not_a_fp;3;0.227095;
41555;462.387325;452;166;19.4389;2.82843;0.0388411;36;452.054;165.108;0;20;1;1;-0.105881;-0.824809;-1.95921;-0.121985;-0.837705;-1.97755;1;0.920363;0.610361;0.561804;1;-0.748076;2.4137;9.94382;0.00691327;fp_not_a_fp;3;0.227126;
41556;462.398452;450;166;19.4292;2;0.0634118;121;450.014;165.204;0;21;1;1;-0.0961526;-0.825299;-1.96014;-0.111291;-0.830243;-1.96597;1;0.91663;0.535103;0.531963;1;0.248153;2.66908;12.4225;0.00489086;fp_not_a_fp;3;0.227141;
41557;462.409580;448;164;19.4654;2.82843;0.0556785;32;447.996;165.348;0;22;1;1;-0.0861187;-0.815609;-1.9617;-0.101109;-0.823729;-1.96273;1;0.913178;0.546815;0.433998;1;0.100418;1.45744;3.25618;0.00690384;fp_not_a_fp;3;0.227167;
41558;462.420707;446;164;19.3857;4.47214;0.0879958;43;445.984;163.195;0;23;1;1;-0.0766697;-0.81904;-1.96971;-0.0912055;-0.82119;-1.96269;1;0.90359;0.44257;0.24624;1;-0.260274;-3.32364;-4.23698;0.0109608;fp_not_a_fp;3;0.227105;
41559;462.431834;444;164;19.3013;2;0.0707849;110;443.992;163.275;0;24;1;1;-0.067159;-0.822702;-1.97828;-0.0815251;-0.820663;-1.96746;1;0.893397;0.301068;0.0390211;1;-0.605853;-6.94914;-11.7456;0.00492327;fp_not_a_fp;3;0.227113;
41560;462.442963;440;162;19.4815;2.82843;0.0874197;36;442.004;163.402;0;25;1;1;-0.0469361;-0.807021;-1.96513;-0.0692209;-0.816093;-1.9687;1;1.00703;0.383927;0.0992019;1;2.03075;-3.39685;-9.72313;0.00689813;fp_not_a_fp;3;0.227123;
41561;462.454090;440;162;19.4449;2.82843;5.81129e-05;60;437.697;161.235;0;26;1;1;-0.0470246;-0.808543;-1.96883;-0.0594474;-0.814327;-1.97049;1;0.924523;0.351746;0.0689241;1;0.254673;-4.38297;-8.20256;0.00691114;fp_not_a_fp;3;0.227098;
41562;462.465217;438;162;19.0941;2;0.0675439;45;437.909;161.3;0;27;1;1;-0.0379355;-0.823475;-2.00495;-0.0497638;-0.815436;-1.9793;1;0.876694;0.122416;-0.366402;1;-0.60455;-7.19337;-13.7649;0.00497669;fp_not_a_fp;3;0.227098;
41563;462.476345;436;160;19.362;4.47214;0.110879;55;436.046;161.428;0;28;1;1;-0.0275033;-0.803885;-1.98244;-0.0398499;-0.810731;-1.98034;1;0.864678;0.236566;-0.241559;1;-0.645464;-1.4497;-6.30448;0.0109742;fp_not_a_fp;3;0.227119;
41564;462.487472;434;158;19.4591;2.82843;0.0458753;97;434.055;159.255;0;29;1;1;-0.0175082;-0.79172;-1.97776;-0.0324929;-0.806906;-1.9835;1;0.863997;0.393012;-0.105463;1;-3.21349;0.203874;-4.59868;0.00690609;fp_not_a_fp;3;0.227123;
41565;462.498599;432;158;19.4933;4.47214;0.087363;41;432.085;157.021;0;30;1;1;-0.00772839;-0.790409;-1.97424;-0.0226689;-0.802373;-1.98485;1;0.865618;0.422566;0.00454545;1;-1.32344;1.59089;-1.44681;0.0109003;fp_not_a_fp;3;0.227145;
41566;462.509727;430;158;19.4934;2.82843;0.0411219;43;430.052;157.048;0;31;1;1;0.00202072;-0.790481;-1.97418;-0.0126798;-0.794124;-1.97715;1;0.867624;0.380059;0.0501471;1;-0.203753;5.7885;9.35852;0.00689393;fp_not_a_fp;3;0.227129;
41567;462.520854;428;156;19.466;2.82843;0.0531897;87;428.029;157.18;0;32;1;1;0.011878;-0.783443;-1.98216;-0.00283452;-0.789014;-1.97708;1;0.870782;0.394694;-0.0289427;1;0.137143;3.55287;4.7769;0.00690365;fp_not_a_fp;3;0.227148;
41568;462.531981;426;156;19.4825;2.82843;0.045745;61;426.02;155.085;0;33;1;1;0.0216224;-0.782855;-1.98043;0.00694813;-0.786797;-1.97775;1;0.872721;0.357132;-0.0380942;1;0.195984;-0.806078;1.51349;0.00689779;fp_not_a_fp;3;0.227142;
41569;462.543108;424;156;19.5018;2.82843;0.0339677;62;424.011;155.194;0;34;1;1;0.0313459;-0.782159;-1.97843;0.0167167;-0.784735;-1.9788;1;0.873665;0.304041;-0.0140233;1;0.180797;-2.6629;-0.417303;0.00689098;fp_not_a_fp;3;0.227149;
41570;462.554236;424;154;19.4689;4.47214;0.113229;49;422.005;155.342;0;35;1;1;0.0314904;-0.775252;-1.98702;0.0240841;-0.780928;-1.98201;1;0.764276;0.322482;-0.100798;1;-2.32181;-1.29364;-3.39126;0.010914;fp_not_a_fp;3;0.227154;
41571;462.565364;422;154;19.5374;2;0.0878279;56;422.294;153.201;0;36;1;1;0.0411072;-0.772612;-1.98001;0.0313914;-0.77822;-1.98147;1;0.731821;0.319238;-0.043403;1;-3.12194;-1.69534;-0.324766;0.00486377;fp_not_a_fp;3;0.227162;
41572;462.576491;420;154;19.6299;2.82843;0.0414313;59;420.368;153.274;0;37;1;1;0.0505946;-0.769045;-1.97062;0.0386345;-0.774767;-1.97902;1;0.73382;0.318065;0.0934482;1;-3.12058;-0.87776;2.9556;0.00684598;fp_not_a_fp;3;0.227131;
41573;462.587619;418;154;19.7721;2;0.0824222;73;418.344;153.394;0;38;1;1;0.0598424;-0.763591;-1.9564;0.0457586;-0.770126;-1.97351;1;0.747045;0.339522;0.301055;1;-2.8447;0.797091;7.07877;0.00480603;fp_not_a_fp;3;0.22713;
41574;462.598746;416;152;19.6139;4.47214;0.102243;73;416.278;153.519;0;39;1;1;0.0701051;-0.76166;-1.97735;0.0554123;-0.766727;-1.97109;1;0.77487;0.327227;0.108364;1;0.23803;0.106534;4.6988;0.0108333;fp_not_a_fp;3;0.227126;
41575;462.609873;414;152;19.6473;4.47214;0.0641906;57;414.2;151.379;0;40;1;1;0.0796586;-0.760442;-1.97394;0.0650501;-0.763685;-1.96958;1;0.797046;0.294371;0.0539923;1;1.46543;-0.558767;2.1877;0.0108149;fp_not_a_fp;3;0.227152;
41576;462.621001;414;152;19.9169;0;0.129688;42;412.135;151.4;0;41;1;1;0.0785805;-0.750149;-1.94722;0.0720466;-0.758961;-1.96373;1;0.692188;0.36122;0.330874;1;-0.935213;0.969413;5.33336;0;fp_not_a_fp;3;0.227148;
41577;462.632128;412;150;19.8538;2.82843;0.0562532;37;412.356;151.478;0;42;1;1;0.0884921;-0.744541;-1.95851;0.079209;-0.754198;-1.96425;1;0.674181;0.407062;0.273671;1;-1.63689;1.51734;-0.615839;0.0067688;fp_not_a_fp;3;0.227119;
41578;462.643255;408;150;19.6156;2.82843;0.0861333;36;410.414;149.29;0;43;1;1;0.108943;-0.753735;-1.98219;0.0889186;-0.752217;-1.96547;1;0.815183;0.268691;-0.0563756;1;0.905949;-1.3153;-3.70182;0.00685099;fp_not_a_fp;3;0.227147;
41579;462.654383;408;150;19.6619;2.82843;0.001955;97;406.115;149.346;0;44;1;1;0.108687;-0.75196;-1.97753;0.0961756;-0.750096;-1.96636;1;0.766537;0.197575;-0.132089;1;-0.685134;-2.17478;-4.18118;0.00683486;fp_not_a_fp;3;0.227131;
41580;462.665510;404;150;20.1144;2;0.122499;26;406.256;149.447;0;45;1;1;0.125138;-0.735191;-1.93294;0.107815;-0.746357;-1.96279;1;0.837239;0.335211;0.364589;1;3.25912;-0.584205;0.757704;0.00472423;fp_not_a_fp;3;0.227128;
41581;462.676637;404;148;19.9525;2.82843;0.0774695;34;401.916;149.549;0;46;1;1;0.126243;-0.73313;-1.95375;0.117253;-0.743504;-1.9616;1;0.772335;0.372963;0.284749;1;2.20539;-0.765948;0.249058;0.00673531;fp_not_a_fp;3;0.227127;
41582;462.687765;402;148;19.6763;4.47214;0.0818817;67;402.107;147.397;0;47;1;1;0.137673;-0.743497;-1.98113;0.124435;-0.740945;-1.96134;1;0.778014;0.222172;-0.0983234;1;-0.835039;-1.04464;-0.941415;0.0107989;fp_not_a_fp;3;0.227139;
41583;462.698892;398;148;19.6513;2.82843;0.0760475;35;400.221;147.421;0;48;1;1;0.15719;-0.744597;-1.98355;0.136561;-0.739104;-1.96284;1;0.904851;0.118901;-0.271921;1;3.10758;-1.76725;-3.14083;0.00683855;fp_not_a_fp;3;0.227141;
41584;462.710019;396;146;19.8586;2.82843;0.0558424;105;395.92;147.502;0;49;1;1;0.165208;-0.728832;-1.96794;0.146578;-0.737514;-1.97159;1;0.933766;0.241776;-0.130026;1;2.16868;-2.09897;-11.1121;0.00676714;fp_not_a_fp;3;0.227106;
41585;462.721147;394;146;19.8357;2.82843;0.0255653;30;393.818;145.309;0;50;1;1;0.17498;-0.729752;-1.97017;0.158763;-0.736669;-1.9757;1;0.938623;0.251173;-0.080374;1;3.73612;-2.73608;-8.20279;0.00677498;fp_not_a_fp;3;0.227159;
41586;462.732275;392;146;19.8531;2.82843;0.0322226;76;391.776;145.35;0;51;1;1;0.184399;-0.729187;-1.9684;0.170444;-0.733092;-1.97252;1;0.928878;0.229487;-0.029245;1;3.38958;0.164273;1.55185;0.00676904;fp_not_a_fp;3;0.227128;
41587;462.743402;390;144;19.8553;2.82843;0.0525737;76;389.782;145.449;0;52;1;1;0.19404;-0.721114;-1.97328;0.179657;-0.727221;-1.96995;1;0.916883;0.283798;-0.0603535;1;0.270314;3.70482;4.75327;0.00676828;fp_not_a_fp;3;0.227148;
41588;462.754530;388;144;19.6646;4.47214;0.0778316;66;387.843;143.272;0;53;1;1;0.205585;-0.728182;-1.99236;0.189751;-0.727059;-1.97605;1;0.927311;0.189031;-0.284242;1;-0.14505;-1.18486;-3.4645;0.0108053;fp_not_a_fp;3;0.227153;
41589;462.765656;386;144;19.9088;2;0.0746686;114;385.914;143.332;0;54;1;1;0.21261;-0.719327;-1.96788;0.199158;-0.724453;-1.97548;1;0.893865;0.227261;-0.0598649;1;-1.00567;-0.536988;0.461415;0.00477304;fp_not_a_fp;3;0.227134;
41590;462.776784;384;142;20.0535;2.82843;0.0558694;38;383.919;143.431;0;55;1;1;0.220641;-0.706223;-1.95873;0.208219;-0.718712;-1.97306;1;0.858092;0.364285;0.145389;1;-1.59045;3.02881;3.92419;0.00670138;fp_not_a_fp;3;0.227144;
41591;462.787912;380;142;19.7912;2.82843;0.0794527;95;381.923;141.254;0;56;1;1;0.242769;-0.715734;-1.98459;0.220401;-0.717367;-1.97589;1;0.987499;0.265437;-0.0847346;1;1.58632;-0.412166;-0.546805;0.00679018;fp_not_a_fp;3;0.227151;
41592;462.799039;380;142;19.6943;2.82843;0.0104146;95;377.681;141.32;0;57;1;1;0.243965;-0.719259;-1.99436;0.229996;-0.715136;-1.97639;1;0.928727;0.150325;-0.28106;1;0.0315868;-0.86943;0.0720253;0.00682362;fp_not_a_fp;3;0.227136;
41593;462.810166;376;140;19.805;2.82843;0.0834735;69;377.911;141.433;0;58;1;1;0.261883;-0.707302;-1.98828;0.242315;-0.71213;-1.98149;1;0.991374;0.220641;-0.256639;1;2.19061;-0.148558;-4.42067;0.00678549;fp_not_a_fp;3;0.227144;
41594;462.821294;374;140;19.7041;2.82843;0.0299442;91;373.719;139.263;0;59;1;1;0.272869;-0.711;-1.99841;0.255371;-0.713324;-1.99141;1;1.01673;0.179169;-0.329951;1;3.56402;-4.15881;-10.6792;0.00682022;fp_not_a_fp;3;0.227146;
41595;462.832421;372;140;19.7715;2;0.0711711;49;371.695;139.323;0;60;1;1;0.28155;-0.708651;-1.99155;0.265067;-0.711553;-1.99315;1;0.997043;0.166099;-0.23949;1;0.214396;-2.23176;-3.47675;0.00480618;fp_not_a_fp;3;0.227145;
41596;462.843548;370;138;19.7357;2.82843;0.0495901;113;369.742;139.43;0;61;1;1;0.29178;-0.701896;-2.0003;0.27702;-0.707213;-1.99464;1;0.979002;0.216946;-0.271796;1;1.12953;1.49689;0.208351;0.0068093;fp_not_a_fp;3;0.227164;
41597;462.854676;368;138;19.9681;2.82843;0.025894;113;367.769;137.263;0;62;1;1;0.297901;-0.693802;-1.97697;0.286025;-0.703838;-1.99181;1;0.916837;0.30307;0.0169473;1;-1.67465;1.85194;6.14668;0.00673003;fp_not_a_fp;3;0.227162;
41598;462.865803;364;136;19.9935;4.47214;0.13118;83;365.813;137.31;0;63;1;1;0.316622;-0.685058;-1.97947;0.296963;-0.697352;-1.98707;1;0.988796;0.400235;0.105407;1;-0.627584;4.96669;9.78114;0.0106276;fp_not_a_fp;3;0.22715;
41599;462.876930;364;136;20.2557;2.82843;5.80602e-05;114;361.567;135.129;0;64;1;1;0.312525;-0.676193;-1.95385;0.304707;-0.689237;-1.97765;1;0.845444;0.490964;0.42216;1;-3.40605;7.29883;14.8654;0.0066345;fp_not_a_fp;3;0.227165;
41600;462.888058;362;136;20.24;2;0.0755645;97;361.78;135.155;0;65;1;1;0.322157;-0.676792;-1.95532;0.312301;-0.682961;-1.9664;1;0.788766;0.458967;0.482376;1;-4.27401;5.43762;16.944;0.00469492;fp_not_a_fp;3;0.227152;
41601;462.899185;358;134;19.9926;2.82843;0.0788569;112;359.903;135.312;0;66;1;1;0.345243;-0.677304;-1.98454;0.324137;-0.678837;-1.9683;1;0.929381;0.381333;0.11087;1;0.28193;1.75844;2.11006;0.00672181;fp_not_a_fp;3;0.227128;
41602;462.910313;358;134;19.9756;2;0.0428369;167;355.703;133.182;0;67;1;1;0.345538;-0.677882;-1.98623;0.331366;-0.677043;-1.96999;1;0.872323;0.29399;-0.0761991;1;-2.61674;-2.387;-4.08037;0.00475708;fp_not_a_fp;3;0.227143;
41603;462.921441;356;132;19.796;4.47214;0.102998;69;355.976;133.265;0;68;1;1;0.358362;-0.676015;-2.00936;0.342825;-0.676998;-1.98386;1;0.884478;0.241785;-0.408981;1;0.877157;-5.59832;-18.6734;0.0107336;fp_not_a_fp;3;0.227132;
41604;462.932568;352;132;19.8932;2.82843;0.076472;124;354.081;131.117;0;69;1;1;0.375717;-0.672862;-1.99945;0.356215;-0.676016;-1.99489;1;0.975619;0.225517;-0.380646;1;4.19815;-5.24498;-19.3896;0.0067554;fp_not_a_fp;3;0.227104;
41605;462.943695;352;130;19.8806;2.82843;0.0704173;153;349.818;131.161;0;70;1;1;0.376044;-0.66523;-2.00585;0.363915;-0.672998;-2.00022;1;0.892595;0.277518;-0.39384;1;-0.826584;-2.33233;-11.3391;0.00675966;fp_not_a_fp;3;0.2271;
41606;462.954822;350;130;19.8307;4.47214;0.0819005;51;350.051;129.036;0;71;1;1;0.386575;-0.666983;-2.01086;0.374175;-0.670273;-2.00638;1;0.865152;0.24352;-0.406458;1;-0.161239;-1.13382;-7.41959;0.0107149;fp_not_a_fp;3;0.227096;
41607;462.965950;346;130;19.7603;2.82843;0.0877953;144;348.116;129.108;0;72;1;1;0.407186;-0.669508;-2.01792;0.38638;-0.668646;-2.00852;1;0.979694;0.169462;-0.440731;1;2.13893;-1.62473;-0.713304;0.0068008;fp_not_a_fp;3;0.227089;
41608;462.977077;346;128;19.7979;2.82843;0.0806005;86;343.851;129.284;0;73;1;1;0.406503;-0.660146;-2.01925;0.394077;-0.665467;-2.01347;1;0.89424;0.22456;-0.413973;1;-1.82875;-0.0213175;-0.748732;0.00678788;fp_not_a_fp;3;0.227097;
41609;462.988204;342;128;19.6842;2.82843;0.0817133;118;344.07;127.162;0;74;1;1;0.428159;-0.664112;-2.03082;0.407106;-0.665187;-2.01971;1;0.993114;0.173232;-0.482676;1;2.25814;-2.34289;-1.99584;0.00682707;fp_not_a_fp;3;0.227105;
41610;462.999332;342;128;19.7692;2.82843;0.00700431;136;339.853;127.254;0;75;1;1;0.426319;-0.661257;-2.02209;0.417041;-0.663756;-2.02252;1;0.886207;0.162647;-0.349441;1;0.472955;-1.81684;1.2809;0.00679775;fp_not_a_fp;3;0.227063;
41611;463.010459;340;128;19.9287;2;0.073673;80;340.052;127.382;0;76;1;1;0.432443;-0.65604;-2.00585;0.423356;-0.660389;-2.0195;1;0.799187;0.197331;-0.0637327;1;-4.05541;0.626194;8.46998;0.00476825;fp_not_a_fp;3;0.227048;
41612;463.021586;336;128;19.649;2;0.124744;150;338.147;127.511;0;77;1;1;0.457944;-0.665533;-2.03432;0.436216;-0.661735;-2.02327;1;0.953616;0.0776644;-0.2638;1;1.33433;-3.30046;3.37362;0.00483613;fp_not_a_fp;3;0.227025;
41613;463.032714;336;126;19.6721;2.82843;0.0751861;117;333.886;127.666;0;78;1;1;0.457496;-0.656608;-2.03712;0.44355;-0.65986;-2.02485;1;0.89067;0.120603;-0.345005;1;-2.30124;-1.18262;3.09287;0.00683132;fp_not_a_fp;3;0.226954;
41614;463.043841;334;126;19.6017;2.82843;0.0175777;91;334.097;125.485;0;79;1;1;0.468834;-0.659043;-2.04439;0.454179;-0.659306;-2.03042;1;0.881019;0.09506;-0.417845;1;-0.116291;-1.51871;-1.53695;0.00685585;fp_not_a_fp;3;0.226944;
41615;463.054968;332;126;19.7606;4.47214;0.074528;140;332.152;125.478;0;80;1;1;0.474682;-0.65382;-2.0279;0.464739;-0.658751;-2.03593;1;0.831688;0.132247;-0.205676;1;0.730477;-1.46249;-3.18918;0.0107529;fp_not_a_fp;3;0.226908;
41616;463.066096;330;124;19.8312;2.82843;0.0568143;124;330.139;125.537;0;81;1;1;0.482665;-0.643491;-2.02579;0.470919;-0.653241;-2.0338;1;0.796726;0.249136;-0.0675801;1;-3.52473;3.85226;4.40846;0.00677651;fp_not_a_fp;3;0.226885;
41617;463.077224;328;124;20.0406;2.82843;0.0229181;50;328.143;123.332;0;82;1;1;0.487103;-0.63684;-2.00457;0.478321;-0.648299;-2.02567;1;0.731529;0.341901;0.241367;1;-3.57545;4.97181;13.174;0.0067057;fp_not_a_fp;3;0.226879;
41618;463.088351;326;124;19.9272;2.82843;0.0217044;112;326.073;123.357;0;83;1;1;0.499413;-0.640542;-2.01594;0.485966;-0.643674;-2.01855;1;0.752394;0.294194;0.207966;1;-2.88982;4.47382;14.0601;0.00674386;fp_not_a_fp;3;0.226911;
41619;463.099479;324;124;19.888;2.82843;0.0183311;94;324.05;123.456;0;84;1;1;0.509952;-0.641879;-2.01986;0.494783;-0.640688;-2.01654;1;0.785844;0.221633;0.122699;1;-1.03;2.00822;7.37767;0.00675712;fp_not_a_fp;3;0.226925;
41620;463.110605;322;124;19.6372;4.47214;0.0708998;61;322.035;123.566;0;85;1;1;0.526143;-0.650153;-2.04561;0.505653;-0.642354;-2.0215;1;0.885033;0.0685232;-0.223354;1;1.98407;-4.05793;-3.50002;0.0108204;fp_not_a_fp;3;0.22695;
41621;463.121733;320;124;19.6498;2.82843;0.0167325;105;320.052;123.703;0;86;1;1;0.535478;-0.649814;-2.04425;0.517747;-0.645597;-2.03142;1;0.920148;0.000393656;-0.322336;1;4.23784;-7.67282;-12.6651;0.00683907;fp_not_a_fp;3;0.227024;
41622;463.132861;318;124;19.7163;2.82843;0.0174592;69;318.047;123.795;0;87;1;1;0.543311;-0.647699;-2.03731;0.528721;-0.647386;-2.03676;1;0.907073;-0.00356191;-0.242532;1;3.47529;-6.68979;-10.1218;0.006816;fp_not_a_fp;3;0.227043;
41623;463.143988;316;124;19.6611;2.82843;0.0186087;91;316.034;123.858;0;88;1;1;0.554502;-0.649594;-2.04298;0.539859;-0.649315;-2.04254;1;0.914259;-0.0264647;-0.243629;1;2.88527;-5.57426;-8.23088;0.00683514;fp_not_a_fp;3;0.227061;
41624;463.155115;314;124;19.767;2.82843;0.0171631;116;314.034;123.903;0;89;1;1;0.561145;-0.646188;-2.03198;0.548609;-0.648324;-2.03913;1;0.876756;0.00648267;-0.0869374;1;-0.185968;-1.39387;3.06487;0.00679851;fp_not_a_fp;3;0.22711;
41625;463.166243;314;124;19.7513;2.82843;0.0137306;59;312.015;123.934;0;90;1;1;0.561591;-0.646703;-2.0336;0.555137;-0.647546;-2.03647;1;0.754547;0.0133718;-0.0296404;1;-3.72039;0.291592;6.57596;0.00680393;fp_not_a_fp;3;0.227114;
41626;463.177370;310;124;19.8479;2.82843;0.0839203;107;312.297;123.955;0;91;1;1;0.578009;-0.643708;-2.02361;0.563812;-0.646548;-2.03304;1;0.795995;0.0488505;0.112358;1;-2.49541;1.17759;7.97349;0.00677082;fp_not_a_fp;3;0.227162;
41627;463.188497;310;124;19.72;2;0.0497116;104;308.078;123.969;0;92;1;1;0.581756;-0.647881;-2.03673;0.570625;-0.64612;-2.03148;1;0.75455;0.00944082;0.00631827;1;-3.58805;0.806684;5.61559;0.00481871;fp_not_a_fp;3;0.22718;
41628;463.199625;308;124;19.9152;2.82843;0.0131399;34;308.28;123.979;0;93;1;1;0.585596;-0.641605;-2.01671;0.576738;-0.644974;-2.02766;1;0.68519;0.0638827;0.191088;1;-4.30365;1.28949;6.24599;0.0067479;fp_not_a_fp;3;0.227133;
41629;463.210752;304;124;19.858;2.82843;0.080703;126;306.306;123.986;0;94;1;1;0.606423;-0.643606;-2.02243;0.587946;-0.6442;-2.02487;1;0.807879;0.0553018;0.177562;1;1.1984;0.941927;4.6549;0.00676733;fp_not_a_fp;3;0.227179;
41630;463.221879;304;124;19.6673;2;0.0463322;123;301.966;123.991;0;95;1;1;0.612303;-0.649846;-2.04204;0.59652;-0.645735;-2.02948;1;0.822937;-0.0268306;-0.0754583;1;0.605485;-1.70051;-4.22022;0.00483162;fp_not_a_fp;3;0.227171;
41631;463.233007;302;124;19.7995;4;0.0560015;23;302.171;123.994;0;96;1;1;0.617814;-0.645583;-2.02836;0.605534;-0.64516;-2.02739;1;0.787358;-0.00849368;-0.0135841;1;0.737346;-0.403078;-0.447612;0.00959877;fp_not_a_fp;3;0.227168;
41632;463.244134;300;124;19.7161;2.82843;0.00807689;112;300.181;123.996;0;97;1;1;0.630067;-0.648391;-2.03689;0.616652;-0.646857;-2.03243;1;0.81268;-0.0320152;-0.0840944;1;2.86448;-2.15461;-6.18272;0.00681606;fp_not_a_fp;3;0.227203;
41633;463.255261;298;124;19.8122;2;0.0467406;48;298.178;123.997;0;98;1;1;0.636604;-0.645323;-2.02696;0.624197;-0.647286;-2.03356;1;0.794421;-0.00248076;0.0112717;1;-0.302341;-1.29824;-3.73616;0.00479633;fp_not_a_fp;3;0.227158;
41634;463.266390;294;124;19.5679;2;0.111183;39;296.173;123.998;0;99;1;1;0.663972;-0.65353;-2.05216;0.637114;-0.648207;-2.03609;1;0.999244;-0.0840302;-0.239579;1;3.96081;-1.28498;-3.68692;0.00485617;fp_not_a_fp;3;0.227158;
41635;463.277516;294;124;19.4902;2;0.0332784;122;291.862;123.999;0;100;1;1;0.666622;-0.656138;-2.06035;0.649316;-0.650846;-2.04409;1;0.986809;-0.136907;-0.406559;1;4.48072;-2.88499;-8.82876;0.00487558;fp_not_a_fp;3;0.227193;
41636;463.288644;292;124;19.6681;2;0.0306181;34;292.038;123.999;0;101;1;1;0.670255;-0.65028;-2.04167;0.659363;-0.651318;-2.04529;1;0.89745;-0.0741491;-0.209547;1;1.90414;-0.94652;-2.81823;0.00483147;fp_not_a_fp;3;0.227154;
41637;463.299772;290;124;19.6076;4;0.0631206;84;290.087;123.999;0;102;1;1;0.682014;-0.652362;-2.04792;0.670716;-0.653078;-2.05053;1;0.880839;-0.0626192;-0.173009;1;1.94121;-1.35107;-4.14004;0.00969271;fp_not_a_fp;3;0.227181;
41638;463.310899;288;122;19.5758;2.82843;0.0735151;135;288.111;124;0;103;1;1;0.692921;-0.645315;-2.05642;0.677953;-0.651024;-2.05159;1;0.886641;0.0309102;-0.233272;1;-2.5299;2.58234;0.141472;0.00686494;fp_not_a_fp;3;0.227194;
41639;463.322026;286;124;19.4451;2;0.111464;36;286.138;121.715;0;104;1;1;0.70726;-0.657968;-2.06493;0.688113;-0.651481;-2.05273;1;0.940322;-0.0794231;-0.326031;1;-1.04438;1.29144;1.80916;0.00488687;fp_not_a_fp;3;0.227183;
41640;463.333154;284;124;19.7266;2;0.0359551;105;284.113;123.919;0;105;1;1;0.7068;-0.648654;-2.03541;0.697249;-0.651075;-2.05117;1;0.83729;-0.00812789;0.0155735;1;-1.35139;1.48312;5.05711;0.0048171;fp_not_a_fp;3;0.227195;
41641;463.344281;284;122;19.5991;2.82843;0.080359;115;282.056;124.013;0;106;1;1;0.711489;-0.6447;-2.05387;0.704617;-0.649159;-2.05266;1;0.741664;0.0676906;-0.0568373;1;-3.12672;2.92757;2.60933;0.00685674;fp_not_a_fp;3;0.227187;
41642;463.355408;282;122;19.5166;2.82843;0.031702;43;282.335;121.764;0;107;1;1;0.724235;-0.647504;-2.06251;0.712446;-0.649707;-2.05418;1;0.753659;0.0582533;-0.178514;1;-2.98757;0.614167;1.22947;0.00688571;fp_not_a_fp;3;0.227168;
41643;463.366536;278;124;19.5648;2;0.136106;139;280.41;121.725;0;108;1;1;0.741786;-0.654249;-2.0521;0.721077;-0.648777;-2.05097;1;0.863656;-0.0303882;-0.0867204;1;-1.7225;1.10171;5.37579;0.00485692;fp_not_a_fp;3;0.227167;
41644;463.377663;278;122;19.5172;2.82843;0.0861797;108;276.096;123.996;0;109;1;1;0.743686;-0.647637;-2.06234;0.730299;-0.648523;-2.05771;1;0.820741;0.0126424;-0.155163;1;-0.372018;0.466812;-3.83624;0.00688553;fp_not_a_fp;3;0.227176;
41645;463.388790;276;122;19.5038;2.82843;0.0240498;41;276.249;121.824;0;110;1;1;0.753943;-0.648161;-2.06371;0.740913;-0.649388;-2.06017;1;0.815895;0.0228084;-0.179396;1;1.66762;-1.00826;-2.75379;0.00689027;fp_not_a_fp;3;0.227146;
41646;463.399917;274;122;19.4266;2.82843;0.0203742;149;274.249;121.807;0;111;1;1;0.766721;-0.650814;-2.07187;0.751534;-0.650215;-2.06251;1;0.8563;-0.00630814;-0.259959;1;2.30592;-1.4504;-1.83;0.00691766;fp_not_a_fp;3;0.227184;
41647;463.411045;272;122;19.4423;2.82843;0.0159247;74;272.225;121.825;0;112;1;1;0.775876;-0.650365;-2.07014;0.760057;-0.649244;-2.06702;1;0.868713;-0.0123919;-0.240336;1;0.113615;0.404343;-3.45139;0.00691203;fp_not_a_fp;3;0.227153;
41648;463.422173;270;124;19.3338;2;0.108274;49;270.216;121.823;0;113;1;1;0.789969;-0.662378;-2.07642;0.771627;-0.65293;-2.07054;1;0.924575;-0.151034;-0.273561;1;2.33286;-3.67736;-2.66014;0.00491498;fp_not_a_fp;3;0.227154;
41649;463.433299;268;122;19.3384;2.82843;0.0929126;129;268.166;124.16;0;114;1;1;0.799701;-0.654016;-2.08117;0.783067;-0.654393;-2.0749;1;0.941296;-0.0932028;-0.306809;1;2.81744;-2.60641;-2.86271;0.00694922;fp_not_a_fp;3;0.227165;
41650;463.444427;268;122;19.2999;2.82843;0.0114881;49;266.123;121.996;0;115;1;1;0.801294;-0.655319;-2.08532;0.79171;-0.65552;-2.07826;1;0.846407;-0.0723511;-0.328947;1;-0.222097;-1.48379;-1.55;0.00696305;fp_not_a_fp;3;0.227164;
41651;463.455554;264;124;19.2106;2;0.145974;75;266.377;121.928;0;116;1;1;0.824712;-0.66686;-2.08959;0.803919;-0.659644;-2.08313;1;0.967675;-0.186809;-0.345108;1;2.22367;-3.91874;-2.35396;0.00494648;fp_not_a_fp;3;0.227172;
41652;463.466682;264;122;19.249;2.82843;0.0829167;112;262.163;124.191;0;117;1;1;0.823159;-0.657208;-2.09073;0.812217;-0.658351;-2.0867;1;0.876565;-0.0996409;-0.320884;1;-1.0784;1.15462;-1.06323;0.00698144;fp_not_a_fp;3;0.227155;
41653;463.477810;262;122;19.283;2.82843;0.0230757;23;262.329;121.963;0;118;1;1;0.831564;-0.656128;-2.087;0.820182;-0.658879;-2.08816;1;0.823438;-0.0385229;-0.227129;1;-2.64765;1.22833;1.79011;0.00696913;fp_not_a_fp;3;0.227162;
41654;463.488937;260;124;19.0558;2;0.110029;78;260.357;121.903;0;119;1;1;0.851358;-0.672436;-2.10646;0.832698;-0.663158;-2.09345;1;0.923353;-0.195289;-0.382555;1;1.7289;-2.76223;-1.2046;0.00498668;fp_not_a_fp;3;0.227172;
41655;463.500064;258;122;18.9518;4.47214;0.145516;89;258.315;124.173;0;120;1;1;0.866152;-0.667753;-2.12337;0.843058;-0.663382;-2.10189;1;1.01646;-0.181491;-0.591789;1;1.09614;0.1194;-5.54253;0.0112118;fp_not_a_fp;3;0.227163;
41656;463.511192;258;122;19.2097;2;0.0392195;12;256.296;121.951;0;121;1;1;0.854521;-0.658786;-2.09485;0.850899;-0.663776;-2.10292;1;0.791965;-0.0498555;-0.275944;1;-1.9002;1.11821;1.00883;0.00494669;fp_not_a_fp;3;0.227125;
41657;463.522319;254;122;19.0845;2.82843;0.096091;119;256.475;121.894;0;122;1;1;0.880044;-0.663267;-2.1085;0.863019;-0.665561;-2.1083;1;0.890759;-0.0404621;-0.266659;1;1.51304;-0.0438129;-0.888836;0.00704167;fp_not_a_fp;3;0.227139;
41658;463.533446;254;122;18.9649;2.82843;0.00760485;44;252.228;121.885;0;123;1;1;0.885593;-0.667449;-2.12179;0.871578;-0.664314;-2.11213;1;0.881569;-0.079354;-0.381192;1;-0.93825;2.60449;0.0298645;0.00708602;fp_not_a_fp;3;0.227138;
41659;463.544574;252;122;19.0003;2.82843;0.0181168;15;252.386;121.865;0;124;1;1;0.893946;-0.666285;-2.11779;0.878526;-0.663947;-2.11074;1;0.861072;-0.0719685;-0.334045;1;-3.4906;2.46041;5.79009;0.00707282;fp_not_a_fp;3;0.22714;
41660;463.555701;250;122;18.9629;2.82843;0.0181133;117;250.398;121.905;0;125;1;1;0.90573;-0.667678;-2.12192;0.891328;-0.66617;-2.1175;1;0.877855;-0.0757034;-0.319234;1;1.9298;-0.580765;-0.972751;0.0070868;fp_not_a_fp;3;0.227117;
41661;463.566828;248;122;18.8993;2.82843;0.0155167;37;248.329;121.934;0;126;1;1;0.918837;-0.670007;-2.12902;0.901027;-0.667855;-2.12263;1;0.923065;-0.0942859;-0.353757;1;0.725882;-1.20932;-1.95704;0.0071107;fp_not_a_fp;3;0.227107;
41662;463.577957;246;122;18.6359;2.82843;0.0105347;32;246.296;121.954;0;127;1;1;0.942021;-0.679557;-2.15906;0.915134;-0.670882;-2.13195;1;1.08975;-0.199407;-0.667217;1;4.677;-2.6971;-6.42575;0.00721114;fp_not_a_fp;3;0.227123;
41663;463.589084;244;122;18.6989;2.82843;0.00853892;115;244.24;121.969;0;128;1;1;0.949006;-0.677345;-2.15172;0.928899;-0.673647;-2.14043;1;1.0997;-0.192051;-0.627556;1;5.36103;-2.69775;-6.59385;0.00718685;fp_not_a_fp;3;0.227106;
41664;463.600211;244;122;18.7161;2.82843;5.80391e-05;40;242.176;121.978;0;129;1;1;0.948138;-0.676725;-2.14975;0.939501;-0.675909;-2.14739;1;0.953591;-0.157411;-0.508555;1;1.70114;-1.83554;-4.25287;0.00718023;fp_not_a_fp;3;0.227126;
41665;463.611339;240;122;18.8119;4.47214;0.137334;21;242.411;121.985;0;130;1;1;0.963515;-0.673439;-2.1387;0.95067;-0.676767;-2.14981;1;0.947827;-0.085354;-0.267874;1;0.555883;0.200771;1.9298;0.0112952;fp_not_a_fp;3;0.227117;
41666;463.622466;240;122;18.6628;2.82843;0.00355195;95;238.167;121.99;0;131;1;1;0.971208;-0.678816;-2.15578;0.957967;-0.676582;-2.14899;1;0.912736;-0.106328;-0.329994;1;-3.97715;2.09114;7.57617;0.00720074;fp_not_a_fp;3;0.227142;
41667;463.633593;238;122;18.5118;2.82843;0.0191126;34;238.344;121.993;0;132;1;1;0.989398;-0.684436;-2.17332;0.968065;-0.678354;-2.15439;1;0.990328;-0.165849;-0.514601;1;-2.45739;0.588552;2.53735;0.00725948;fp_not_a_fp;3;0.227113;
41668;463.644721;236;122;18.411;4.47214;0.0637196;47;236.386;121.995;0;133;1;1;1.00514;-0.688265;-2.18516;0.982315;-0.681239;-2.16324;1;1.07649;-0.213188;-0.661064;1;2.76108;-1.25324;-3.42675;0.0115411;fp_not_a_fp;3;0.227147;
41669;463.655849;234;122;18.41;2.82843;0.0254527;93;234.332;121.997;0;134;1;1;1.01552;-0.688385;-2.18523;0.995315;-0.684976;-2.17488;1;1.09376;-0.206932;-0.638063;1;3.27854;-2.73149;-8.31699;0.00729963;fp_not_a_fp;3;0.227143;
41670;463.666975;232;122;18.5247;2.82843;0.0247594;20;232.3;121.998;0;135;1;1;1.01949;-0.684204;-2.17165;1.00739;-0.686323;-2.17884;1;1.0069;-0.130021;-0.391473;1;2.11552;-0.532229;-1.38096;0.00725444;fp_not_a_fp;3;0.227108;
41671;463.678104;230;124;18.3409;2;0.130017;53;230.207;121.999;0;136;1;1;1.03997;-0.699874;-2.18778;1.02003;-0.690182;-2.18246;1;1.0773;-0.261263;-0.424495;1;1.95358;-2.14333;2.0249;0.005181;fp_not_a_fp;3;0.227141;
41672;463.689230;230;122;18.4536;2.82843;0.0854147;62;228.166;124.28;0;137;1;1;1.03371;-0.686919;-2.17996;1.02717;-0.689846;-2.18116;1;0.897273;-0.13367;-0.294349;1;-4.02687;1.78697;8.23944;0.0072824;fp_not_a_fp;3;0.227131;
41673;463.700358;228;124;18.2327;2;0.124873;13;228.393;122.082;0;138;1;1;1.05656;-0.704112;-2.20072;1.03743;-0.693778;-2.18503;1;0.970398;-0.260977;-0.440983;1;-2.7719;-1.21382;4.42817;0.00521182;fp_not_a_fp;3;0.227115;
41674;463.711486;224;124;18.354;2.82843;0.0999618;53;226.464;124.267;0;139;1;1;1.07029;-0.699623;-2.18607;1.05013;-0.697632;-2.18863;1;1.03417;-0.22884;-0.277429;1;0.612141;-2.21988;2.56215;0.00732186;fp_not_a_fp;3;0.22712;
41675;463.722613;224;122;18.1751;2.82843;0.0804825;45;222.138;124.314;0;140;1;1;1.08092;-0.697693;-2.2132;1.06037;-0.697087;-2.19499;1;1.05045;-0.164248;-0.485507;1;-0.603387;2.17976;-1.37106;0.00739392;fp_not_a_fp;3;0.227151;
41676;463.733740;222;124;18.1618;2;0.117915;12;222.289;121.977;0;141;1;1;1.09208;-0.707109;-2.20915;1.07496;-0.702135;-2.20229;1;1.05114;-0.224542;-0.463097;1;3.45682;-2.04167;-3.79174;0.00523221;fp_not_a_fp;3;0.227145;
41677;463.744868;220;124;18.16;2.82843;0.0158459;39;220.283;124.153;0;142;1;1;1.10265;-0.707262;-2.20932;1.08649;-0.702922;-2.20444;1;1.03853;-0.222567;-0.396664;1;1.53067;0.862924;0.9952;0.00740006;fp_not_a_fp;3;0.227145;
41678;463.755995;218;124;18.0185;2.82843;0.0148847;33;218.245;124.177;0;143;1;1;1.12186;-0.712898;-2.22661;1.09938;-0.706241;-2.21457;1;1.12101;-0.25798;-0.516861;1;1.95114;-0.654696;-5.37971;0.00745824;fp_not_a_fp;3;0.227116;
41679;463.767123;218;124;18.0185;2.82843;0.0148847;33;216.248;124.163;1;0;1;1;1.13443;-0.715805;-2.23269;1.11276;-0.710769;-2.21944;1;1.15627;-0.27303;-0.570247;1;2.37742;-2.44406;-1.90409;-1;fp_not_a_fp;3;0.227132;
41680;463.778251;214;124;18.1402;2.82843;0.0639411;76;214.472;124.353;0;1;1;1;1.13528;-0.70828;-2.21156;1.12356;-0.711062;-2.22005;1;1.03307;-0.158166;-0.27745;1;-0.405663;1.49104;4.17024;0.00740817;fp_not_a_fp;3;0.227164;
41681;463.789377;212;124;18.2574;2.82843;0.0181564;34;212.131;124.125;0;2;1;1;1.1384;-0.703817;-2.19732;1.13249;-0.7102;-2.21705;1;0.886194;-0.0393618;0.0422392;1;-3.42247;4.11602;9.86068;0.00736066;fp_not_a_fp;3;0.227127;
41682;463.800505;210;126;17.5681;2;0.102167;14;210.068;124.082;0;3;1;1;1.19379;-0.740636;-2.27766;1.15048;-0.717135;-2.22981;1;1.34732;-0.407297;-0.751968;1;5.08465;-3.35488;-5.28251;0.005409;fp_not_a_fp;3;0.227119;
41683;463.811633;208;124;17.6718;2.82843;0.093713;55;208.118;126.328;0;4;1;1;1.19764;-0.727311;-2.27003;1.16628;-0.720011;-2.23914;1;1.41018;-0.354678;-0.896824;1;5.70469;-1.83462;-7.33731;0.00760458;fp_not_a_fp;3;0.227117;
41684;463.822760;208;124;17.829;2;0.0316547;20;206.088;124.113;0;5;1;1;1.18708;-0.720898;-2.25001;1.17923;-0.723166;-2.24875;1;1.13523;-0.214177;-0.612847;1;2.29492;-1.25834;-7.53478;0.00532984;fp_not_a_fp;3;0.22715;
41685;463.833887;204;126;17.7779;2;0.146868;15;206.339;124.008;0;6;1;1;1.21177;-0.732148;-2.25061;1.19757;-0.730249;-2.26208;1;1.15981;-0.257752;-0.424226;1;6.14724;-4.90669;-10.4799;0.00534516;fp_not_a_fp;-1;0.227141;
41686;463.845014;204;126;17.5963;4;0.0578316;42;202.137;126.243;0;7;1;1;1.22428;-0.739706;-2.27385;1.20519;-0.730016;-2.26113;1;1.16543;-0.329519;-0.558484;1;-4.08685;1.74743;4.3475;0.0108006;fp_not_a_fp;-1;0.227122;
41687;463.856142;202;126;17.4924;0;0.127041;11;202.329;126.279;0;8;1;1;1.24241;-0.744186;-2.2873;1.21638;-0.734235;-2.26544;1;1.22698;-0.368495;-0.696915;1;-4.11622;-0.310319;4.49177;0;fp_not_a_fp;-1;0.22712;
41688;463.867269;198;126;17.5072;2.82843;0.119472;28;200.376;126.288;0;9;1;1;1.26307;-0.743728;-2.28525;1.23538;-0.739942;-2.27425;1;1.33273;-0.332351;-0.64179;1;4.43725;-2.65497;-0.650045;0.00767605;fp_not_a_fp;-1;0.227127;
41689;463.878397;198;126;17.5136;2.82843;0.019752;43;196.038;126.256;0;10;1;1;1.26261;-0.743455;-2.28441;1.24809;-0.742769;-2.28271;1;1.20113;-0.271894;-0.527538;1;0.928269;-0.317673;-2.32093;0.00767318;fp_not_a_fp;-1;0.227114;
41690;463.889524;196;126;17.4943;0;0.114026;4;196.203;126.179;0;11;1;1;1.27486;-0.744359;-2.28687;1.26074;-0.743932;-2.28596;1;1.13398;-0.22259;-0.441215;1;-0.706426;2.40242;2.63482;0;fp_not_a_fp;-1;0.227112;
41691;463.900652;192;126;17.4622;2.82843;0.12778;44;194.22;126.124;0;12;1;1;1.29897;-0.7459;-2.29097;1.27488;-0.744361;-2.28688;1;1.23796;-0.191486;-0.396205;1;0.246988;3.97689;6.75606;0.00769589;fp_not_a_fp;-1;0.227141;
41692;463.911779;192;126;17.4336;2.82843;0.0351352;9;189.92;126.086;0;13;1;1;1.30111;-0.747125;-2.29473;1.28439;-0.74521;-2.28925;1;1.14749;-0.168253;-0.370213;1;-4.16166;3.68677;6.1015;0.00770847;fp_not_a_fp;-1;0.22714;
41693;463.922907;190;126;17.1913;2;0.0179662;3;190.123;126.059;0;14;1;1;1.3305;-0.757745;-2.32702;1.30136;-0.748782;-2.2999;1;1.30069;-0.258916;-0.682393;1;2.23662;0.291657;-3.47885;0.00552756;fp_not_a_fp;-1;0.227137;
41694;463.934034;188;126;17.3946;4.47214;0.0962877;47;188.19;126.04;0;15;1;1;1.32587;-0.748973;-2.29977;1.31411;-0.749936;-2.30313;1;1.14505;-0.162815;-0.411928;1;0.248408;1.34313;0.658439;0.0122154;fp_not_a_fp;-1;0.227126;
41695;463.945161;186;126;17.2332;2.82843;0.0277715;16;186.164;126.027;0;16;1;1;1.34932;-0.756075;-2.32125;1.3267;-0.75248;-2.3107;1;1.20343;-0.183737;-0.493863;1;-0.776175;0.174203;-2.19372;0.00779812;fp_not_a_fp;-1;0.227094;
41696;463.956289;182;126;17.3245;2.82843;0.102021;10;184.192;126.018;0;17;1;1;1.36415;-0.752266;-2.30891;1.34246;-0.753765;-2.31424;1;1.24405;-0.125284;-0.323303;1;2.1692;0.96544;1.05411;0.00775705;fp_not_a_fp;-1;0.227153;
41697;463.967416;182;126;17.3511;2.82843;0.0233995;58;179.849;126.013;0;18;1;1;1.36206;-0.751112;-2.30537;1.35035;-0.752107;-2.30883;1;1.07818;-0.0719222;-0.170983;1;-4.99915;4.20116;11.4898;0.00774519;fp_not_a_fp;-1;0.227152;
41698;463.978544;180;126;17.3224;2.82843;0.00965032;4;180.007;126.009;0;19;1;1;1.37528;-0.75244;-2.30913;1.3627;-0.752973;-2.31117;1;1.02368;-0.055924;-0.12928;1;-2.72687;2.40146;6.35007;0.00775795;fp_not_a_fp;-1;0.227116;
41699;463.989671;176;126;17.4076;2.82843;0.0895419;24;178.079;126.006;0;20;1;1;1.39038;-0.748929;-2.29771;1.37297;-0.751187;-2.30528;1;1.04368;-0.00193676;0.0352766;1;-3.58912;4.08442;11.8879;0.00771992;fp_not_a_fp;-1;0.227107;
41700;464.000799;176;126;17.454;2.82843;0.00922513;29;173.798;126.004;0;21;1;1;1.38669;-0.74694;-2.29161;1.3786;-0.749856;-2.30096;1;0.876487;0.043426;0.16875;1;-8.2583;3.7904;11.0549;0.00769941;fp_not_a_fp;-1;0.22715;
41701;464.011926;176;126;17.454;2.82843;0.00922513;29;174.025;126.003;1;0;1;1;1.39592;-0.746224;-2.28905;1.38707;-0.748634;-2.29688;1;0.801386;0.0648465;0.231699;1;-6.21889;3.07276;9.04698;-1;fp_not_a_fp;-1;0.227117;
41702;464.023054;170;126;17.149;4.47214;0.0930996;35;172.111;126.005;0;1;1;1;1.4446;-0.760488;-2.3322;1.4044;-0.750645;-2.30264;1;1.2261;-0.0980701;-0.266393;1;4.54733;-0.946756;-3.08007;0.0123904;fp_not_a_fp;-1;0.227118;
41703;464.034181;170;126;17.4667;2;0.0529296;10;167.853;126.001;0;2;1;1;1.41832;-0.746655;-2.28978;1.41138;-0.750077;-2.30066;1;0.944027;0.00568007;0.048021;1;-2.23976;0.171415;0.287201;0.00544036;fp_not_a_fp;-1;0.227145;
41704;464.045308;170;126;17.4667;2;0.0529296;10;168.04;126.001;1;0;1;1;1.42867;-0.746581;-2.28922;1.42188;-0.749987;-2.30006;1;0.825696;0.0486778;0.178151;1;-1.1419;0.118277;0.212081;-1;fp_not_a_fp;-1;0.227112;
41705;464.056436;166;126;17.0529;2.82843;0.0482395;43;166.143;126.001;0;1;1;1;1.47503;-0.76495;-2.34523;1.44165;-0.754669;-2.31411;1;1.20281;-0.150307;-0.432712;1;9.0176;-4.83336;-14.9258;0.00788056;fp_not_a_fp;-1;0.22712;
41706;464.067563;164;126;17.1769;2;0.059063;7;164.159;126;0;2;1;1;1.47545;-0.759517;-2.32825;1.44937;-0.754426;-2.31312;1;1.21004;-0.151092;-0.435324;1;-0.361656;-1.19094;-3.79442;0.00553215;fp_not_a_fp;-1;0.22713;
41707;464.078691;162;126;16.767;4.47214;0.0628364;23;162.165;126;0;3;1;1;1.52285;-0.778175;-2.38511;1.4755;-0.762306;-2.33696;1;1.60209;-0.346019;-1.03269;1;14.7844;-7.90147;-24.2799;0.0126727;fp_not_a_fp;-1;0.227136;
41708;464.089818;160;126;16.8418;2;0.0561573;31;160.175;126;0;4;1;1;1.52737;-0.774807;-2.37446;1.50017;-0.769362;-2.35826;1;1.61157;-0.343845;-1.02575;1;17.6559;-8.81867;-27.0476;0.00564225;fp_not_a_fp;-1;0.227125;
41709;464.100946;158;126;17.4721;2;0.0517721;6;158.139;126;0;5;1;1;1.48315;-0.746942;-2.28874;1.5022;-0.76486;-2.34414;1;0.902993;0.020333;0.0904957;1;-6.73606;3.83383;11.7551;0.00543869;fp_not_a_fp;-1;0.227123;
41710;464.112073;156;126;16.8132;2;0.0439791;24;156.03;126;0;6;1;1;1.55257;-0.776302;-2.37838;1.52149;-0.769057;-2.35668;1;1.2908;-0.168316;-0.487217;1;1.8145;-0.386979;-1.16592;0.00565184;fp_not_a_fp;-1;0.22715;
41711;464.123201;154;124;16.9845;2.82843;0.0828563;16;154.087;126;0;7;1;1;1.54821;-0.75913;-2.36036;1.52782;-0.764296;-2.35049;1;1.2364;-0.0279785;-0.457241;1;-8.21597;7.1454;12.9288;0.00791227;fp_not_a_fp;-1;0.227115;
41712;464.134328;152;124;17.1696;2.82843;0.0149362;4;152.049;123.717;0;8;1;1;1.54259;-0.751035;-2.33486;1.53163;-0.758353;-2.34059;1;0.991783;0.12639;-0.0942223;1;-13.9249;10.5648;20.929;0.00782697;fp_not_a_fp;-1;0.227116;
41713;464.145455;150;124;16.8499;2.82843;0.0181598;37;150.012;123.629;0;9;1;1;1.58313;-0.765374;-2.3791;1.55663;-0.762961;-2.36317;1;1.22897;0.00969647;-0.439343;1;7.32401;-0.239112;-11.9041;0.00797545;fp_not_a_fp;-1;0.227141;
41714;464.156583;150;124;17.0996;0;0.11028;5;148.049;123.651;0;10;1;1;1.56002;-0.754197;-2.34436;1.55849;-0.757434;-2.35467;1;0.905259;0.0883407;-0.12772;1;-8.66158;5.76617;8.07648;0;fp_not_a_fp;-1;0.227126;
41715;464.167710;146;124;17.2273;2;0.118112;9;148.296;123.695;0;11;1;1;1.57051;-0.74878;-2.32687;1.56406;-0.754847;-2.3463;1;0.776347;0.171668;0.217859;1;-10.3358;4.48542;15.1673;0.005516;fp_not_a_fp;-1;0.22712;
41716;464.178838;146;122;17.1841;4.47214;0.159342;15;144.068;123.785;0;12;1;1;1.57456;-0.74134;-2.33866;1.57206;-0.752423;-2.34725;1;0.670471;0.269493;0.19765;1;-7.2186;3.21503;6.55716;0.0123651;fp_not_a_fp;-1;0.227138;
41717;464.189966;144;124;16.7951;0;0.199824;2;144.265;121.56;0;13;1;1;1.62225;-0.76814;-2.38669;1.58184;-0.753115;-2.34915;1;1.08774;-0.031632;-0.386407;1;-3.17347;-0.928078;1.19001;0;fp_not_a_fp;-1;0.227093;
41718;464.201093;140;122;16.5643;2.82843;0.161012;19;142.349;123.82;0;14;1;1;1.6679;-0.769351;-2.426;1.60881;-0.756903;-2.36956;1;1.64476;-0.165928;-1.02905;1;16.6141;-5.71224;-20.2497;0.00811297;fp_not_a_fp;-1;0.227137;
41719;464.212220;140;122;16.6421;2;0.0106846;6;138.052;121.669;0;15;1;1;1.66011;-0.765758;-2.41466;1.6312;-0.761148;-2.39151;1;1.57585;-0.159068;-1.03348;1;17.9623;-7.43026;-28.1134;0.00570996;fp_not_a_fp;-1;0.227104;
41720;464.223348;136;122;15.8915;2;0.0993311;7;138.218;121.645;0;16;1;1;1.76243;-0.802112;-2.52858;1.67817;-0.77634;-2.43899;1;2.51918;-0.552636;-2.20922;1;41.5332;-18.4698;-54.073;0.00597968;fp_not_a_fp;-1;0.227134;
41721;464.234475;136;122;16.5472;4;0.0736986;32;134.067;121.726;0;17;1;1;1.69259;-0.770328;-2.42839;1.69576;-0.776888;-2.44941;1;1.78715;-0.280452;-1.26477;1;15.712;-5.58952;-19.7321;0.0114854;fp_not_a_fp;-1;0.227138;
41722;464.245602;134;122;17.0734;0;0.10994;3;134.151;121.746;0;18;1;1;1.65156;-0.746674;-2.35349;1.69167;-0.771218;-2.43128;1;0.786278;0.13895;0.145449;1;-19.29;6.85071;26.3906;0;fp_not_a_fp;-1;0.22711;
41723;464.256730;130;122;16.322;2;0.0915902;9;132.171;121.816;0;19;1;1;1.75087;-0.781232;-2.46172;1.71436;-0.775087;-2.44305;1;1.41074;-0.101554;-0.530815;1;-3.71301;1.29354;11.2975;0.0058219;fp_not_a_fp;-1;0.227133;
41724;464.267857;130;122;16.322;2;0.0915902;9;127.948;121.879;1;0;1;1;1.76632;-0.782281;-2.46692;1.71534;-0.770129;-2.42763;1;1.66593;-0.200011;-0.802204;1;-19.1717;7.92311;31.6136;-1;fp_not_a_fp;-1;0.227126;
41725;464.278985;130;122;16.322;2;0.0915902;9;125.808;121.779;2;0;1;1;1.78365;-0.784014;-2.47388;1.7381;-0.773551;-2.439;1;1.75752;-0.23506;-0.891846;1;-0.666822;1.02028;8.37979;-1;fp_not_a_fp;-1;0.227127;
41726;464.290112;130;122;16.322;2;0.0915902;9;123.615;121.686;3;0;1;1;1.80313;-0.786563;-2.48327;1.77599;-0.783523;-2.47145;1;1.79458;-0.248779;-0.922802;1;22.6528;-8.71084;-23.9997;-1;fp_not_a_fp;-1;0.227132;
41727;464.301239;130;122;16.322;2;0.0915902;9;121.416;121.596;4;0;1;1;1.82447;-0.789865;-2.49501;1.79439;-0.785681;-2.47977;1;1.82558;-0.260563;-0.952403;1;9.32048;-3.57256;-9.47209;-1;fp_not_a_fp;-1;0.22712;
41728;464.312367;130;122;16.322;2;0.0915902;9;119.246;121.506;5;0;1;1;1.84533;-0.792981;-2.50617;1.81415;-0.788356;-2.48959;1;1.84465;-0.267913;-0.971163;1;4.01543;-1.52555;-3.79605;-1;fp_not_a_fp;-1;0.227133;
41729;464.323494;130;122;16.322;2;0.0915902;9;117.098;121.417;6;0;1;1;1.86608;-0.796052;-2.5172;1.83475;-0.791365;-2.50042;1;1.85504;-0.271981;-0.981424;1;2.1909;-0.829518;-2.01256;-1;fp_not_a_fp;-1;0.227129;
41730;464.334622;130;122;16.322;2;0.0915902;9;114.967;121.328;7;0;1;1;1.88682;-0.799125;-2.52823;1.85568;-0.794506;-2.51165;1;1.86052;-0.274197;-0.986903;1;1.48147;-0.571064;-1.44014;-1;fp_not_a_fp;-1;0.227134;
41731;464.345749;130;122;16.322;2;0.0915902;9;112.855;121.24;8;0;1;1;1.90759;-0.802207;-2.53928;1.87645;-0.797591;-2.52272;1;1.86349;-0.275466;-0.990009;1;0.851703;-0.334832;-0.844923;-1;fp_not_a_fp;-1;0.227096;
41732;464.356876;116;118;16.1395;2;0.297859;16;110.762;121.154;0;1;1;1;1.85332;-0.770871;-2.50182;1.87845;-0.792064;-2.52163;1;1.00501;0.11835;-0.435528;1;-18.8646;8.67832;12.0343;0.00588777;fp_not_a_fp;-1;0.22712;
41733;464.368005;116;118;16.1395;2;0.297859;16;114.614;117.463;1;0;1;1;1.86333;-0.76902;-2.50591;1.87777;-0.785306;-2.51881;1;0.636683;0.287217;-0.197783;1;-27.3725;12.5634;17.6059;-1;fp_not_a_fp;-1;0.227162;
41734;464.379132;116;118;16.1395;2;0.297859;16;113.557;116.728;2;0;1;1;1.86871;-0.765053;-2.50702;1.87324;-0.776788;-2.51351;1;0.464982;0.365841;-0.087039;1;-31.3534;14.3797;20.2172;-1;fp_not_a_fp;-1;0.227172;
41735;464.390259;110;118;16.4762;2;0.187135;9;112.65;115.898;0;1;1;1;1.85005;-0.75539;-2.45051;1.85885;-0.765084;-2.49132;1;0.120802;0.462444;0.617642;1;-39.1532;16.5787;36.1197;0.00576742;fp_not_a_fp;-1;0.227134;
41736;464.401387;110;118;16.4762;2;0.187135;9;108.762;117.408;1;0;1;1;1.84898;-0.749228;-2.44142;1.85777;-0.759673;-2.47622;1;-0.0491602;0.514008;0.934298;1;-23.6836;8.88906;30.7757;-1;fp_not_a_fp;-1;0.227108;
41737;464.412514;106;118;16.5224;0;0.189349;4;107.312;116.962;0;1;1;1;1.86788;-0.753458;-2.44354;1.8589;-0.755782;-2.46063;1;0.103541;0.421269;0.921707;1;-11.9782;3.01175;25.1518;0;fp_not_a_fp;-1;0.227139;
41738;464.423641;106;118;16.5224;0;0.189349;4;104.267;117.771;1;0;1;1;1.86829;-0.748591;-2.43174;1.8588;-0.751667;-2.44181;1;0.158154;0.384997;0.934128;1;-6.89338;0.430288;22.9427;-1;fp_not_a_fp;-1;0.227121;
41739;464.434769;106;118;16.5224;0;0.189349;4;102.394;117.636;2;0;1;1;1.86962;-0.744287;-2.41995;1.86369;-0.748891;-2.43416;1;0.175817;0.370238;0.95531;1;1.2364;-2.07176;7.58585;-1;fp_not_a_fp;-1;0.227143;
41740;464.445896;100;118;16.065;2;0.0763005;11;100.484;117.517;0;1;1;1;1.95655;-0.775191;-2.51293;1.89058;-0.755382;-2.45204;1;1.15718;-0.0373551;-0.223682;1;27.1038;-12.3879;-26.0174;0.00591501;fp_not_a_fp;-1;0.227164;
41741;464.457023;100;118;16.065;2;0.0763005;11;98.0795;117.968;1;0;1;1;1.97108;-0.776371;-2.51702;1.91638;-0.76111;-2.47041;1;1.5817;-0.214558;-0.729285;1;33.2109;-14.2855;-37.0941;-1;fp_not_a_fp;-1;0.227139;
41742;464.468152;100;118;16.065;2;0.0763005;11;96.153;117.96;2;0;1;1;1.9907;-0.779637;-2.52742;1.94699;-0.768872;-2.49433;1;1.78034;-0.297856;-0.964338;1;36.4463;-15.3419;-42.6538;-1;fp_not_a_fp;-1;0.227123;
41743;464.479279;96;116;16.1684;2.82843;0.114397;23;94.2368;117.965;0;1;1;1;1.96766;-0.760516;-2.50308;1.9715;-0.772929;-2.51512;1;1.37122;-0.0751009;-0.659487;1;26.8574;-10.0055;-36.2802;0.00831164;fp_not_a_fp;-1;0.227126;
41744;464.490406;96;116;16.1684;2.82843;0.114397;23;94.3095;115.739;1;0;1;1;1.98456;-0.761968;-2.51265;1.9785;-0.769623;-2.51504;1;1.2209;0.0098906;-0.55905;1;1.43101;1.06176;-7.53426;-1;fp_not_a_fp;-1;0.227151;
41745;464.501534;96;116;16.1684;2.82843;0.114397;23;92.738;115.354;2;0;1;1;1.99821;-0.761793;-2.51932;1.98528;-0.765979;-2.51562;1;1.15955;0.0457644;-0.522766;1;-9.48522;5.84896;4.64046;-1;fp_not_a_fp;-1;0.227129;
41746;464.512661;92;116;16.4995;2;0.104161;5;91.2226;114.914;0;1;1;1;1.95121;-0.745436;-2.45273;1.97541;-0.757428;-2.49695;1;0.447519;0.242255;0.32229;1;-29.9454;12.135;28.9077;0.00575925;fp_not_a_fp;-1;0.227116;
41747;464.523788;92;116;16.4995;2;0.104161;5;90.5821;115.674;1;0;1;1;1.95433;-0.741995;-2.44736;1.97208;-0.752798;-2.48302;1;0.131993;0.332;0.691914;1;-27.8424;9.14651;30.3628;-1;fp_not_a_fp;-1;0.227123;
41748;464.534916;92;116;16.4995;2;0.104161;5;89.1924;115.425;2;0;1;1;1.95408;-0.737741;-2.4378;1.96446;-0.746741;-2.46431;1;-0.0181267;0.375495;0.866012;1;-27.8376;8.21412;32.0174;-1;fp_not_a_fp;-1;0.227098;
41749;464.546044;86;116;16.1937;2.82843;0.0833528;10;87.8101;115.208;0;1;1;1;2.02326;-0.759791;-2.49887;1.97072;-0.746241;-2.45919;1;0.715163;0.0928271;0.127504;1;-9.98425;1.05739;14.61;0.00829876;fp_not_a_fp;-1;0.227116;
41750;464.557171;86;116;16.1937;2.82843;0.0833528;10;84.4011;115.919;1;0;1;1;2.03059;-0.758694;-2.49655;1.99057;-0.749555;-2.47015;1;1.01101;-0.0232586;-0.167383;1;12.6606;-5.96555;-11.0021;-1;fp_not_a_fp;-1;0.227134;
41751;464.568299;86;116;16.1937;2.82843;0.0833528;10;82.6951;115.878;2;0;1;1;2.04261;-0.75932;-2.49909;2.01264;-0.753887;-2.48308;1;1.14203;-0.0754478;-0.297003;1;22.6932;-9.15432;-22.2186;-1;fp_not_a_fp;-1;0.227149;
41752;464.579426;82;116;15.9964;2.82843;0.0504422;7;80.9467;115.859;0;1;1;1;2.07198;-0.76935;-2.52957;2.04211;-0.761789;-2.50602;1;1.38719;-0.202358;-0.662085;1;31.5738;-12.9829;-34.3324;0.00840105;fp_not_a_fp;-1;0.227123;
41753;464.590553;82;116;15.9964;2.82843;0.0504422;7;80.402;116.013;1;0;1;1;2.08934;-0.772399;-2.53904;2.05863;-0.764941;-2.51606;1;1.51059;-0.263955;-0.837134;1;17.8712;-8.01598;-21.673;-1;fp_not_a_fp;-1;0.227111;
41754;464.601681;82;116;15.9964;2.82843;0.0504422;7;78.8907;116.03;2;0;1;1;2.10723;-0.775827;-2.54968;2.07779;-0.769224;-2.52935;1;1.57394;-0.295031;-0.924644;1;12.6473;-6.10593;-17.0135;-1;fp_not_a_fp;-1;0.22713;
41755;464.612808;78;116;15.8325;2;0.0734208;5;77.4246;116.051;0;1;1;1;2.11744;-0.777505;-2.55563;2.0965;-0.77377;-2.54348;1;1.51637;-0.289471;-0.911093;1;8.41031;-4.80855;-13.797;0.00600198;fp_not_a_fp;-1;0.227124;
41756;464.623936;78;116;15.8325;2;0.0734208;5;76.6399;116.016;1;0;1;1;2.1348;-0.781018;-2.56661;2.1122;-0.776687;-2.55275;1;1.49825;-0.290521;-0.91509;1;2.49505;-1.98072;-5.68419;-1;fp_not_a_fp;-1;0.227128;
41757;464.635064;74;118;15.9162;0;0.221208;3;75.3204;116.028;0;1;1;1;2.13007;-0.783669;-2.53565;2.12239;-0.779505;-2.5519;1;1.24539;-0.284286;-0.44516;1;-5.95804;-0.45674;8.80589;0;fp_not_a_fp;-1;0.227121;
41758;464.646191;74;118;15.9162;0;0.221208;3;72.5008;118.288;1;0;1;1;2.14354;-0.786855;-2.54005;2.13146;-0.782262;-2.54949;1;1.13645;-0.281978;-0.244644;1;-9.82881;0.293262;15.277;-1;fp_not_a_fp;-1;0.227138;
41759;464.657318;74;118;15.9162;0;0.221208;3;70.9329;118.698;2;0;1;1;2.15556;-0.78997;-2.54183;2.14099;-0.785378;-2.54604;1;1.08427;-0.280766;-0.150924;1;-9.70775;0.195584;17.0783;-1;fp_not_a_fp;-1;0.227169;
41760;464.668446;70;118;15.7088;0;0.179513;2;69.3267;119.164;0;1;1;1;2.18239;-0.794207;-2.56901;2.15289;-0.788676;-2.54664;1;1.23193;-0.293017;-0.404473;1;-5.98334;-0.0560657;11.472;0;fp_not_a_fp;-1;0.227113;
41761;464.679573;70;118;15.7088;0;0.179513;2;68.4861;118.327;1;0;1;1;2.19571;-0.797467;-2.57279;2.1693;-0.792125;-2.55592;1;1.28849;-0.298067;-0.501067;1;0.967994;-0.309607;-1.25547;-1;fp_not_a_fp;-1;0.227116;
41762;464.690701;70;118;15.7088;0;0.179513;2;67.0289;118.571;2;0;1;1;2.21009;-0.800798;-2.57844;2.18594;-0.795611;-2.56552;1;1.31231;-0.30032;-0.541783;1;3.95085;-0.412076;-6.67542;-1;fp_not_a_fp;-1;0.227139;
41763;464.701829;64;118;15.4889;0;0.201315;2;65.6009;118.78;0;1;1;1;2.25017;-0.805771;-2.60528;2.20959;-0.799561;-2.58138;1;1.61426;-0.319941;-0.797193;1;11.9065;-0.880099;-14.519;0;fp_not_a_fp;-1;0.22712;
41764;464.712956;64;118;15.4889;0;0.201315;2;62.3797;118.08;1;0;1;1;2.26884;-0.80938;-2.61504;2.2312;-0.803354;-2.59289;1;1.74717;-0.328613;-0.912877;1;11.5757;-0.799718;-11.4221;-1;fp_not_a_fp;-1;0.22712;
41765;464.724083;64;118;15.4889;0;0.201315;2;60.6723;118.119;2;0;1;1;2.28897;-0.81308;-2.62589;2.25452;-0.807257;-2.60616;1;1.80997;-0.332703;-0.9686;1;11.7158;-0.778135;-10.5038;-1;fp_not_a_fp;-1;0.227137;
41766;464.735211;64;118;15.4889;0;0.201315;2;58.9352;118.136;3;0;1;1;2.30981;-0.816825;-2.6373;2.27945;-0.811264;-2.62088;1;1.84386;-0.334878;-0.998872;1;11.9419;-0.776392;-10.2691;-1;fp_not_a_fp;-1;0.227157;
41767;464.746338;64;118;15.4889;0;0.201315;2;57.1905;118.142;4;0;1;1;2.33103;-0.820594;-2.64903;2.29966;-0.81497;-2.63181;1;1.86598;-0.336267;-1.01847;1;5.65566;-0.366815;-4.9716;-1;fp_not_a_fp;-1;0.227134;
41768;464.757465;56;116;15.6809;2;0.144914;3;55.4703;118.15;0;1;1;1;2.27121;-0.786072;-2.57966;2.30026;-0.809143;-2.62297;1;0.951412;0.101769;-0.101481;1;-17.8787;9.66957;18.23;0.00605991;fp_not_a_fp;-1;0.227107;
41769;464.768593;56;116;15.6809;2;0.144914;3;54.3059;115.701;1;0;1;1;2.28068;-0.784345;-2.57966;2.29818;-0.801959;-2.61141;1;0.560622;0.289614;0.290397;1;-28.0697;13.9819;28.2864;-1;fp_not_a_fp;-1;0.227119;
41770;464.779721;52;116;16.0523;0;0.164513;2;52.6374;115.263;0;1;1;1;2.24235;-0.768076;-2.51987;2.28132;-0.789772;-2.58206;1;-0.111694;0.516777;1.10067;1;-43.935;19.134;47.1697;0;fp_not_a_fp;-1;0.22711;
41771;464.790848;52;116;16.0523;0;0.164513;2;50.1983;115.593;1;0;1;1;2.2384;-0.761153;-2.50473;2.25816;-0.774912;-2.54598;1;-0.420606;0.6241;1.46871;1;-51.3726;21.5766;55.879;-1;fp_not_a_fp;-1;0.227132;
41772;464.801975;52;116;16.0523;0;0.164513;2;48.3328;115.191;2;0;1;1;2.23055;-0.752887;-2.48496;2.248;-0.766615;-2.52231;1;-0.584543;0.683607;1.66007;1;-34.5078;13.072;39.576;-1;fp_not_a_fp;-1;0.227136;
41773;464.813103;52;116;16.0523;0;0.164513;2;46.4124;114.816;3;0;1;1;2.22193;-0.744484;-2.46407;2.23331;-0.75665;-2.49341;1;-0.676594;0.717314;1.76683;1;-27.7957;9.60886;33.17;-1;fp_not_a_fp;-1;0.22712;
41774;464.824230;52;116;16.0523;0;0.164513;2;44.4451;114.448;4;0;1;1;2.2127;-0.735921;-2.44239;2.22589;-0.748611;-2.47404;1;-0.734178;0.73791;1.83409;1;-13.9856;4.96827;16.4779;-1;fp_not_a_fp;-1;0.22714;
41775;464.835357;52;116;16.0523;0;0.164513;2;42.4463;114.068;5;0;1;1;2.20367;-0.727416;-2.42099;2.21721;-0.740177;-2.45311;1;-0.767735;0.7498;1.87321;1;-7.79892;2.82409;9.08801;-1;fp_not_a_fp;-1;0.227122;
41776;464.846486;38;114;14.9046;0;0.218551;2;40.4112;113.68;0;1;1;1;2.50439;-0.817177;-2.72031;2.28567;-0.756249;-2.51194;1;2.76308;-0.369769;-1.78027;1;75.2058;-23.6645;-77.2887;0;fp_not_a_fp;-1;0.227143;
41777;464.857613;38;114;14.9046;0;0.218551;2;35.8832;113.701;1;0;1;1;2.53973;-0.822746;-2.74486;2.36512;-0.775815;-2.58214;1;4.27496;-0.849127;-3.3445;1;111.242;-35.1919;-114.832;-1;fp_not_a_fp;-1;0.227133;
41778;464.868740;32;114;15.4076;2;0.131752;9;33.705;113.428;0;1;1;1;2.45962;-0.79079;-2.6313;2.42685;-0.789532;-2.62937;1;3.43623;-0.572602;-2.26268;1;93.6922;-29.4419;-92.0374;0.00616744;fp_not_a_fp;-1;0.227109;
41779;464.879868;32;114;16.4864;0;0.0191265;2;29.4858;113.804;0;2;1;1;2.29868;-0.739046;-2.45913;2.45061;-0.79244;-2.6389;1;0.806614;0.207799;0.446478;1;35.3705;-12.1769;-32.054;0;fp_not_a_fp;-1;0.2271;
41780;464.890995;32;114;16.4864;0;0.0191265;2;29.523;113.862;1;0;1;1;2.30983;-0.737489;-2.45615;2.40197;-0.772518;-2.57286;1;-0.255234;0.521656;1.54331;1;-67.8079;20.0263;74.6663;-1;fp_not_a_fp;-1;0.227117;
41781;464.902122;26;114;15.7455;0;0.169261;3;27.1239;113.753;0;1;1;1;2.44306;-0.774108;-2.57466;2.3778;-0.760358;-2.53031;1;0.865695;0.165055;0.441212;1;-76.5922;22.7845;85.0499;0;fp_not_a_fp;-1;0.227126;
41782;464.913251;26;114;15.7455;0;0.169261;3;23.5682;113.946;1;0;1;1;2.44795;-0.770868;-2.56451;2.37488;-0.755378;-2.51362;1;1.27458;0.0337711;0.0458381;1;-48.5625;13.6224;51.8618;-1;fp_not_a_fp;-1;0.227125;
41783;464.924378;20;114;15.5112;0;0.170152;2;21.1098;113.906;0;1;1;1;2.51671;-0.786092;-2.61337;2.42939;-0.767139;-2.55218;1;2.06926;-0.199303;-0.683449;1;28.368;-9.14639;-25.3861;0;fp_not_a_fp;-1;0.227098;
41784;464.935505;20;112;15.5695;0;0.200892;4;17.4123;113.98;0;2;1;1;2.5074;-0.772858;-2.61014;2.47878;-0.775982;-2.59067;1;2.02697;-0.118506;-0.860716;1;51.2747;-14.3826;-54.012;0;fp_not_a_fp;-1;0.227102;
41785;464.946633;20;112;15.5695;0;0.200892;4;17.6981;111.716;1;0;1;1;2.53309;-0.775063;-2.62304;2.50129;-0.77622;-2.60277;1;2.04537;-0.0952673;-0.97202;1;26.5037;-5.84864;-31.7511;-1;fp_not_a_fp;-1;0.227121;
41786;464.957760;14;112;nan;0;0.197583;3;15.5487;111.314;2;0;1;1;2.55745;-0.776482;-2.6358;2.52866;-0.777624;-2.62059;1;2.07135;-0.0897857;-1.0403;1;17.9018;-2.77612;-24.4031;-1;fp_not_a_fp;-1;0.227149;
41787;464.968887;14;112;nan;0;0.197583;3;13.4769;110.862;3;0;1;1;2.58157;-0.777651;-2.64887;2.54488;-0.775514;-2.62947;1;2.09437;-0.0894686;-1.0856;1;0.564173;2.46769;-9.03519;-1;fp_not_a_fp;-1;0.22714;
41788;464.980016;14;112;nan;0;0.197583;3;11.4678;110.383;4;0;1;1;2.60488;-0.778493;-2.66149;2.56925;-0.776922;-2.6423;1;2.10388;-0.0875744;-1.1105;1;1.72803;0.694902;-5.61176;-1;fp_not_a_fp;-1;0.227119;
41789;464.991143;8;112;nan;0;0.36926;5;9.46297;109.918;5;0;1;1;2.62836;-0.779423;-2.67417;2.59306;-0.778013;-2.65509;1;2.10864;-0.0862834;-1.12456;1;1.42159;0.201841;-3.42713;-1;fp_not_a_fp;-1;0.227105;
41790;465.002270;8;112;nan;0;0.36926;5;7.47362;109.459;6;0;1;1;2.65188;-0.780369;-2.68688;2.61667;-0.778984;-2.66785;1;2.11123;-0.0855895;-1.13258;1;0.896001;0.0942734;-2.07325;-1;fp_not_a_fp;-1;0.227129;
41791;465.013398;8;112;nan;0;0.36926;5;5.5021;109.004;7;0;1;1;2.67539;-0.781315;-2.69959;2.64013;-0.7799;-2.68054;1;2.11253;-0.0852202;-1.13715;1;0.407907;0.0954465;-1.15821;-1;fp_not_a_fp;-1;0.227142;
41792;465.024525;8;112;nan;0;0.36926;5;3.54827;108.552;8;0;1;1;2.69889;-0.782256;-2.7123;2.66363;-0.780841;-2.69324;1;2.11297;-0.0849833;-1.13965;1;0.204127;0.0582132;-0.655;-1;fp_not_a_fp;-1;0.227131;
41793;465.035652;8;112;nan;0;0.36926;5;1.61138;108.103;9;0;1;1;2.72238;-0.783196;-2.725;2.68713;-0.781784;-2.70595;1;2.1129;-0.0848308;-1.14094;1;0.0957083;0.0326361;-0.368082;-1;fp_not_a_fp;-1;0.227116;
41794;465.046780;8;112;nan;0;0.36926;5;-0.308953;107.659;10;0;1;1;2.74586;-0.784137;-2.7377;2.71063;-0.782726;-2.71865;1;2.11253;-0.0847282;-1.14151;1;0.0292116;0.0193513;-0.200563;-1;fp_not_a_fp;-1;0.227114;
41795;465.057908;8;112;nan;0;0.36926;5;-2.21284;107.218;11;0;1;1;2.76933;-0.785077;-2.7504;2.73412;-0.783667;-2.73135;1;2.11201;-0.0846554;-1.14168;1;-0.0117333;0.0126876;-0.101665;-1;fp_not_a_fp;-1;0.227117;
41796;465.069035;8;112;nan;0;0.36926;5;-4.10059;106.781;12;0;1;1;2.7928;-0.786017;-2.76309;2.75759;-0.784607;-2.74405;1;2.1114;-0.0845995;-1.1416;1;-0.0352597;0.00862241;-0.0438989;-1;fp_not_a_fp;-1;0.227154;
41797;465.080163;8;112;nan;0;0.36926;5;-5.97231;106.347;13;0;1;1;2.81626;-0.786956;-2.77578;2.78106;-0.785547;-2.75674;1;2.11071;-0.0845527;-1.14138;1;-0.0493571;0.00624699;-0.00997565;-1;fp_not_a_fp;-1;0.227126;
41798;465.091290;8;112;nan;0;0.36926;5;-7.82822;105.918;14;0;1;1;2.83971;-0.787895;-2.78846;2.80453;-0.786486;-2.76943;1;2.11;-0.084514;-1.14109;1;-0.0567717;0.00481095;0.0093207;-1;fp_not_a_fp;-1;0.227131;
41799;465.102417;8;112;nan;0;0.36926;5;-9.66854;105.492;15;0;1;1;2.86315;-0.788834;-2.80114;2.82798;-0.787426;-2.78212;1;2.10929;-0.0844802;-1.14076;1;-0.0610681;0.00393633;0.0204547;-1;fp_not_a_fp;-1;0.227116;
41800;465.113545;8;112;nan;0;0.36926;5;-11.4934;105.069;16;0;1;1;2.88658;-0.789773;-2.81381;2.85142;-0.788365;-2.7948;1;2.10854;-0.0844475;-1.14039;1;-0.0642271;0.00341567;0.027206;-1;fp_not_a_fp;-1;0.227151;
41801;465.124672;8;112;nan;0;0.36926;5;-13.3032;104.65;17;0;1;1;2.91001;-0.790711;-2.82648;2.87486;-0.789303;-2.80748;1;2.10779;-0.0844162;-1.14001;1;-0.0654176;0.00306657;0.03079;-1;fp_not_a_fp;-1;0.227159;
41802;465.135800;-1;-1;-1;-1;-1;-1;-15.098;104.234;18;0;0;1;2.91001;-0.790711;-2.82648;2.87486;-0.789303;-2.80748;1;2.10779;-0.0844162;-1.14001;1;-0.0654176;0.00306657;0.03079;-1;fp_not_a_fp;-1;0.227162;
41803;465.146928;-1;-1;-1;-1;-1;-1;-15.098;104.234;19;0;0;1;2.91001;-0.790711;-2.82648;2.87486;-0.789303;-2.80748;1;2.10779;-0.0844162;-1.14001;1;-0.0654176;0.00306657;0.03079;-1;fp_not_a_fp;-1;0.22711;
