ID;RS_ID;time;imLx_drone; imLy_drone; disparity_drone; imLx_pred_drone; imLy_pred_drone; n_frames_lost_drone; n_frames_tracking_drone; foundL_drone; posX_drone; posY_drone; posZ_drone; sposX_drone; sposY_drone; sposZ_drone; svelX_drone; svelY_drone; svelZ_drone; saccX_drone; saccY_drone; saccZ_drone; imLx_insect; imLy_insect; disparity_insect; imLx_pred_insect; imLy_pred_insect; n_frames_lost_insect; n_frames_tracking_insect; foundL_insect; posX_insect; posY_insect; posZ_insect; sposX_insect; sposY_insect; sposZ_insect; svelX_insect; svelY_insect; svelZ_insect; saccX_insect; saccY_insect; saccZ_insect; valid; posErrX; posErrY; posErrZ; velX; velY; velZ; accX; accY; accZ; hoverthrottle; autoThrottle; autoRoll; autoPitch; autoYaw; joyThrottle; joyRoll; joyPitch; joyYaw; joyArmSwitch; joyModeSwitch; joyTakeoffSwitch; throttleP; throttleI; throttleD; dt; dx; dy; dz; velx_sp; vely_sp; velz_sp;
79136;79142;2019/05/25 18:22:40;-1; -1; -1; -1; -1; 100; 0; 0; 0; 0; 0;0; 0; 0;0; 0; 0;0; 0; 0;-1; -1; -1; -1; -1; 9456; 0; 0; 0; 0; 0;0; 0; 0;0; 0; 0;0; 0; 0;0; 0; 0; 0; 0; 0; 0; 0; 0; 0; 200; 228; 1024; 1024; 1024; 228; 1024; 1024; 1024; 1; 4; 0; 1900; 50; 35; 0; 0; 0; 0; 0; 0; 0; 
79137;79143;2019/05/25 18:22:40;-1; -1; -1; -1; -1; 100; 0; 0; 0; 0; 0;0; 0; 0;0; 0; 0;0; 0; 0;-1; -1; -1; -1; -1; 9457; 0; 0; 0; 0; 0;0; 0; 0;0; 0; 0;0; 0; 0;0; 0; 0; 0; 0; 0; 0; 0; 0; 0; 200; 228; 1024; 1024; 1024; 228; 1024; 1024; 1024; 1; 4; 0; 1900; 50; 35; 0; 0; 0; 0; 0; 0; 0; 
79138;79144;2019/05/25 18:22:40;-1; -1; -1; -1; -1; 100; 0; 0; 0; 0; 0;0; 0; 0;0; 0; 0;0; 0; 0;116; 235; 11.7945; -1; -1; 0; 1; 1; 1.32025; -1.08214; -1.4562;1.32025; -1.08214; -1.4562;0; 0; 0;0; 0; 0;0; 0; 0; 0; 0; 0; 0; 0; 0; 0; 200; 228; 1024; 1024; 1024; 228; 1024; 1024; 1024; 1; 4; 0; 1900; 50; 35; 0; 0; 0; 0; 0; 0; 0; 
79139;79145;2019/05/25 18:22:40;-1; -1; -1; -1; -1; 100; 0; 0; 0; 0; 0;0; 0; 0;0; 0; 0;0; 0; 0;116; 235; 11.7945; 116; 235; 1; 0; 1; 1.32025; -1.08214; -1.4562;1.32025; -1.08214; -1.4562;0; 0; 0;0; 0; 0;0; 0; 0; 0; 0; 0; 0; 0; 0; 0; 200; 228; 1024; 1024; 1024; 228; 1024; 1024; 1024; 1; 4; 0; 1900; 50; 35; 0; 0; 0; 0; 0; 0; 0; 
79140;79146;2019/05/25 18:22:40;-1; -1; -1; -1; -1; 100; 0; 0; 0; 0; 0;0; 0; 0;0; 0; 0;0; 0; 0;133; 228; 11.5027; 116; 235; 0; 1; 1; 1.27998; -1.08525; -1.51132;1.30817; -1.08308; -1.47274;0; 0; 0;0; 0; 0;0; 0; 0; 0; 0; 0; 0; 0; 0; 0; 200; 228; 1024; 1024; 1024; 228; 1024; 1024; 1024; 1; 4; 0; 1900; 50; 35; 0; 0; 0; 0; 0; 0; 0; 
79141;79147;2019/05/25 18:22:40;-1; -1; -1; -1; -1; 100; 0; 0; 0; 0; 0;0; 0; 0;0; 0; 0;0; 0; 0;140; 226; 11.4959; 118.733; 233.875; 0; 2; 1; 1.25033; -1.07892; -1.51739;1.29082; -1.08183; -1.48613;0; 0; 0;0; 0; 0;0; 0; 0; 0; 0; 0; 0; 0; 0; 0; 200; 228; 1024; 1024; 1024; 228; 1024; 1024; 1024; 1; 4; 0; 1900; 50; 35; 0; 0; 0; 0; 0; 0; 0; 
79142;79148;2019/05/25 18:22:40;-1; -1; -1; -1; -1; 100; 0; 0; 0; 0; 0;0; 0; 0;0; 0; 0;0; 0; 0;153; 222; 11.5221; 123.159; 232.236; 0; 3; 1; 1.19117; -1.06258; -1.52431;1.26092; -1.07606; -1.49759;0; 0; 0;0; 0; 0;0; 0; 0; 0; 0; 0; 0; 0; 0; 0; 200; 228; 1024; 1024; 1024; 228; 1024; 1024; 1024; 1; 4; 0; 1900; 50; 35; 0; 0; 0; 0; 0; 0; 0; 
79143;79149;2019/05/25 18:22:40;-1; -1; -1; -1; -1; 100; 0; 0; 0; 0; 0;0; 0; 0;0; 0; 0;0; 0; 0;161.333; 217.333; 11.4501; 130.26; 229.799; 0; 4; 1; 1.16233; -1.05296; -1.54606;1.23134; -1.06913; -1.51213;0; 0; 0;0; 0; 0;0; 0; 0; 0; 0; 0; 0; 0; 0; 0; 200; 228; 1024; 1024; 1024; 228; 1024; 1024; 1024; 1; 4; 0; 1900; 50; 35; 0; 0; 0; 0; 0; 0; 0; 
79144;79150;2019/05/25 18:22:40;-1; -1; -1; -1; -1; 100; 0; 0; 0; 0; 0;0; 0; 0;0; 0; 0;0; 0; 0;169.667; 216.333; 11.4954; 138.241; 226.6; 0; 5; 1; 1.12156; -1.04533; -1.54256;1.19841; -1.06199; -1.52126;0; 0; 0;0; 0; 0;0; 0; 0; 0; 0; 0; 0; 0; 0; 0; 200; 228; 1024; 1024; 1024; 228; 1024; 1024; 1024; 1; 4; 0; 1900; 50; 35; 0; 0; 0; 0; 0; 0; 0; 
79145;79151;2019/05/25 18:22:40;-1; -1; -1; -1; -1; 100; 0; 0; 0; 0; 0;0; 0; 0;0; 0; 0;0; 0; 0;180.4; 212.8; 11.284; 146.703; 223.83; 0; 6; 1; 1.09508; -1.05237; -1.5808;1.16741; -1.0591; -1.53912;0; 0; 0;0; 0; 0;0; 0; 0; 0; 0; 0; 0; 0; 0; 0; 200; 228; 1024; 1024; 1024; 228; 1024; 1024; 1024; 1; 4; 0; 1900; 50; 35; 0; 0; 0; 0; 0; 0; 0; 
79146;79152;2019/05/25 18:22:40;-1; -1; -1; -1; -1; 100; 0; 0; 0; 0; 0;0; 0; 0;0; 0; 0;0; 0; 0;191.6; 208.8; 11.3022; 156.07; 220.759; 0; 7; 1; 1.04386; -1.03652; -1.58883;1.13035; -1.05233; -1.55403;-1.49642; 0.24133; -0.751178;-5.97983; 0.964377; -3.00178;0; 0; 0; 0; 0; 0; 0; 0; 0; 0; 200; 228; 1024; 1024; 1024; 228; 1024; 1024; 1024; 1; 4; 0; 1900; 50; 35; 0; 0; 0; 0; 0; 0; 0; 
79147;79153;2019/05/25 18:22:40;-1; -1; -1; -1; -1; 100; 0; 0; 0; 0; 0;0; 0; 0;0; 0; 0;0; 0; 0;199.333; 207.333; 11.493; 166.201; 217.346; 0; 8; 1; 0.992937; -1.01421; -1.56625;1.08912; -1.04089; -1.5577;-1.70482; 0.308588; -0.737037;-10.4089; 1.81328; -4.74994;0; 0; 0; 0; 0; 0; 0; 0; 0; 0; 200; 228; 1024; 1024; 1024; 228; 1024; 1024; 1024; 1; 4; 0; 1900; 50; 35; 0; 0; 0; 0; 0; 0; 0; 
79148;79154;2019/05/25 18:22:40;-1; -1; -1; -1; -1; 100; 0; 0; 0; 0; 0;0; 0; 0;0; 0; 0;0; 0; 0;209; 204; 10.8151; 175.909; 214.396; 0; 9; 1; 1.01055; -1.06544; -1.67362;1.06555; -1.04826; -1.59247;-1.80267; 0.296108; -0.820941;-13.4402; 2.2698; -6.12653;0; 0; 0; 0; 0; 0; 0; 0; 0; 0; 200; 228; 1024; 1024; 1024; 228; 1024; 1024; 1024; 1; 4; 0; 1900; 50; 35; 0; 0; 0; 0; 0; 0; 0; 
79149;79155;2019/05/25 18:22:40;-1; -1; -1; -1; -1; 100; 0; 0; 0; 0; 0;0; 0; 0;0; 0; 0;0; 0; 0;220; 201; 10.5136; 185.839; 211.266; 0; 10; 1; 0.987307; -1.08458; -1.73014;1.04208; -1.05915; -1.63377;-1.83701; 0.217469; -0.978076;-15.396; 2.22985; -7.57964;0; 0; 0; 0; 0; 0; 0; 0; 0; 0; 200; 228; 1024; 1024; 1024; 228; 1024; 1024; 1024; 1; 4; 0; 1900; 50; 35; 0; 0; 0; 0; 0; 0; 0; 
79150;79156;2019/05/25 18:22:40;-1; -1; -1; -1; -1; 100; 0; 0; 0; 0; 0;0; 0; 0;0; 0; 0;0; 0; 0;226.667; 198.667; 10.4636; 196.305; 208.102; 0; 11; 1; 0.960222; -1.08084; -1.74506;1.01752; -1.06566; -1.66716;-1.82593; 0.115783; -1.17059;-16.5431; 1.80116; -9.2313;0; 0; 0; 0; 0; 0; 0; 0; 0; 0; 200; 228; 1024; 1024; 1024; 228; 1024; 1024; 1024; 1; 4; 0; 1900; 50; 35; 0; 0; 0; 0; 0; 0; 0; 
79151;79157;2019/05/25 18:22:40;-1; -1; -1; -1; -1; 100; 0; 0; 0; 0; 0;0; 0; 0;0; 0; 0;0; 0; 0;226.667; 198.667; 10.4636; 205.952; 205.094; 1; 0; 1; 0.960222; -1.08084; -1.74506;1.01752; -1.06566; -1.66716;-1.82593; 0.115783; -1.17059;-16.5431; 1.80116; -9.2313;0; 0; 0; 0; 0; 0; 0; 0; 0; 0; 200; 228; 1024; 1024; 1024; 228; 1024; 1024; 1024; 1; 4; 0; 1900; 50; 35; 0; 0; 0; 0; 0; 0; 0; 
79152;79158;2019/05/25 18:22:40;-1; -1; -1; -1; -1; 100; 0; 0; 0; 0; 0;0; 0; 0;0; 0; 0;0; 0; 0;226.667; 198.667; 10.4636; 206.998; 204.758; 2; 0; 1; 0.960222; -1.08084; -1.74506;1.01752; -1.06566; -1.66716;-1.82593; 0.115783; -1.17059;-16.5431; 1.80116; -9.2313;0; 0; 0; 0; 0; 0; 0; 0; 0; 0; 200; 228; 1024; 1024; 1024; 228; 1024; 1024; 1024; 1; 4; 0; 1900; 50; 35; 0; 0; 0; 0; 0; 0; 0; 
79153;79159;2019/05/25 18:22:40;-1; -1; -1; -1; -1; 100; 0; 0; 0; 0; 0;0; 0; 0;0; 0; 0;0; 0; 0;226.667; 198.667; 10.4636; 208.044; 204.423; 3; 0; 1; 0.960222; -1.08084; -1.74506;1.01752; -1.06566; -1.66716;-1.82593; 0.115783; -1.17059;-16.5431; 1.80116; -9.2313;0; 0; 0; 0; 0; 0; 0; 0; 0; 0; 200; 228; 1024; 1024; 1024; 228; 1024; 1024; 1024; 1; 4; 0; 1900; 50; 35; 0; 0; 0; 0; 0; 0; 0; 
79154;79160;2019/05/25 18:22:40;-1; -1; -1; -1; -1; 100; 0; 0; 0; 0; 0;0; 0; 0;0; 0; 0;0; 0; 0;226.667; 198.667; 10.4636; 209.074; 204.092; 4; 0; 1; 0.960222; -1.08084; -1.74506;1.01752; -1.06566; -1.66716;-1.82593; 0.115783; -1.17059;-16.5431; 1.80116; -9.2313;0; 0; 0; 0; 0; 0; 0; 0; 0; 0; 200; 228; 1024; 1024; 1024; 228; 1024; 1024; 1024; 1; 4; 0; 1900; 50; 35; 0; 0; 0; 0; 0; 0; 0; 
79155;79161;2019/05/25 18:22:40;-1; -1; -1; -1; -1; 100; 0; 0; 0; 0; 0;0; 0; 0;0; 0; 0;0; 0; 0;226.667; 198.667; 10.4636; 210.12; 203.757; 5; 0; 1; 0.960222; -1.08084; -1.74506;1.01752; -1.06566; -1.66716;-1.82593; 0.115783; -1.17059;-16.5431; 1.80116; -9.2313;0; 0; 0; 0; 0; 0; 0; 0; 0; 0; 200; 228; 1024; 1024; 1024; 228; 1024; 1024; 1024; 1; 4; 0; 1900; 50; 35; 0; 0; 0; 0; 0; 0; 0; 
79156;79162;2019/05/25 18:22:41;-1; -1; -1; -1; -1; 100; 0; 0; 0; 0; 0;0; 0; 0;0; 0; 0;0; 0; 0;226.667; 198.667; 10.4636; 211.174; 203.419; 6; 0; 1; 0.960222; -1.08084; -1.74506;1.01752; -1.06566; -1.66716;-1.82593; 0.115783; -1.17059;-16.5431; 1.80116; -9.2313;0; 0; 0; 0; 0; 0; 0; 0; 0; 0; 200; 228; 1024; 1024; 1024; 228; 1024; 1024; 1024; 1; 4; 0; 1900; 50; 35; 0; 0; 0; 0; 0; 0; 0; 
79157;79163;2019/05/25 18:22:41;-1; -1; -1; -1; -1; 100; 0; 0; 0; 0; 0;0; 0; 0;0; 0; 0;0; 0; 0;267; 178; 9.39618; 212.205; 203.089; 0; 1; 1; 0.855019; -1.1156; -2.00894;0.968771; -1.08064; -1.76969;-1.4927; 0.0264045; -1.16333;-12.9102; 1.13348; -7.86459;0; 0; 0; 0; 0; 0; 0; 0; 0; 0; 200; 228; 1024; 1024; 1024; 228; 1024; 1024; 1024; 1; 4; 0; 1900; 50; 35; 0; 0; 0; 0; 0; 0; 0; 
79158;79164;2019/05/25 18:22:41;-1; -1; -1; -1; -1; 100; 0; 0; 0; 0; 0;0; 0; 0;0; 0; 0;0; 0; 0;272; 174; 9.56242; 229.801; 195.175; 0; 2; 1; 0.814052; -1.07947; -1.9865;0.922355; -1.08029; -1.83473;-1.31119; -0.0400286; -1.25885;-7.37602; 0.117923; -5.73311;0; 0; 0; 0; 0; 0; 0; 0; 0; 0; 200; 228; 1024; 1024; 1024; 228; 1024; 1024; 1024; 1; 4; 0; 1900; 50; 35; 0; 0; 0; 0; 0; 0; 0; 
79159;79165;2019/05/25 18:22:41;-1; -1; -1; -1; -1; 100; 0; 0; 0; 0; 0;0; 0; 0;0; 0; 0;0; 0; 0;272; 174; 9.56242; 244.173; 188.176; 1; 0; 1; 0.814052; -1.07947; -1.9865;0.922355; -1.08029; -1.83473;-1.31119; -0.0400286; -1.25885;-7.37602; 0.117923; -5.73311;0; 0; 0; 0; 0; 0; 0; 0; 0; 0; 200; 228; 1024; 1024; 1024; 228; 1024; 1024; 1024; 1; 4; 0; 1900; 50; 35; 0; 0; 0; 0; 0; 0; 0; 
79160;79166;2019/05/25 18:22:41;-1; -1; -1; -1; -1; 100; 0; 0; 0; 0; 0;0; 0; 0;0; 0; 0;0; 0; 0;272; 174; 9.56242; 246.163; 187.391; 2; 0; 1; 0.814052; -1.07947; -1.9865;0.922355; -1.08029; -1.83473;-1.31119; -0.0400286; -1.25885;-7.37602; 0.117923; -5.73311;0; 0; 0; 0; 0; 0; 0; 0; 0; 0; 200; 228; 1024; 1024; 1024; 228; 1024; 1024; 1024; 1; 4; 0; 1900; 50; 35; 0; 0; 0; 0; 0; 0; 0; 
79161;79167;2019/05/25 18:22:41;-1; -1; -1; -1; -1; 100; 0; 0; 0; 0; 0;0; 0; 0;0; 0; 0;0; 0; 0;272; 174; 9.56242; 248.11; 186.623; 3; 0; 1; 0.814052; -1.07947; -1.9865;0.922355; -1.08029; -1.83473;-1.31119; -0.0400286; -1.25885;-7.37602; 0.117923; -5.73311;0; 0; 0; 0; 0; 0; 0; 0; 0; 0; 200; 228; 1024; 1024; 1024; 228; 1024; 1024; 1024; 1; 4; 0; 1900; 50; 35; 0; 0; 0; 0; 0; 0; 0; 
79162;79168;2019/05/25 18:22:41;-1; -1; -1; -1; -1; 100; 0; 0; 0; 0; 0;0; 0; 0;0; 0; 0;0; 0; 0;272; 174; 9.56242; 250.086; 185.843; 4; 0; 1; 0.814052; -1.07947; -1.9865;0.922355; -1.08029; -1.83473;-1.31119; -0.0400286; -1.25885;-7.37602; 0.117923; -5.73311;0; 0; 0; 0; 0; 0; 0; 0; 0; 0; 200; 228; 1024; 1024; 1024; 228; 1024; 1024; 1024; 1; 4; 0; 1900; 50; 35; 0; 0; 0; 0; 0; 0; 0; 
79163;79169;2019/05/25 18:22:41;-1; -1; -1; -1; -1; 100; 0; 0; 0; 0; 0;0; 0; 0;0; 0; 0;0; 0; 0;272; 174; 9.56242; 252.062; 185.064; 5; 0; 1; 0.814052; -1.07947; -1.9865;0.922355; -1.08029; -1.83473;-1.31119; -0.0400286; -1.25885;-7.37602; 0.117923; -5.73311;0; 0; 0; 0; 0; 0; 0; 0; 0; 0; 200; 228; 1024; 1024; 1024; 228; 1024; 1024; 1024; 1; 4; 0; 1900; 50; 35; 0; 0; 0; 0; 0; 0; 0; 
79164;79170;2019/05/25 18:22:41;-1; -1; -1; -1; -1; 100; 0; 0; 0; 0; 0;0; 0; 0;0; 0; 0;0; 0; 0;272; 174; 9.56242; 254.037; 184.285; 6; 0; 1; 0.814052; -1.07947; -1.9865;0.922355; -1.08029; -1.83473;-1.31119; -0.0400286; -1.25885;-7.37602; 0.117923; -5.73311;0; 0; 0; 0; 0; 0; 0; 0; 0; 0; 200; 228; 1024; 1024; 1024; 228; 1024; 1024; 1024; 1; 4; 0; 1900; 50; 35; 0; 0; 0; 0; 0; 0; 0; 
79165;79171;2019/05/25 18:22:41;-1; -1; -1; -1; -1; 100; 0; 0; 0; 0; 0;0; 0; 0;0; 0; 0;0; 0; 0;272; 174; 9.56242; 255.984; 183.517; 7; 0; 1; 0.814052; -1.07947; -1.9865;0.922355; -1.08029; -1.83473;-1.31119; -0.0400286; -1.25885;-7.37602; 0.117923; -5.73311;0; 0; 0; 0; 0; 0; 0; 0; 0; 0; 200; 228; 1024; 1024; 1024; 228; 1024; 1024; 1024; 1; 4; 0; 1900; 50; 35; 0; 0; 0; 0; 0; 0; 0; 
79166;79172;2019/05/25 18:22:41;-1; -1; -1; -1; -1; 100; 0; 0; 0; 0; 0;0; 0; 0;0; 0; 0;0; 0; 0;318; 149; 8.69926; 257.974; 182.732; 0; 1; 1; 0.630859; -1.07158; -2.26936;0.630859; -1.07158; -2.26936;0; 0; 0;0; 0; 0;0; 0; 0; 0; 0; 0; 0; 0; 0; 0; 200; 228; 1024; 1024; 1024; 228; 1024; 1024; 1024; 1; 4; 0; 1900; 50; 35; 0; 0; 0; 0; 0; 0; 0; 
79167;79173;2019/05/25 18:22:41;-1; -1; -1; -1; -1; 100; 0; 0; 0; 0; 0;0; 0; 0;0; 0; 0;0; 0; 0;324; 148; 8.5589; 278.673; 171.431; 0; 2; 1; 0.606211; -1.08448; -2.31007;0.623465; -1.07545; -2.28157;0; 0; 0;0; 0; 0;0; 0; 0; 0; 0; 0; 0; 0; 0; 0; 200; 228; 1024; 1024; 1024; 228; 1024; 1024; 1024; 1; 4; 0; 1900; 50; 35; 0; 0; 0; 0; 0; 0; 0; 
79168;79174;2019/05/25 18:22:41;-1; -1; -1; -1; -1; 100; 0; 0; 0; 0; 0;0; 0; 0;0; 0; 0;0; 0; 0;330; 146; 8.86611; 295.542; 162.92; 0; 3; 1; 0.551423; -1.03787; -2.23675;0.601852; -1.06417; -2.26813;0; 0; 0;0; 0; 0;0; 0; 0; 0; 0; 0; 0; 0; 0; 0; 200; 228; 1024; 1024; 1024; 228; 1024; 1024; 1024; 1; 4; 0; 1900; 50; 35; 0; 0; 0; 0; 0; 0; 0; 
79169;79175;2019/05/25 18:22:41;-1; -1; -1; -1; -1; 100; 0; 0; 0; 0; 0;0; 0; 0;0; 0; 0;0; 0; 0;330; 146; 8.86611; 309.536; 156.172; 1; 0; 1; 0.551423; -1.03787; -2.23675;0.601852; -1.06417; -2.26813;0; 0; 0;0; 0; 0;0; 0; 0; 0; 0; 0; 0; 0; 0; 0; 200; 228; 1024; 1024; 1024; 228; 1024; 1024; 1024; 1; 4; 0; 1900; 50; 35; 0; 0; 0; 0; 0; 0; 0; 
79170;79176;2019/05/25 18:22:41;-1; -1; -1; -1; -1; 100; 0; 0; 0; 0; 0;0; 0; 0;0; 0; 0;0; 0; 0;330; 146; 8.86611; 313.243; 154.478; 2; 0; 1; 0.551423; -1.03787; -2.23675;0.601852; -1.06417; -2.26813;0; 0; 0;0; 0; 0;0; 0; 0; 0; 0; 0; 0; 0; 0; 0; 200; 228; 1024; 1024; 1024; 228; 1024; 1024; 1024; 1; 4; 0; 1900; 50; 35; 0; 0; 0; 0; 0; 0; 0; 
79171;79177;2019/05/25 18:22:41;-1; -1; -1; -1; -1; 100; 0; 0; 0; 0; 0;0; 0; 0;0; 0; 0;0; 0; 0;330; 146; 8.86611; 316.923; 152.796; 3; 0; 1; 0.551423; -1.03787; -2.23675;0.601852; -1.06417; -2.26813;0; 0; 0;0; 0; 0;0; 0; 0; 0; 0; 0; 0; 0; 0; 0; 200; 228; 1024; 1024; 1024; 228; 1024; 1024; 1024; 1; 4; 0; 1900; 50; 35; 0; 0; 0; 0; 0; 0; 0; 
79172;79178;2019/05/25 18:22:41;-1; -1; -1; -1; -1; 100; 0; 0; 0; 0; 0;0; 0; 0;0; 0; 0;0; 0; 0;330; 146; 8.86611; 320.602; 151.115; 4; 0; 1; 0.551423; -1.03787; -2.23675;0.601852; -1.06417; -2.26813;0; 0; 0;0; 0; 0;0; 0; 0; 0; 0; 0; 0; 0; 0; 0; 200; 228; 1024; 1024; 1024; 228; 1024; 1024; 1024; 1; 4; 0; 1900; 50; 35; 0; 0; 0; 0; 0; 0; 0; 
79173;79179;2019/05/25 18:22:41;-1; -1; -1; -1; -1; 100; 0; 0; 0; 0; 0;0; 0; 0;0; 0; 0;0; 0; 0;330; 146; 8.86611; 324.229; 149.458; 5; 0; 1; 0.551423; -1.03787; -2.23675;0.601852; -1.06417; -2.26813;0; 0; 0;0; 0; 0;0; 0; 0; 0; 0; 0; 0; 0; 0; 0; 200; 228; 1024; 1024; 1024; 228; 1024; 1024; 1024; 1; 4; 0; 1900; 50; 35; 0; 0; 0; 0; 0; 0; 0; 
79174;79180;2019/05/25 18:22:41;-1; -1; -1; -1; -1; 100; 0; 0; 0; 0; 0;0; 0; 0;0; 0; 0;0; 0; 0;330; 146; 8.86611; 327.909; 147.776; 6; 0; 1; 0.551423; -1.03787; -2.23675;0.601852; -1.06417; -2.26813;0; 0; 0;0; 0; 0;0; 0; 0; 0; 0; 0; 0; 0; 0; 0; 200; 228; 1024; 1024; 1024; 228; 1024; 1024; 1024; 1; 4; 0; 1900; 50; 35; 0; 0; 0; 0; 0; 0; 0; 
79175;79181;2019/05/25 18:22:41;-1; -1; -1; -1; -1; 100; 0; 0; 0; 0; 0;0; 0; 0;0; 0; 0;0; 0; 0;330; 146; 8.86611; 331.615; 146.082; 7; 0; 1; 0.551423; -1.03787; -2.23675;0.601852; -1.06417; -2.26813;0; 0; 0;0; 0; 0;0; 0; 0; 0; 0; 0; 0; 0; 0; 0; 200; 228; 1024; 1024; 1024; 228; 1024; 1024; 1024; 1; 4; 0; 1900; 50; 35; 0; 0; 0; 0; 0; 0; 0; 
79176;79182;2019/05/25 18:22:41;-1; -1; -1; -1; -1; 100; 0; 0; 0; 0; 0;0; 0; 0;0; 0; 0;0; 0; 0;330; 146; 8.86611; 335.241; 144.425; 8; 0; 1; 0.551423; -1.03787; -2.23675;0.601852; -1.06417; -2.26813;0; 0; 0;0; 0; 0;0; 0; 0; 0; 0; 0; 0; 0; 0; 0; 200; 228; 1024; 1024; 1024; 228; 1024; 1024; 1024; 1; 4; 0; 1900; 50; 35; 0; 0; 0; 0; 0; 0; 0; 
79177;79183;2019/05/25 18:22:41;-1; -1; -1; -1; -1; 100; 0; 0; 0; 0; 0;0; 0; 0;0; 0; 0;0; 0; 0;330; 146; 8.86611; 338.921; 142.743; 9; 0; 1; 0.551423; -1.03787; -2.23675;0.601852; -1.06417; -2.26813;0; 0; 0;0; 0; 0;0; 0; 0; 0; 0; 0; 0; 0; 0; 0; 200; 228; 1024; 1024; 1024; 228; 1024; 1024; 1024; 1; 4; 0; 1900; 50; 35; 0; 0; 0; 0; 0; 0; 0; 
79178;79184;2019/05/25 18:22:41;-1; -1; -1; -1; -1; 100; 0; 0; 0; 0; 0;0; 0; 0;0; 0; 0;0; 0; 0;330; 146; 8.86611; 342.601; 141.061; 10; 0; 0; 0; 0; 0;0; 0; 0;0; 0; 0;0; 0; 0;0; 0; 0; 0; 0; 0; 0; 0; 0; 0; 200; 228; 1024; 1024; 1024; 228; 1024; 1024; 1024; 1; 4; 0; 1900; 50; 35; 0; 0; 0; 0; 0; 0; 0; 
79179;79185;2019/05/25 18:22:41;-1; -1; -1; -1; -1; 100; 0; 0; 0; 0; 0;0; 0; 0;0; 0; 0;0; 0; 0;330; 146; 8.86611; -1; -1; 11; 0; 0; 0; 0; 0;0; 0; 0;0; 0; 0;0; 0; 0;0; 0; 0; 0; 0; 0; 0; 0; 0; 0; 200; 228; 1024; 1024; 1024; 228; 1024; 1024; 1024; 1; 4; 0; 1900; 50; 35; 0; 0; 0; 0; 0; 0; 0; 
79180;79186;2019/05/25 18:22:41;-1; -1; -1; -1; -1; 100; 0; 0; 0; 0; 0;0; 0; 0;0; 0; 0;0; 0; 0;330; 146; 8.86611; -1; -1; 12; 0; 0; 0; 0; 0;0; 0; 0;0; 0; 0;0; 0; 0;0; 0; 0; 0; 0; 0; 0; 0; 0; 0; 200; 228; 1024; 1024; 1024; 228; 1024; 1024; 1024; 1; 4; 0; 1900; 50; 35; 0; 0; 0; 0; 0; 0; 0; 
79181;79187;2019/05/25 18:22:41;-1; -1; -1; -1; -1; 100; 0; 0; 0; 0; 0;0; 0; 0;0; 0; 0;0; 0; 0;330; 146; 8.86611; -1; -1; 13; 0; 0; 0; 0; 0;0; 0; 0;0; 0; 0;0; 0; 0;0; 0; 0; 0; 0; 0; 0; 0; 0; 0; 200; 228; 1024; 1024; 1024; 228; 1024; 1024; 1024; 1; 4; 0; 1900; 50; 35; 0; 0; 0; 0; 0; 0; 0; 
79182;79188;2019/05/25 18:22:41;-1; -1; -1; -1; -1; 100; 0; 0; 0; 0; 0;0; 0; 0;0; 0; 0;0; 0; 0;330; 146; 8.86611; -1; -1; 14; 0; 0; 0; 0; 0;0; 0; 0;0; 0; 0;0; 0; 0;0; 0; 0; 0; 0; 0; 0; 0; 0; 0; 200; 228; 1024; 1024; 1024; 228; 1024; 1024; 1024; 1; 4; 0; 1900; 50; 35; 0; 0; 0; 0; 0; 0; 0; 
79183;79189;2019/05/25 18:22:41;-1; -1; -1; -1; -1; 100; 0; 0; 0; 0; 0;0; 0; 0;0; 0; 0;0; 0; 0;330; 146; 8.86611; -1; -1; 15; 0; 0; 0; 0; 0;0; 0; 0;0; 0; 0;0; 0; 0;0; 0; 0; 0; 0; 0; 0; 0; 0; 0; 200; 228; 1024; 1024; 1024; 228; 1024; 1024; 1024; 1; 4; 0; 1900; 50; 35; 0; 0; 0; 0; 0; 0; 0; 
79184;79190;2019/05/25 18:22:41;-1; -1; -1; -1; -1; 100; 0; 0; 0; 0; 0;0; 0; 0;0; 0; 0;0; 0; 0;330; 146; 8.86611; -1; -1; 16; 0; 0; 0; 0; 0;0; 0; 0;0; 0; 0;0; 0; 0;0; 0; 0; 0; 0; 0; 0; 0; 0; 0; 200; 228; 1024; 1024; 1024; 228; 1024; 1024; 1024; 1; 4; 0; 1900; 50; 35; 0; 0; 0; 0; 0; 0; 0; 
79185;79191;2019/05/25 18:22:41;-1; -1; -1; -1; -1; 100; 0; 0; 0; 0; 0;0; 0; 0;0; 0; 0;0; 0; 0;330; 146; 8.86611; -1; -1; 17; 0; 0; 0; 0; 0;0; 0; 0;0; 0; 0;0; 0; 0;0; 0; 0; 0; 0; 0; 0; 0; 0; 0; 200; 228; 1024; 1024; 1024; 228; 1024; 1024; 1024; 1; 4; 0; 1900; 50; 35; 0; 0; 0; 0; 0; 0; 0; 
79186;79192;2019/05/25 18:22:41;-1; -1; -1; -1; -1; 100; 0; 0; 0; 0; 0;0; 0; 0;0; 0; 0;0; 0; 0;330; 146; 8.86611; -1; -1; 18; 0; 0; 0; 0; 0;0; 0; 0;0; 0; 0;0; 0; 0;0; 0; 0; 0; 0; 0; 0; 0; 0; 0; 200; 228; 1024; 1024; 1024; 228; 1024; 1024; 1024; 1; 4; 0; 1900; 50; 35; 0; 0; 0; 0; 0; 0; 0; 
79187;79193;2019/05/25 18:22:41;-1; -1; -1; -1; -1; 100; 0; 0; 0; 0; 0;0; 0; 0;0; 0; 0;0; 0; 0;330; 146; 8.86611; -1; -1; 19; 0; 0; 0; 0; 0;0; 0; 0;0; 0; 0;0; 0; 0;0; 0; 0; 0; 0; 0; 0; 0; 0; 0; 200; 228; 1024; 1024; 1024; 228; 1024; 1024; 1024; 1; 4; 0; 1900; 50; 35; 0; 0; 0; 0; 0; 0; 0; 
79188;79194;2019/05/25 18:22:41;-1; -1; -1; -1; -1; 100; 0; 0; 0; 0; 0;0; 0; 0;0; 0; 0;0; 0; 0;330; 146; 8.86611; -1; -1; 20; 0; 0; 0; 0; 0;0; 0; 0;0; 0; 0;0; 0; 0;0; 0; 0; 0; 0; 0; 0; 0; 0; 0; 200; 228; 1024; 1024; 1024; 228; 1024; 1024; 1024; 1; 4; 0; 1900; 50; 35; 0; 0; 0; 0; 0; 0; 0; 
79189;79195;2019/05/25 18:22:41;-1; -1; -1; -1; -1; 100; 0; 0; 0; 0; 0;0; 0; 0;0; 0; 0;0; 0; 0;330; 146; 8.86611; -1; -1; 21; 0; 0; 0; 0; 0;0; 0; 0;0; 0; 0;0; 0; 0;0; 0; 0; 0; 0; 0; 0; 0; 0; 0; 200; 228; 1024; 1024; 1024; 228; 1024; 1024; 1024; 1; 4; 0; 1900; 50; 35; 0; 0; 0; 0; 0; 0; 0; 
79190;79196;2019/05/25 18:22:41;-1; -1; -1; -1; -1; 100; 0; 0; 0; 0; 0;0; 0; 0;0; 0; 0;0; 0; 0;330; 146; 8.86611; -1; -1; 22; 0; 0; 0; 0; 0;0; 0; 0;0; 0; 0;0; 0; 0;0; 0; 0; 0; 0; 0; 0; 0; 0; 0; 200; 228; 1024; 1024; 1024; 228; 1024; 1024; 1024; 1; 4; 0; 1900; 50; 35; 0; 0; 0; 0; 0; 0; 0; 
79191;79197;2019/05/25 18:22:41;-1; -1; -1; -1; -1; 100; 0; 0; 0; 0; 0;0; 0; 0;0; 0; 0;0; 0; 0;330; 146; 8.86611; -1; -1; 23; 0; 0; 0; 0; 0;0; 0; 0;0; 0; 0;0; 0; 0;0; 0; 0; 0; 0; 0; 0; 0; 0; 0; 200; 228; 1024; 1024; 1024; 228; 1024; 1024; 1024; 1; 4; 0; 1900; 50; 35; 0; 0; 0; 0; 0; 0; 0; 
79192;79198;2019/05/25 18:22:41;-1; -1; -1; -1; -1; 100; 0; 0; 0; 0; 0;0; 0; 0;0; 0; 0;0; 0; 0;330; 146; 8.86611; -1; -1; 24; 0; 0; 0; 0; 0;0; 0; 0;0; 0; 0;0; 0; 0;0; 0; 0; 0; 0; 0; 0; 0; 0; 0; 200; 228; 1024; 1024; 1024; 228; 1024; 1024; 1024; 1; 4; 0; 1900; 50; 35; 0; 0; 0; 0; 0; 0; 0; 
79193;79199;2019/05/25 18:22:41;-1; -1; -1; -1; -1; 100; 0; 0; 0; 0; 0;0; 0; 0;0; 0; 0;0; 0; 0;330; 146; 8.86611; -1; -1; 25; 0; 0; 0; 0; 0;0; 0; 0;0; 0; 0;0; 0; 0;0; 0; 0; 0; 0; 0; 0; 0; 0; 0; 200; 228; 1024; 1024; 1024; 228; 1024; 1024; 1024; 1; 4; 0; 1900; 50; 35; 0; 0; 0; 0; 0; 0; 0; 
79194;79200;2019/05/25 18:22:41;-1; -1; -1; -1; -1; 100; 0; 0; 0; 0; 0;0; 0; 0;0; 0; 0;0; 0; 0;330; 146; 8.86611; -1; -1; 26; 0; 0; 0; 0; 0;0; 0; 0;0; 0; 0;0; 0; 0;0; 0; 0; 0; 0; 0; 0; 0; 0; 0; 200; 228; 1024; 1024; 1024; 228; 1024; 1024; 1024; 1; 4; 0; 1900; 50; 35; 0; 0; 0; 0; 0; 0; 0; 
79195;79201;2019/05/25 18:22:41;-1; -1; -1; -1; -1; 100; 0; 0; 0; 0; 0;0; 0; 0;0; 0; 0;0; 0; 0;330; 146; 8.86611; -1; -1; 27; 0; 0; 0; 0; 0;0; 0; 0;0; 0; 0;0; 0; 0;0; 0; 0; 0; 0; 0; 0; 0; 0; 0; 200; 228; 1024; 1024; 1024; 228; 1024; 1024; 1024; 1; 4; 0; 1900; 50; 35; 0; 0; 0; 0; 0; 0; 0; 
79196;79202;2019/05/25 18:22:41;-1; -1; -1; -1; -1; 100; 0; 0; 0; 0; 0;0; 0; 0;0; 0; 0;0; 0; 0;330; 146; 8.86611; -1; -1; 28; 0; 0; 0; 0; 0;0; 0; 0;0; 0; 0;0; 0; 0;0; 0; 0; 0; 0; 0; 0; 0; 0; 0; 200; 228; 1024; 1024; 1024; 228; 1024; 1024; 1024; 1; 4; 0; 1900; 50; 35; 0; 0; 0; 0; 0; 0; 0; 
79197;79203;2019/05/25 18:22:41;-1; -1; -1; -1; -1; 100; 0; 0; 0; 0; 0;0; 0; 0;0; 0; 0;0; 0; 0;330; 146; 8.86611; -1; -1; 29; 0; 0; 0; 0; 0;0; 0; 0;0; 0; 0;0; 0; 0;0; 0; 0; 0; 0; 0; 0; 0; 0; 0; 200; 228; 1024; 1024; 1024; 228; 1024; 1024; 1024; 1; 4; 0; 1900; 50; 35; 0; 0; 0; 0; 0; 0; 0; 
79198;79204;2019/05/25 18:22:41;-1; -1; -1; -1; -1; 100; 0; 0; 0; 0; 0;0; 0; 0;0; 0; 0;0; 0; 0;330; 146; 8.86611; -1; -1; 30; 0; 0; 0; 0; 0;0; 0; 0;0; 0; 0;0; 0; 0;0; 0; 0; 0; 0; 0; 0; 0; 0; 0; 200; 228; 1024; 1024; 1024; 228; 1024; 1024; 1024; 1; 4; 0; 1900; 50; 35; 0; 0; 0; 0; 0; 0; 0; 
79199;79205;2019/05/25 18:22:41;-1; -1; -1; -1; -1; 100; 0; 0; 0; 0; 0;0; 0; 0;0; 0; 0;0; 0; 0;-1; -1; -1; -1; -1; 31; 0; 0; 0; 0; 0;0; 0; 0;0; 0; 0;0; 0; 0;0; 0; 0; 0; 0; 0; 0; 0; 0; 0; 200; 228; 1024; 1024; 1024; 228; 1024; 1024; 1024; 1; 4; 0; 1900; 50; 35; 0; 0; 0; 0; 0; 0; 0; 
79200;79206;2019/05/25 18:22:41;-1; -1; -1; -1; -1; 100; 0; 0; 0; 0; 0;0; 0; 0;0; 0; 0;0; 0; 0;-1; -1; -1; -1; -1; 32; 0; 0; 0; 0; 0;0; 0; 0;0; 0; 0;0; 0; 0;0; 0; 0; 0; 0; 0; 0; 0; 0; 0; 200; 228; 1024; 1024; 1024; 228; 1024; 1024; 1024; 1; 4; 0; 1900; 50; 35; 0; 0; 0; 0; 0; 0; 0; 
79201;79207;2019/05/25 18:22:41;-1; -1; -1; -1; -1; 100; 0; 0; 0; 0; 0;0; 0; 0;0; 0; 0;0; 0; 0;-1; -1; -1; -1; -1; 33; 0; 0; 0; 0; 0;0; 0; 0;0; 0; 0;0; 0; 0;0; 0; 0; 0; 0; 0; 0; 0; 0; 0; 200; 228; 1024; 1024; 1024; 228; 1024; 1024; 1024; 1; 4; 0; 1900; 50; 35; 0; 0; 0; 0; 0; 0; 0; 
79202;79208;2019/05/25 18:22:41;-1; -1; -1; -1; -1; 100; 0; 0; 0; 0; 0;0; 0; 0;0; 0; 0;0; 0; 0;-1; -1; -1; -1; -1; 34; 0; 0; 0; 0; 0;0; 0; 0;0; 0; 0;0; 0; 0;0; 0; 0; 0; 0; 0; 0; 0; 0; 0; 200; 228; 1024; 1024; 1024; 228; 1024; 1024; 1024; 1; 4; 0; 1900; 50; 35; 0; 0; 0; 0; 0; 0; 0; 
79203;79209;2019/05/25 18:22:41;-1; -1; -1; -1; -1; 100; 0; 0; 0; 0; 0;0; 0; 0;0; 0; 0;0; 0; 0;-1; -1; -1; -1; -1; 35; 0; 0; 0; 0; 0;0; 0; 0;0; 0; 0;0; 0; 0;0; 0; 0; 0; 0; 0; 0; 0; 0; 0; 200; 228; 1024; 1024; 1024; 228; 1024; 1024; 1024; 1; 4; 0; 1900; 50; 35; 0; 0; 0; 0; 0; 0; 0; 
79204;79210;2019/05/25 18:22:41;-1; -1; -1; -1; -1; 100; 0; 0; 0; 0; 0;0; 0; 0;0; 0; 0;0; 0; 0;518; 178; 7.89108; -1; -1; 0; 1; 1; -0.569747; -1.32839; -2.39211;-0.569747; -1.32839; -2.39211;0; 0; 0;0; 0; 0;0; 0; 0; 0; 0; 0; 0; 0; 0; 0; 200; 228; 1024; 1024; 1024; 228; 1024; 1024; 1024; 1; 4; 0; 1900; 50; 35; 0; 0; 0; 0; 0; 0; 0; 
79205;79211;2019/05/25 18:22:41;-1; -1; -1; -1; -1; 100; 0; 0; 0; 0; 0;0; 0; 0;0; 0; 0;0; 0; 0;518; 178; 7.89108; 518; 178; 1; 0; 1; -0.569747; -1.32839; -2.39211;-0.569747; -1.32839; -2.39211;0; 0; 0;0; 0; 0;0; 0; 0; 0; 0; 0; 0; 0; 0; 0; 200; 228; 1024; 1024; 1024; 228; 1024; 1024; 1024; 1; 4; 0; 1900; 50; 35; 0; 0; 0; 0; 0; 0; 0; 
79206;79212;2019/05/25 18:22:41;-1; -1; -1; -1; -1; 100; 0; 0; 0; 0; 0;0; 0; 0;0; 0; 0;0; 0; 0;518; 178; 7.89108; 518; 178; 2; 0; 1; -0.569747; -1.32839; -2.39211;-0.569747; -1.32839; -2.39211;0; 0; 0;0; 0; 0;0; 0; 0; 0; 0; 0; 0; 0; 0; 0; 200; 228; 1024; 1024; 1024; 228; 1024; 1024; 1024; 1; 4; 0; 1900; 50; 35; 0; 0; 0; 0; 0; 0; 0; 
79207;79213;2019/05/25 18:22:41;-1; -1; -1; -1; -1; 100; 0; 0; 0; 0; 0;0; 0; 0;0; 0; 0;0; 0; 0;518; 178; 7.89108; 518; 178; 3; 0; 1; -0.569747; -1.32839; -2.39211;-0.569747; -1.32839; -2.39211;0; 0; 0;0; 0; 0;0; 0; 0; 0; 0; 0; 0; 0; 0; 0; 200; 228; 1024; 1024; 1024; 228; 1024; 1024; 1024; 1; 4; 0; 1900; 50; 35; 0; 0; 0; 0; 0; 0; 0; 
79208;79214;2019/05/25 18:22:41;-1; -1; -1; -1; -1; 100; 0; 0; 0; 0; 0;0; 0; 0;0; 0; 0;0; 0; 0;518; 178; 7.89108; 518; 178; 4; 0; 1; -0.569747; -1.32839; -2.39211;-0.569747; -1.32839; -2.39211;0; 0; 0;0; 0; 0;0; 0; 0; 0; 0; 0; 0; 0; 0; 0; 200; 228; 1024; 1024; 1024; 228; 1024; 1024; 1024; 1; 4; 0; 1900; 50; 35; 0; 0; 0; 0; 0; 0; 0; 
79209;79215;2019/05/25 18:22:41;-1; -1; -1; -1; -1; 100; 0; 0; 0; 0; 0;0; 0; 0;0; 0; 0;0; 0; 0;518; 178; 7.89108; 518; 178; 5; 0; 1; -0.569747; -1.32839; -2.39211;-0.569747; -1.32839; -2.39211;0; 0; 0;0; 0; 0;0; 0; 0; 0; 0; 0; 0; 0; 0; 0; 200; 228; 1024; 1024; 1024; 228; 1024; 1024; 1024; 1; 4; 0; 1900; 50; 35; 0; 0; 0; 0; 0; 0; 0; 
79210;79216;2019/05/25 18:22:41;-1; -1; -1; -1; -1; 100; 0; 0; 0; 0; 0;0; 0; 0;0; 0; 0;0; 0; 0;518; 178; 7.89108; 518; 178; 6; 0; 1; -0.569747; -1.32839; -2.39211;-0.569747; -1.32839; -2.39211;0; 0; 0;0; 0; 0;0; 0; 0; 0; 0; 0; 0; 0; 0; 0; 200; 228; 1024; 1024; 1024; 228; 1024; 1024; 1024; 1; 4; 0; 1900; 50; 35; 0; 0; 0; 0; 0; 0; 0; 
79211;79217;2019/05/25 18:22:41;-1; -1; -1; -1; -1; 100; 0; 0; 0; 0; 0;0; 0; 0;0; 0; 0;0; 0; 0;518; 178; 7.89108; 518; 178; 7; 0; 1; -0.569747; -1.32839; -2.39211;-0.569747; -1.32839; -2.39211;0; 0; 0;0; 0; 0;0; 0; 0; 0; 0; 0; 0; 0; 0; 0; 200; 228; 1024; 1024; 1024; 228; 1024; 1024; 1024; 1; 4; 0; 1900; 50; 35; 0; 0; 0; 0; 0; 0; 0; 
79212;79218;2019/05/25 18:22:41;-1; -1; -1; -1; -1; 100; 0; 0; 0; 0; 0;0; 0; 0;0; 0; 0;0; 0; 0;518; 178; 7.89108; 518; 178; 8; 0; 1; -0.569747; -1.32839; -2.39211;-0.569747; -1.32839; -2.39211;0; 0; 0;0; 0; 0;0; 0; 0; 0; 0; 0; 0; 0; 0; 0; 200; 228; 1024; 1024; 1024; 228; 1024; 1024; 1024; 1; 4; 0; 1900; 50; 35; 0; 0; 0; 0; 0; 0; 0; 
79213;79219;2019/05/25 18:22:41;-1; -1; -1; -1; -1; 100; 0; 0; 0; 0; 0;0; 0; 0;0; 0; 0;0; 0; 0;518; 178; 7.89108; 518; 178; 9; 0; 1; -0.569747; -1.32839; -2.39211;-0.569747; -1.32839; -2.39211;0; 0; 0;0; 0; 0;0; 0; 0; 0; 0; 0; 0; 0; 0; 0; 200; 228; 1024; 1024; 1024; 228; 1024; 1024; 1024; 1; 4; 0; 1900; 50; 35; 0; 0; 0; 0; 0; 0; 0; 
79214;79220;2019/05/25 18:22:41;-1; -1; -1; -1; -1; 100; 0; 0; 0; 0; 0;0; 0; 0;0; 0; 0;0; 0; 0;518; 178; 7.89108; 518; 178; 10; 0; 0; 0; 0; 0;0; 0; 0;0; 0; 0;0; 0; 0;0; 0; 0; 0; 0; 0; 0; 0; 0; 0; 200; 228; 1024; 1024; 1024; 228; 1024; 1024; 1024; 1; 4; 0; 1900; 50; 35; 0; 0; 0; 0; 0; 0; 0; 
79215;79221;2019/05/25 18:22:41;-1; -1; -1; -1; -1; 100; 0; 0; 0; 0; 0;0; 0; 0;0; 0; 0;0; 0; 0;518; 178; 7.89108; -1; -1; 11; 0; 0; 0; 0; 0;0; 0; 0;0; 0; 0;0; 0; 0;0; 0; 0; 0; 0; 0; 0; 0; 0; 0; 200; 228; 1024; 1024; 1024; 228; 1024; 1024; 1024; 1; 4; 0; 1900; 50; 35; 0; 0; 0; 0; 0; 0; 0; 
79216;79222;2019/05/25 18:22:42;-1; -1; -1; -1; -1; 100; 0; 0; 0; 0; 0;0; 0; 0;0; 0; 0;0; 0; 0;518; 178; 7.89108; -1; -1; 12; 0; 0; 0; 0; 0;0; 0; 0;0; 0; 0;0; 0; 0;0; 0; 0; 0; 0; 0; 0; 0; 0; 0; 200; 228; 1024; 1024; 1024; 228; 1024; 1024; 1024; 1; 4; 0; 1900; 50; 35; 0; 0; 0; 0; 0; 0; 0; 
79217;79223;2019/05/25 18:22:42;-1; -1; -1; -1; -1; 100; 0; 0; 0; 0; 0;0; 0; 0;0; 0; 0;0; 0; 0;518; 178; 7.89108; -1; -1; 13; 0; 0; 0; 0; 0;0; 0; 0;0; 0; 0;0; 0; 0;0; 0; 0; 0; 0; 0; 0; 0; 0; 0; 200; 228; 1024; 1024; 1024; 228; 1024; 1024; 1024; 1; 4; 0; 1900; 50; 35; 0; 0; 0; 0; 0; 0; 0; 
79218;79224;2019/05/25 18:22:42;-1; -1; -1; -1; -1; 100; 0; 0; 0; 0; 0;0; 0; 0;0; 0; 0;0; 0; 0;518; 178; 7.89108; -1; -1; 14; 0; 0; 0; 0; 0;0; 0; 0;0; 0; 0;0; 0; 0;0; 0; 0; 0; 0; 0; 0; 0; 0; 0; 200; 228; 1024; 1024; 1024; 228; 1024; 1024; 1024; 1; 4; 0; 1900; 50; 35; 0; 0; 0; 0; 0; 0; 0; 
79219;79225;2019/05/25 18:22:42;-1; -1; -1; -1; -1; 100; 0; 0; 0; 0; 0;0; 0; 0;0; 0; 0;0; 0; 0;518; 178; 7.89108; -1; -1; 15; 0; 0; 0; 0; 0;0; 0; 0;0; 0; 0;0; 0; 0;0; 0; 0; 0; 0; 0; 0; 0; 0; 0; 200; 228; 1024; 1024; 1024; 228; 1024; 1024; 1024; 1; 4; 0; 1900; 50; 35; 0; 0; 0; 0; 0; 0; 0; 
79220;79226;2019/05/25 18:22:42;-1; -1; -1; -1; -1; 100; 0; 0; 0; 0; 0;0; 0; 0;0; 0; 0;0; 0; 0;518; 178; 7.89108; -1; -1; 16; 0; 0; 0; 0; 0;0; 0; 0;0; 0; 0;0; 0; 0;0; 0; 0; 0; 0; 0; 0; 0; 0; 0; 200; 228; 1024; 1024; 1024; 228; 1024; 1024; 1024; 1; 4; 0; 1900; 50; 35; 0; 0; 0; 0; 0; 0; 0; 
79221;79227;2019/05/25 18:22:42;-1; -1; -1; -1; -1; 100; 0; 0; 0; 0; 0;0; 0; 0;0; 0; 0;0; 0; 0;518; 178; 7.89108; -1; -1; 17; 0; 0; 0; 0; 0;0; 0; 0;0; 0; 0;0; 0; 0;0; 0; 0; 0; 0; 0; 0; 0; 0; 0; 200; 228; 1024; 1024; 1024; 228; 1024; 1024; 1024; 1; 4; 0; 1900; 50; 35; 0; 0; 0; 0; 0; 0; 0; 
79222;79228;2019/05/25 18:22:42;-1; -1; -1; -1; -1; 100; 0; 0; 0; 0; 0;0; 0; 0;0; 0; 0;0; 0; 0;518; 178; 7.89108; -1; -1; 18; 0; 0; 0; 0; 0;0; 0; 0;0; 0; 0;0; 0; 0;0; 0; 0; 0; 0; 0; 0; 0; 0; 0; 200; 228; 1024; 1024; 1024; 228; 1024; 1024; 1024; 1; 4; 0; 1900; 50; 35; 0; 0; 0; 0; 0; 0; 0; 
79223;79229;2019/05/25 18:22:42;-1; -1; -1; -1; -1; 100; 0; 0; 0; 0; 0;0; 0; 0;0; 0; 0;0; 0; 0;518; 178; 7.89108; -1; -1; 19; 0; 0; 0; 0; 0;0; 0; 0;0; 0; 0;0; 0; 0;0; 0; 0; 0; 0; 0; 0; 0; 0; 0; 200; 228; 1024; 1024; 1024; 228; 1024; 1024; 1024; 1; 4; 0; 1900; 50; 35; 0; 0; 0; 0; 0; 0; 0; 
79224;79230;2019/05/25 18:22:42;-1; -1; -1; -1; -1; 100; 0; 0; 0; 0; 0;0; 0; 0;0; 0; 0;0; 0; 0;518; 178; 7.89108; -1; -1; 20; 0; 0; 0; 0; 0;0; 0; 0;0; 0; 0;0; 0; 0;0; 0; 0; 0; 0; 0; 0; 0; 0; 0; 200; 228; 1024; 1024; 1024; 228; 1024; 1024; 1024; 1; 4; 0; 1900; 50; 35; 0; 0; 0; 0; 0; 0; 0; 
79225;79231;2019/05/25 18:22:42;-1; -1; -1; -1; -1; 100; 0; 0; 0; 0; 0;0; 0; 0;0; 0; 0;0; 0; 0;518; 178; 7.89108; -1; -1; 21; 0; 0; 0; 0; 0;0; 0; 0;0; 0; 0;0; 0; 0;0; 0; 0; 0; 0; 0; 0; 0; 0; 0; 200; 228; 1024; 1024; 1024; 228; 1024; 1024; 1024; 1; 4; 0; 1900; 50; 35; 0; 0; 0; 0; 0; 0; 0; 
79226;79232;2019/05/25 18:22:42;-1; -1; -1; -1; -1; 100; 0; 0; 0; 0; 0;0; 0; 0;0; 0; 0;0; 0; 0;518; 178; 7.89108; -1; -1; 22; 0; 0; 0; 0; 0;0; 0; 0;0; 0; 0;0; 0; 0;0; 0; 0; 0; 0; 0; 0; 0; 0; 0; 200; 228; 1024; 1024; 1024; 228; 1024; 1024; 1024; 1; 4; 0; 1900; 50; 35; 0; 0; 0; 0; 0; 0; 0; 
79227;79233;2019/05/25 18:22:42;-1; -1; -1; -1; -1; 100; 0; 0; 0; 0; 0;0; 0; 0;0; 0; 0;0; 0; 0;518; 178; 7.89108; -1; -1; 23; 0; 0; 0; 0; 0;0; 0; 0;0; 0; 0;0; 0; 0;0; 0; 0; 0; 0; 0; 0; 0; 0; 0; 200; 228; 1024; 1024; 1024; 228; 1024; 1024; 1024; 1; 4; 0; 1900; 50; 35; 0; 0; 0; 0; 0; 0; 0; 
79228;79234;2019/05/25 18:22:42;-1; -1; -1; -1; -1; 100; 0; 0; 0; 0; 0;0; 0; 0;0; 0; 0;0; 0; 0;518; 178; 7.89108; -1; -1; 24; 0; 0; 0; 0; 0;0; 0; 0;0; 0; 0;0; 0; 0;0; 0; 0; 0; 0; 0; 0; 0; 0; 0; 200; 228; 1024; 1024; 1024; 228; 1024; 1024; 1024; 1; 4; 0; 1900; 50; 35; 0; 0; 0; 0; 0; 0; 0; 
79229;79235;2019/05/25 18:22:42;-1; -1; -1; -1; -1; 100; 0; 0; 0; 0; 0;0; 0; 0;0; 0; 0;0; 0; 0;518; 178; 7.89108; -1; -1; 25; 0; 0; 0; 0; 0;0; 0; 0;0; 0; 0;0; 0; 0;0; 0; 0; 0; 0; 0; 0; 0; 0; 0; 200; 228; 1024; 1024; 1024; 228; 1024; 1024; 1024; 1; 4; 0; 1900; 50; 35; 0; 0; 0; 0; 0; 0; 0; 
79230;79236;2019/05/25 18:22:42;-1; -1; -1; -1; -1; 100; 0; 0; 0; 0; 0;0; 0; 0;0; 0; 0;0; 0; 0;518; 178; 7.89108; -1; -1; 26; 0; 0; 0; 0; 0;0; 0; 0;0; 0; 0;0; 0; 0;0; 0; 0; 0; 0; 0; 0; 0; 0; 0; 200; 228; 1024; 1024; 1024; 228; 1024; 1024; 1024; 1; 4; 0; 1900; 50; 35; 0; 0; 0; 0; 0; 0; 0; 
79231;79237;2019/05/25 18:22:42;-1; -1; -1; -1; -1; 100; 0; 0; 0; 0; 0;0; 0; 0;0; 0; 0;0; 0; 0;518; 178; 7.89108; -1; -1; 27; 0; 0; 0; 0; 0;0; 0; 0;0; 0; 0;0; 0; 0;0; 0; 0; 0; 0; 0; 0; 0; 0; 0; 200; 228; 1024; 1024; 1024; 228; 1024; 1024; 1024; 1; 4; 0; 1900; 50; 35; 0; 0; 0; 0; 0; 0; 0; 
79232;79238;2019/05/25 18:22:42;-1; -1; -1; -1; -1; 100; 0; 0; 0; 0; 0;0; 0; 0;0; 0; 0;0; 0; 0;518; 178; 7.89108; -1; -1; 28; 0; 0; 0; 0; 0;0; 0; 0;0; 0; 0;0; 0; 0;0; 0; 0; 0; 0; 0; 0; 0; 0; 0; 200; 228; 1024; 1024; 1024; 228; 1024; 1024; 1024; 1; 4; 0; 1900; 50; 35; 0; 0; 0; 0; 0; 0; 0; 
79233;79239;2019/05/25 18:22:42;-1; -1; -1; -1; -1; 100; 0; 0; 0; 0; 0;0; 0; 0;0; 0; 0;0; 0; 0;330; 203; 8.08887; -1; -1; 0; 1; 1; 0.604407; -1.41958; -2.24138;0.604407; -1.41958; -2.24138;0; 0; 0;0; 0; 0;0; 0; 0; 0; 0; 0; 0; 0; 0; 0; 200; 228; 1024; 1024; 1024; 228; 1024; 1024; 1024; 1; 4; 0; 1900; 50; 35; 0; 0; 0; 0; 0; 0; 0; 
79234;79240;2019/05/25 18:22:42;-1; -1; -1; -1; -1; 100; 0; 0; 0; 0; 0;0; 0; 0;0; 0; 0;0; 0; 0;330; 203; 8.08887; 330; 203; 1; 0; 1; 0.604407; -1.41958; -2.24138;0.604407; -1.41958; -2.24138;0; 0; 0;0; 0; 0;0; 0; 0; 0; 0; 0; 0; 0; 0; 0; 200; 228; 1024; 1024; 1024; 228; 1024; 1024; 1024; 1; 4; 0; 1900; 50; 35; 0; 0; 0; 0; 0; 0; 0; 
79235;79241;2019/05/25 18:22:42;-1; -1; -1; -1; -1; 100; 0; 0; 0; 0; 0;0; 0; 0;0; 0; 0;0; 0; 0;330; 203; 8.08887; 330; 203; 2; 0; 1; 0.604407; -1.41958; -2.24138;0.604407; -1.41958; -2.24138;0; 0; 0;0; 0; 0;0; 0; 0; 0; 0; 0; 0; 0; 0; 0; 200; 228; 1024; 1024; 1024; 228; 1024; 1024; 1024; 1; 4; 0; 1900; 50; 35; 0; 0; 0; 0; 0; 0; 0; 
79236;79242;2019/05/25 18:22:42;-1; -1; -1; -1; -1; 100; 0; 0; 0; 0; 0;0; 0; 0;0; 0; 0;0; 0; 0;330; 203; 8.08887; 330; 203; 3; 0; 1; 0.604407; -1.41958; -2.24138;0.604407; -1.41958; -2.24138;0; 0; 0;0; 0; 0;0; 0; 0; 0; 0; 0; 0; 0; 0; 0; 200; 228; 1024; 1024; 1024; 228; 1024; 1024; 1024; 1; 4; 0; 1900; 50; 35; 0; 0; 0; 0; 0; 0; 0; 
79237;79243;2019/05/25 18:22:42;-1; -1; -1; -1; -1; 100; 0; 0; 0; 0; 0;0; 0; 0;0; 0; 0;0; 0; 0;330; 203; 8.08887; 330; 203; 4; 0; 1; 0.604407; -1.41958; -2.24138;0.604407; -1.41958; -2.24138;0; 0; 0;0; 0; 0;0; 0; 0; 0; 0; 0; 0; 0; 0; 0; 200; 228; 1024; 1024; 1024; 228; 1024; 1024; 1024; 1; 4; 0; 1900; 50; 35; 0; 0; 0; 0; 0; 0; 0; 
79238;79244;2019/05/25 18:22:42;-1; -1; -1; -1; -1; 100; 0; 0; 0; 0; 0;0; 0; 0;0; 0; 0;0; 0; 0;330; 203; 8.08887; 330; 203; 5; 0; 1; 0.604407; -1.41958; -2.24138;0.604407; -1.41958; -2.24138;0; 0; 0;0; 0; 0;0; 0; 0; 0; 0; 0; 0; 0; 0; 0; 200; 228; 1024; 1024; 1024; 228; 1024; 1024; 1024; 1; 4; 0; 1900; 50; 35; 0; 0; 0; 0; 0; 0; 0; 
79239;79245;2019/05/25 18:22:42;-1; -1; -1; -1; -1; 100; 0; 0; 0; 0; 0;0; 0; 0;0; 0; 0;0; 0; 0;330; 203; 8.08887; 330; 203; 6; 0; 1; 0.604407; -1.41958; -2.24138;0.604407; -1.41958; -2.24138;0; 0; 0;0; 0; 0;0; 0; 0; 0; 0; 0; 0; 0; 0; 0; 200; 228; 1024; 1024; 1024; 228; 1024; 1024; 1024; 1; 4; 0; 1900; 50; 35; 0; 0; 0; 0; 0; 0; 0; 
79240;79246;2019/05/25 18:22:42;-1; -1; -1; -1; -1; 100; 0; 0; 0; 0; 0;0; 0; 0;0; 0; 0;0; 0; 0;330; 203; 8.08887; 330; 203; 7; 0; 1; 0.604407; -1.41958; -2.24138;0.604407; -1.41958; -2.24138;0; 0; 0;0; 0; 0;0; 0; 0; 0; 0; 0; 0; 0; 0; 0; 200; 228; 1024; 1024; 1024; 228; 1024; 1024; 1024; 1; 4; 0; 1900; 50; 35; 0; 0; 0; 0; 0; 0; 0; 
79241;79247;2019/05/25 18:22:42;-1; -1; -1; -1; -1; 100; 0; 0; 0; 0; 0;0; 0; 0;0; 0; 0;0; 0; 0;330; 203; 8.08887; 330; 203; 8; 0; 1; 0.604407; -1.41958; -2.24138;0.604407; -1.41958; -2.24138;0; 0; 0;0; 0; 0;0; 0; 0; 0; 0; 0; 0; 0; 0; 0; 200; 228; 1024; 1024; 1024; 228; 1024; 1024; 1024; 1; 4; 0; 1900; 50; 35; 0; 0; 0; 0; 0; 0; 0; 
79242;79248;2019/05/25 18:22:42;-1; -1; -1; -1; -1; 100; 0; 0; 0; 0; 0;0; 0; 0;0; 0; 0;0; 0; 0;330; 203; 8.08887; 330; 203; 9; 0; 1; 0.604407; -1.41958; -2.24138;0.604407; -1.41958; -2.24138;0; 0; 0;0; 0; 0;0; 0; 0; 0; 0; 0; 0; 0; 0; 0; 200; 228; 1024; 1024; 1024; 228; 1024; 1024; 1024; 1; 4; 0; 1900; 50; 35; 0; 0; 0; 0; 0; 0; 0; 
79243;79249;2019/05/25 18:22:42;-1; -1; -1; -1; -1; 100; 0; 0; 0; 0; 0;0; 0; 0;0; 0; 0;0; 0; 0;330; 203; 8.08887; 330; 203; 10; 0; 0; 0; 0; 0;0; 0; 0;0; 0; 0;0; 0; 0;0; 0; 0; 0; 0; 0; 0; 0; 0; 0; 200; 228; 1024; 1024; 1024; 228; 1024; 1024; 1024; 1; 4; 0; 1900; 50; 35; 0; 0; 0; 0; 0; 0; 0; 
79244;79250;2019/05/25 18:22:42;-1; -1; -1; -1; -1; 100; 0; 0; 0; 0; 0;0; 0; 0;0; 0; 0;0; 0; 0;330; 203; 8.08887; -1; -1; 11; 0; 0; 0; 0; 0;0; 0; 0;0; 0; 0;0; 0; 0;0; 0; 0; 0; 0; 0; 0; 0; 0; 0; 200; 228; 1024; 1024; 1024; 228; 1024; 1024; 1024; 1; 4; 0; 1900; 50; 35; 0; 0; 0; 0; 0; 0; 0; 
79245;79251;2019/05/25 18:22:42;-1; -1; -1; -1; -1; 100; 0; 0; 0; 0; 0;0; 0; 0;0; 0; 0;0; 0; 0;330; 203; 8.08887; -1; -1; 12; 0; 0; 0; 0; 0;0; 0; 0;0; 0; 0;0; 0; 0;0; 0; 0; 0; 0; 0; 0; 0; 0; 0; 200; 228; 1024; 1024; 1024; 228; 1024; 1024; 1024; 1; 4; 0; 1900; 50; 35; 0; 0; 0; 0; 0; 0; 0; 
79246;79252;2019/05/25 18:22:42;-1; -1; -1; -1; -1; 100; 0; 0; 0; 0; 0;0; 0; 0;0; 0; 0;0; 0; 0;330; 203; 8.08887; -1; -1; 13; 0; 0; 0; 0; 0;0; 0; 0;0; 0; 0;0; 0; 0;0; 0; 0; 0; 0; 0; 0; 0; 0; 0; 200; 228; 1024; 1024; 1024; 228; 1024; 1024; 1024; 1; 4; 0; 1900; 50; 35; 0; 0; 0; 0; 0; 0; 0; 
79247;79253;2019/05/25 18:22:42;-1; -1; -1; -1; -1; 100; 0; 0; 0; 0; 0;0; 0; 0;0; 0; 0;0; 0; 0;330; 203; 8.08887; -1; -1; 14; 0; 0; 0; 0; 0;0; 0; 0;0; 0; 0;0; 0; 0;0; 0; 0; 0; 0; 0; 0; 0; 0; 0; 200; 228; 1024; 1024; 1024; 228; 1024; 1024; 1024; 1; 4; 0; 1900; 50; 35; 0; 0; 0; 0; 0; 0; 0; 
79248;79254;2019/05/25 18:22:42;-1; -1; -1; -1; -1; 100; 0; 0; 0; 0; 0;0; 0; 0;0; 0; 0;0; 0; 0;330; 203; 8.08887; -1; -1; 15; 0; 0; 0; 0; 0;0; 0; 0;0; 0; 0;0; 0; 0;0; 0; 0; 0; 0; 0; 0; 0; 0; 0; 200; 228; 1024; 1024; 1024; 228; 1024; 1024; 1024; 1; 4; 0; 1900; 50; 35; 0; 0; 0; 0; 0; 0; 0; 
79249;79255;2019/05/25 18:22:42;-1; -1; -1; -1; -1; 100; 0; 0; 0; 0; 0;0; 0; 0;0; 0; 0;0; 0; 0;330; 203; 8.08887; -1; -1; 16; 0; 0; 0; 0; 0;0; 0; 0;0; 0; 0;0; 0; 0;0; 0; 0; 0; 0; 0; 0; 0; 0; 0; 200; 228; 1024; 1024; 1024; 228; 1024; 1024; 1024; 1; 4; 0; 1900; 50; 35; 0; 0; 0; 0; 0; 0; 0; 
79250;79256;2019/05/25 18:22:42;-1; -1; -1; -1; -1; 100; 0; 0; 0; 0; 0;0; 0; 0;0; 0; 0;0; 0; 0;330; 203; 8.08887; -1; -1; 17; 0; 0; 0; 0; 0;0; 0; 0;0; 0; 0;0; 0; 0;0; 0; 0; 0; 0; 0; 0; 0; 0; 0; 200; 228; 1024; 1024; 1024; 228; 1024; 1024; 1024; 1; 4; 0; 1900; 50; 35; 0; 0; 0; 0; 0; 0; 0; 
79251;79257;2019/05/25 18:22:42;-1; -1; -1; -1; -1; 100; 0; 0; 0; 0; 0;0; 0; 0;0; 0; 0;0; 0; 0;330; 203; 8.08887; -1; -1; 18; 0; 0; 0; 0; 0;0; 0; 0;0; 0; 0;0; 0; 0;0; 0; 0; 0; 0; 0; 0; 0; 0; 0; 200; 228; 1024; 1024; 1024; 228; 1024; 1024; 1024; 1; 4; 0; 1900; 50; 35; 0; 0; 0; 0; 0; 0; 0; 
79252;79258;2019/05/25 18:22:42;-1; -1; -1; -1; -1; 100; 0; 0; 0; 0; 0;0; 0; 0;0; 0; 0;0; 0; 0;330; 203; 8.08887; -1; -1; 19; 0; 0; 0; 0; 0;0; 0; 0;0; 0; 0;0; 0; 0;0; 0; 0; 0; 0; 0; 0; 0; 0; 0; 200; 228; 1024; 1024; 1024; 228; 1024; 1024; 1024; 1; 4; 0; 1900; 50; 35; 0; 0; 0; 0; 0; 0; 0; 
79253;79259;2019/05/25 18:22:42;-1; -1; -1; -1; -1; 100; 0; 0; 0; 0; 0;0; 0; 0;0; 0; 0;0; 0; 0;330; 203; 8.08887; -1; -1; 20; 0; 0; 0; 0; 0;0; 0; 0;0; 0; 0;0; 0; 0;0; 0; 0; 0; 0; 0; 0; 0; 0; 0; 200; 228; 1024; 1024; 1024; 228; 1024; 1024; 1024; 1; 4; 0; 1900; 50; 35; 0; 0; 0; 0; 0; 0; 0; 
79254;79260;2019/05/25 18:22:42;-1; -1; -1; -1; -1; 100; 0; 0; 0; 0; 0;0; 0; 0;0; 0; 0;0; 0; 0;330; 203; 8.08887; -1; -1; 21; 0; 0; 0; 0; 0;0; 0; 0;0; 0; 0;0; 0; 0;0; 0; 0; 0; 0; 0; 0; 0; 0; 0; 200; 228; 1024; 1024; 1024; 228; 1024; 1024; 1024; 1; 4; 0; 1900; 50; 35; 0; 0; 0; 0; 0; 0; 0; 
79255;79261;2019/05/25 18:22:42;-1; -1; -1; -1; -1; 100; 0; 0; 0; 0; 0;0; 0; 0;0; 0; 0;0; 0; 0;330; 203; 8.08887; -1; -1; 22; 0; 0; 0; 0; 0;0; 0; 0;0; 0; 0;0; 0; 0;0; 0; 0; 0; 0; 0; 0; 0; 0; 0; 200; 228; 1024; 1024; 1024; 228; 1024; 1024; 1024; 1; 4; 0; 1900; 50; 35; 0; 0; 0; 0; 0; 0; 0; 
79256;79262;2019/05/25 18:22:42;-1; -1; -1; -1; -1; 100; 0; 0; 0; 0; 0;0; 0; 0;0; 0; 0;0; 0; 0;330; 203; 8.08887; -1; -1; 23; 0; 0; 0; 0; 0;0; 0; 0;0; 0; 0;0; 0; 0;0; 0; 0; 0; 0; 0; 0; 0; 0; 0; 200; 228; 1024; 1024; 1024; 228; 1024; 1024; 1024; 1; 4; 0; 1900; 50; 35; 0; 0; 0; 0; 0; 0; 0; 
79257;79263;2019/05/25 18:22:42;-1; -1; -1; -1; -1; 100; 0; 0; 0; 0; 0;0; 0; 0;0; 0; 0;0; 0; 0;330; 203; 8.08887; -1; -1; 24; 0; 0; 0; 0; 0;0; 0; 0;0; 0; 0;0; 0; 0;0; 0; 0; 0; 0; 0; 0; 0; 0; 0; 200; 228; 1024; 1024; 1024; 228; 1024; 1024; 1024; 1; 4; 0; 1900; 50; 35; 0; 0; 0; 0; 0; 0; 0; 
79258;79264;2019/05/25 18:22:42;-1; -1; -1; -1; -1; 100; 0; 0; 0; 0; 0;0; 0; 0;0; 0; 0;0; 0; 0;330; 203; 8.08887; -1; -1; 25; 0; 0; 0; 0; 0;0; 0; 0;0; 0; 0;0; 0; 0;0; 0; 0; 0; 0; 0; 0; 0; 0; 0; 200; 228; 1024; 1024; 1024; 228; 1024; 1024; 1024; 1; 4; 0; 1900; 50; 35; 0; 0; 0; 0; 0; 0; 0; 
79259;79265;2019/05/25 18:22:42;-1; -1; -1; -1; -1; 100; 0; 0; 0; 0; 0;0; 0; 0;0; 0; 0;0; 0; 0;330; 203; 8.08887; -1; -1; 26; 0; 0; 0; 0; 0;0; 0; 0;0; 0; 0;0; 0; 0;0; 0; 0; 0; 0; 0; 0; 0; 0; 0; 200; 228; 1024; 1024; 1024; 228; 1024; 1024; 1024; 1; 4; 0; 1900; 50; 35; 0; 0; 0; 0; 0; 0; 0; 
79260;79266;2019/05/25 18:22:42;-1; -1; -1; -1; -1; 100; 0; 0; 0; 0; 0;0; 0; 0;0; 0; 0;0; 0; 0;330; 203; 8.08887; -1; -1; 27; 0; 0; 0; 0; 0;0; 0; 0;0; 0; 0;0; 0; 0;0; 0; 0; 0; 0; 0; 0; 0; 0; 0; 200; 228; 1024; 1024; 1024; 228; 1024; 1024; 1024; 1; 4; 0; 1900; 50; 35; 0; 0; 0; 0; 0; 0; 0; 
79261;79267;2019/05/25 18:22:42;-1; -1; -1; -1; -1; 100; 0; 0; 0; 0; 0;0; 0; 0;0; 0; 0;0; 0; 0;330; 203; 8.08887; -1; -1; 28; 0; 0; 0; 0; 0;0; 0; 0;0; 0; 0;0; 0; 0;0; 0; 0; 0; 0; 0; 0; 0; 0; 0; 200; 228; 1024; 1024; 1024; 228; 1024; 1024; 1024; 1; 4; 0; 1900; 50; 35; 0; 0; 0; 0; 0; 0; 0; 
79262;79268;2019/05/25 18:22:42;-1; -1; -1; -1; -1; 100; 0; 0; 0; 0; 0;0; 0; 0;0; 0; 0;0; 0; 0;330; 203; 8.08887; -1; -1; 29; 0; 0; 0; 0; 0;0; 0; 0;0; 0; 0;0; 0; 0;0; 0; 0; 0; 0; 0; 0; 0; 0; 0; 200; 228; 1024; 1024; 1024; 228; 1024; 1024; 1024; 1; 4; 0; 1900; 50; 35; 0; 0; 0; 0; 0; 0; 0; 
79263;79269;2019/05/25 18:22:42;-1; -1; -1; -1; -1; 100; 0; 0; 0; 0; 0;0; 0; 0;0; 0; 0;0; 0; 0;330; 203; 8.08887; -1; -1; 30; 0; 0; 0; 0; 0;0; 0; 0;0; 0; 0;0; 0; 0;0; 0; 0; 0; 0; 0; 0; 0; 0; 0; 200; 228; 1024; 1024; 1024; 228; 1024; 1024; 1024; 1; 4; 0; 1900; 50; 35; 0; 0; 0; 0; 0; 0; 0; 
79264;79270;2019/05/25 18:22:42;-1; -1; -1; -1; -1; 100; 0; 0; 0; 0; 0;0; 0; 0;0; 0; 0;0; 0; 0;-1; -1; -1; -1; -1; 31; 0; 0; 0; 0; 0;0; 0; 0;0; 0; 0;0; 0; 0;0; 0; 0; 0; 0; 0; 0; 0; 0; 0; 200; 228; 1024; 1024; 1024; 228; 1024; 1024; 1024; 1; 4; 0; 1900; 50; 35; 0; 0; 0; 0; 0; 0; 0; 
79265;79271;2019/05/25 18:22:42;-1; -1; -1; -1; -1; 100; 0; 0; 0; 0; 0;0; 0; 0;0; 0; 0;0; 0; 0;-1; -1; -1; -1; -1; 32; 0; 0; 0; 0; 0;0; 0; 0;0; 0; 0;0; 0; 0;0; 0; 0; 0; 0; 0; 0; 0; 0; 0; 200; 228; 1024; 1024; 1024; 228; 1024; 1024; 1024; 1; 4; 0; 1900; 50; 35; 0; 0; 0; 0; 0; 0; 0; 
