ID;RS_ID;time;imLx_drone; imLy_drone; disparity_drone; imLx_pred_drone; imLy_pred_drone; n_frames_lost_drone; n_frames_tracking_drone; foundL_drone; posX_drone; posY_drone; posZ_drone; sposX_drone; sposY_drone; sposZ_drone; svelX_drone; svelY_drone; svelZ_drone; saccX_drone; saccY_drone; saccZ_drone; imLx_insect; imLy_insect; disparity_insect; imLx_pred_insect; imLy_pred_insect; n_frames_lost_insect; n_frames_tracking_insect; foundL_insect; posX_insect; posY_insect; posZ_insect; sposX_insect; sposY_insect; sposZ_insect; svelX_insect; svelY_insect; svelZ_insect; saccX_insect; saccY_insect; saccZ_insect; valid; posErrX; posErrY; posErrZ; velX; velY; velZ; accX; accY; accZ; hoverthrottle; autoThrottle; autoRoll; autoPitch; autoYaw; joyThrottle; joyRoll; joyPitch; joyYaw; joyArmSwitch; joyModeSwitch; joyTakeoffSwitch; throttleP; throttleI; throttleD; dt; dx; dy; dz; velx_sp; vely_sp; velz_sp;
108645;108653;2019/05/25 18:30:52;-1; -1; -1; -1; -1; 100; 0; 0; 0; 0; 0;0; 0; 0;0; 0; 0;0; 0; 0;-1; -1; -1; -1; -1; 5689; 0; 0; 0; 0; 0;0; 0; 0;0; 0; 0;0; 0; 0;0; 0; 0; 0; 0; 0; 0; 0; 0; 0; 200; 228; 1024; 1024; 1024; 228; 1024; 1024; 1024; 1; 4; 0; 1900; 50; 35; 0; 0; 0; 0; 0; 0; 0; 
108646;108654;2019/05/25 18:30:53;-1; -1; -1; -1; -1; 100; 0; 0; 0; 0; 0;0; 0; 0;0; 0; 0;0; 0; 0;-1; -1; -1; -1; -1; 5690; 0; 0; 0; 0; 0;0; 0; 0;0; 0; 0;0; 0; 0;0; 0; 0; 0; 0; 0; 0; 0; 0; 0; 200; 228; 1024; 1024; 1024; 228; 1024; 1024; 1024; 1; 4; 0; 1900; 50; 35; 0; 0; 0; 0; 0; 0; 0; 
108647;108655;2019/05/25 18:30:53;-1; -1; -1; -1; -1; 100; 0; 0; 0; 0; 0;0; 0; 0;0; 0; 0;0; 0; 0;67.3333; 249.333; 16.4984; -1; -1; 0; 1; 1; 1.09109; -0.808381; -1.0151;1.09109; -0.808381; -1.0151;0; 0; 0;0; 0; 0;0; 0; 0; 0; 0; 0; 0; 0; 0; 0; 200; 228; 1024; 1024; 1024; 228; 1024; 1024; 1024; 1; 4; 0; 1900; 50; 35; 0; 0; 0; 0; 0; 0; 0; 
108648;108656;2019/05/25 18:30:53;-1; -1; -1; -1; -1; 100; 0; 0; 0; 0; 0;0; 0; 0;0; 0; 0;0; 0; 0;88; 244.923; 16.3531; 67.3333; 249.333; 0; 2; 1; 1.03769; -0.804769; -1.03217;1.07507; -0.807297; -1.02022;0; 0; 0;0; 0; 0;0; 0; 0; 0; 0; 0; 0; 0; 0; 0; 200; 228; 1024; 1024; 1024; 228; 1024; 1024; 1024; 1; 4; 0; 1900; 50; 35; 0; 0; 0; 0; 0; 0; 0; 
108649;108657;2019/05/25 18:30:53;-1; -1; -1; -1; -1; 100; 0; 0; 0; 0; 0;0; 0; 0;0; 0; 0;0; 0; 0;98; 239; 16.4363; 69.2121; 248.932; 0; 3; 1; 1.00207; -0.786277; -1.0377;1.05317; -0.800991; -1.02546;0; 0; 0;0; 0; 0;0; 0; 0; 0; 0; 0; 0; 0; 0; 0; 200; 228; 1024; 1024; 1024; 228; 1024; 1024; 1024; 1; 4; 0; 1900; 50; 35; 0; 0; 0; 0; 0; 0; 0; 
108650;108658;2019/05/25 18:30:53;-1; -1; -1; -1; -1; 100; 0; 0; 0; 0; 0;0; 0; 0;0; 0; 0;0; 0; 0;123.5; 230.5; 16.6347; 73.8393; 247.336; 0; 4; 1; 0.913597; -0.756451; -1.04057;1.0113; -0.787629; -1.03;0; 0; 0;0; 0; 0;0; 0; 0; 0; 0; 0; 0; 0; 0; 0; 200; 228; 1024; 1024; 1024; 228; 1024; 1024; 1024; 1; 4; 0; 1900; 50; 35; 0; 0; 0; 0; 0; 0; 0; 
108651;108659;2019/05/25 18:30:53;-1; -1; -1; -1; -1; 100; 0; 0; 0; 0; 0;0; 0; 0;0; 0; 0;0; 0; 0;142; 226; 16.4692; 84.1719; 243.833; 0; 5; 1; 0.866702; -0.753118; -1.05918;0.96792; -0.777276; -1.03875;0; 0; 0;0; 0; 0;0; 0; 0; 0; 0; 0; 0; 0; 0; 0; 200; 228; 1024; 1024; 1024; 228; 1024; 1024; 1024; 1; 4; 0; 1900; 50; 35; 0; 0; 0; 0; 0; 0; 0; 
108652;108660;2019/05/25 18:30:53;-1; -1; -1; -1; -1; 100; 0; 0; 0; 0; 0;0; 0; 0;0; 0; 0;0; 0; 0;152; 219; 16.5008; 97.9388; 239.586; 0; 6; 1; 0.834789; -0.7347; -1.06981;0.927981; -0.764503; -1.04807;0; 0; 0;0; 0; 0;0; 0; 0; 0; 0; 0; 0; 0; 0; 0; 200; 228; 1024; 1024; 1024; 228; 1024; 1024; 1024; 1; 4; 0; 1900; 50; 35; 0; 0; 0; 0; 0; 0; 0; 
108653;108661;2019/05/25 18:30:53;-1; -1; -1; -1; -1; 100; 0; 0; 0; 0; 0;0; 0; 0;0; 0; 0;0; 0; 0;175.6; 210.8; 16.5677; 111.838; 234.3; 0; 7; 1; 0.760311; -0.711928; -1.08027;0.87768; -0.748731; -1.05773;0; 0; 0;0; 0; 0;0; 0; 0; 0; 0; 0; 0; 0; 0; 0; 200; 228; 1024; 1024; 1024; 228; 1024; 1024; 1024; 1; 4; 0; 1900; 50; 35; 0; 0; 0; 0; 0; 0; 0; 
108654;108662;2019/05/25 18:30:53;-1; -1; -1; -1; -1; 100; 0; 0; 0; 0; 0;0; 0; 0;0; 0; 0;0; 0; 0;188.8; 206.8; 16.4786; 128.988; 227.983; 0; 8; 1; 0.724434; -0.706063; -1.09335;0.831706; -0.73593; -1.06842;-2.25135; 0.642652; -0.448034;-9.00759; 2.57124; -1.79258;0; 0; 0; 0; 0; 0; 0; 0; 0; 0; 200; 228; 1024; 1024; 1024; 228; 1024; 1024; 1024; 1; 4; 0; 1900; 50; 35; 0; 0; 0; 0; 0; 0; 0; 
108655;108663;2019/05/25 18:30:53;-1; -1; -1; -1; -1; 100; 0; 0; 0; 0; 0;0; 0; 0;0; 0; 0;0; 0; 0;204; 200; 16.9396; 145.643; 222.083; 0; 9; 1; 0.659922; -0.670781; -1.07557;0.780171; -0.716386; -1.07056;-2.44308; 0.724096; -0.449256;-15.1793; 4.43983; -2.87301;0; 0; 0; 0; 0; 0; 0; 0; 0; 0; 200; 228; 1024; 1024; 1024; 228; 1024; 1024; 1024; 1; 4; 0; 1900; 50; 35; 0; 0; 0; 0; 0; 0; 0; 
108656;108664;2019/05/25 18:30:53;-1; -1; -1; -1; -1; 100; 0; 0; 0; 0; 0;0; 0; 0;0; 0; 0;0; 0; 0;223; 195; 17.0517; 162.353; 215.771; 0; 10; 1; 0.599961; -0.654638; -1.07725;0.726108; -0.697861; -1.07257;-2.60273; 0.792306; -0.439261;-19.483; 5.82233; -3.47486;0; 0; 0; 0; 0; 0; 0; 0; 0; 0; 200; 228; 1024; 1024; 1024; 228; 1024; 1024; 1024; 1; 4; 0; 1900; 50; 35; 0; 0; 0; 0; 0; 0; 0; 
108657;108665;2019/05/25 18:30:53;-1; -1; -1; -1; -1; 100; 0; 0; 0; 0; 0;0; 0; 0;0; 0; 0;0; 0; 0;233.5; 190.5; 17.1354; 180.116; 209.673; 0; 11; 1; 0.566442; -0.640932; -1.07983;0.678208; -0.680783; -1.07475;-2.71794; 0.860511; -0.407218;-22.5377; 6.9279; -3.71022;0; 0; 0; 0; 0; 0; 0; 0; 0; 0; 200; 228; 1024; 1024; 1024; 228; 1024; 1024; 1024; 1; 4; 0; 1900; 50; 35; 0; 0; 0; 0; 0; 0; 0; 
108658;108666;2019/05/25 18:30:53;-1; -1; -1; -1; -1; 100; 0; 0; 0; 0; 0;0; 0; 0;0; 0; 0;0; 0; 0;233.5; 190.5; 17.1354; 196.226; 203.889; 1; 0; 1; 0.566442; -0.640932; -1.07983;0.678208; -0.680783; -1.07475;-2.71794; 0.860511; -0.407218;-22.5377; 6.9279; -3.71022;0; 0; 0; 0; 0; 0; 0; 0; 0; 0; 200; 228; 1024; 1024; 1024; 228; 1024; 1024; 1024; 1; 4; 0; 1900; 50; 35; 0; 0; 0; 0; 0; 0; 0; 
108659;108667;2019/05/25 18:30:53;-1; -1; -1; -1; -1; 100; 0; 0; 0; 0; 0;0; 0; 0;0; 0; 0;0; 0; 0;264; 182; 17.299; 197.436; 203.456; 0; 1; 1; 0.473071; -0.615207; -1.08428;0.616667; -0.66111; -1.07761;-2.69783; 0.870699; -0.345565;-22.7698; 7.14116; -3.4106;0; 0; 0; 0; 0; 0; 0; 0; 0; 0; 200; 228; 1024; 1024; 1024; 228; 1024; 1024; 1024; 1; 4; 0; 1900; 50; 35; 0; 0; 0; 0; 0; 0; 0; 
108660;108668;2019/05/25 18:30:53;-1; -1; -1; -1; -1; 100; 0; 0; 0; 0; 0;0; 0; 0;0; 0; 0;0; 0; 0;288; 176; 17.4121; 217.895; 196.819; 0; 2; 1; 0.401193; -0.597425; -1.08752;0.552025; -0.642004; -1.08058;-2.73375; 0.887854; -0.285584;-23.0223; 7.32474; -3.02421;0; 0; 0; 0; 0; 0; 0; 0; 0; 0; 200; 228; 1024; 1024; 1024; 228; 1024; 1024; 1024; 1; 4; 0; 1900; 50; 35; 0; 0; 0; 0; 0; 0; 0; 
108661;108669;2019/05/25 18:30:53;-1; -1; -1; -1; -1; 100; 0; 0; 0; 0; 0;0; 0; 0;0; 0; 0;0; 0; 0;297.889; 172.667; 17.3918; 239.892; 190.204; 0; 3; 1; 0.373276; -0.590449; -1.09451;0.4984; -0.626538; -1.08476;-2.7815; 0.907276; -0.22731;-15.6287; 5.30092; -1.05876;0; 0; 0; 0; 0; 0; 0; 0; 0; 0; 200; 228; 1024; 1024; 1024; 228; 1024; 1024; 1024; 1; 4; 0; 1900; 50; 35; 0; 0; 0; 0; 0; 0; 0; 
108662;108670;2019/05/25 18:30:53;-1; -1; -1; -1; -1; 100; 0; 0; 0; 0; 0;0; 0; 0;0; 0; 0;0; 0; 0;313.333; 173.778; 17.3752; 258.96; 184.366; 0; 4; 1; 0.32926; -0.593573; -1.09365;0.447658; -0.616648; -1.08742;-2.80744; 0.885869; -0.194125;-10.6248; 3.73447; 0.23832;0; 0; 0; 0; 0; 0; 0; 0; 0; 0; 200; 228; 1024; 1024; 1024; 228; 1024; 1024; 1024; 1; 4; 0; 1900; 50; 35; 0; 0; 0; 0; 0; 0; 0; 
108663;108671;2019/05/25 18:30:53;-1; -1; -1; -1; -1; 100; 0; 0; 0; 0; 0;0; 0; 0;0; 0; 0;0; 0; 0;332.706; 169.059; 17.4262; 277.484; 180.42; 0; 5; 1; 0.272802; -0.581; -1.09853;0.395201; -0.605954; -1.09076;-2.81868; 0.846544; -0.178814;-7.11507; 2.42659; 1.03571;0; 0; 0; 0; 0; 0; 0; 0; 0; 0; 200; 228; 1024; 1024; 1024; 228; 1024; 1024; 1024; 1; 4; 0; 1900; 50; 35; 0; 0; 0; 0; 0; 0; 0; 
108664;108672;2019/05/25 18:30:53;-1; -1; -1; -1; -1; 100; 0; 0; 0; 0; 0;0; 0; 0;0; 0; 0;0; 0; 0;347.8; 169.2; 17.4432; 296.777; 176.145; 0; 6; 1; 0.229338; -0.580756; -1.09721;0.345442; -0.598395; -1.09269;-2.8318; 0.790321; -0.168802;-4.65931; 1.21537; 1.43862;0; 0; 0; 0; 0; 0; 0; 0; 0; 0; 200; 228; 1024; 1024; 1024; 228; 1024; 1024; 1024; 1; 4; 0; 1900; 50; 35; 0; 0; 0; 0; 0; 0; 0; 
108665;108673;2019/05/25 18:30:53;-1; -1; -1; -1; -1; 100; 0; 0; 0; 0; 0;0; 0; 0;0; 0; 0;0; 0; 0;358.75; 170; 17.5614; 315.333; 173.085; 0; 7; 1; 0.196669; -0.578672; -1.08847;0.30081; -0.592478; -1.09143;-2.96128; 0.748452; -0.15651;-3.84834; 0.240712; 1.61866;0; 0; 0; 0; 0; 0; 0; 0; 0; 0; 200; 228; 1024; 1024; 1024; 228; 1024; 1024; 1024; 1; 4; 0; 1900; 50; 35; 0; 0; 0; 0; 0; 0; 0; 
108666;108674;2019/05/25 18:30:53;-1; -1; -1; -1; -1; 100; 0; 0; 0; 0; 0;0; 0; 0;0; 0; 0;0; 0; 0;373.913; 172.174; 17.5752; 332.149; 171.107; 0; 8; 1; 0.153447; -0.583167; -1.08393;0.256601; -0.589685; -1.08918;-2.95875; 0.658401; -0.128295;-3.20921; -0.773609; 1.6005;0; 0; 0; 0; 0; 0; 0; 0; 0; 0; 200; 228; 1024; 1024; 1024; 228; 1024; 1024; 1024; 1; 4; 0; 1900; 50; 35; 0; 0; 0; 0; 0; 0; 0; 
108667;108675;2019/05/25 18:30:53;-1; -1; -1; -1; -1; 100; 0; 0; 0; 0; 0;0; 0; 0;0; 0; 0;0; 0; 0;388; 178; 18.0667; 348.926; 170.351; 0; 9; 1; 0.110349; -0.580207; -1.04481;0.212725; -0.586841; -1.07587;-2.91544; 0.553478; -0.0414886;-2.46011; -1.87625; 1.70196;0; 0; 0; 0; 0; 0; 0; 0; 0; 0; 200; 228; 1024; 1024; 1024; 228; 1024; 1024; 1024; 1; 4; 0; 1900; 50; 35; 0; 0; 0; 0; 0; 0; 0; 
108668;108676;2019/05/25 18:30:53;-1; -1; -1; -1; -1; 100; 0; 0; 0; 0; 0;0; 0; 0;0; 0; 0;0; 0; 0;397; 182; 18.2062; 365.342; 171.605; 0; 10; 1; 0.0848259; -0.584552; -1.03025;0.174356; -0.586154; -1.06218;-2.84008; 0.453795; 0.0758581;-1.60635; -2.85026; 2.09874;0; 0; 0; 0; 0; 0; 0; 0; 0; 0; 200; 228; 1024; 1024; 1024; 228; 1024; 1024; 1024; 1; 4; 0; 1900; 50; 35; 0; 0; 0; 0; 0; 0; 0; 
108669;108677;2019/05/25 18:30:53;-1; -1; -1; -1; -1; 100; 0; 0; 0; 0; 0;0; 0; 0;0; 0; 0;0; 0; 0;408.833; 190.5; 18.1353; 379.857; 173.795; 0; 11; 1; 0.052585; -0.605595; -1.02029;0.137824; -0.591986; -1.04961;-2.73381; 0.328161; 0.210119;-0.624224; -3.7842; 2.81536;0; 0; 0; 0; 0; 0; 0; 0; 0; 0; 200; 228; 1024; 1024; 1024; 228; 1024; 1024; 1024; 1; 4; 0; 1900; 50; 35; 0; 0; 0; 0; 0; 0; 0; 
108670;108678;2019/05/25 18:30:53;-1; -1; -1; -1; -1; 100; 0; 0; 0; 0; 0;0; 0; 0;0; 0; 0;0; 0; 0;415.6; 198.4; 18.4941; 394.023; 178.015; 0; 12; 1; 0.0333; -0.610938; -0.987747;0.106467; -0.597672; -1.03105;-2.59525; 0.199785; 0.372385;0.570744; -4.63036; 3.85185;0; 0; 0; 0; 0; 0; 0; 0; 0; 0; 200; 228; 1024; 1024; 1024; 228; 1024; 1024; 1024; 1; 4; 0; 1900; 50; 35; 0; 0; 0; 0; 0; 0; 0; 
108671;108679;2019/05/25 18:30:53;-1; -1; -1; -1; -1; 100; 0; 0; 0; 0; 0;0; 0; 0;0; 0; 0;0; 0; 0;424.857; 211.429; 19; 406.218; 183.57; 0; 13; 1; 0.00809164; -0.622112; -0.940985;0.0769544; -0.605004; -1.00403;-2.45061; 0.0698766; 0.572236;2.38062; -5.48657; 5.2197;0; 0; 0; 0; 0; 0; 0; 0; 0; 0; 200; 228; 1024; 1024; 1024; 228; 1024; 1024; 1024; 1; 4; 0; 1900; 50; 35; 0; 0; 0; 0; 0; 0; 0; 
108672;108680;2019/05/25 18:30:53;-1; -1; -1; -1; -1; 100; 0; 0; 0; 0; 0;0; 0; 0;0; 0; 0;0; 0; 0;432.182; 222.364; 19; 417.764; 191.673; 0; 14; 1; -0.0111528; -0.645143; -0.923809;0.0505222; -0.617046; -0.979966;-2.29288; -0.0672778; 0.779223;4.08602; -6.18829; 6.75394;0; 0; 0; 0; 0; 0; 0; 0; 0; 0; 200; 228; 1024; 1024; 1024; 228; 1024; 1024; 1024; 1; 4; 0; 1900; 50; 35; 0; 0; 0; 0; 0; 0; 0; 
108673;108681;2019/05/25 18:30:53;-1; -1; -1; -1; -1; 100; 0; 0; 0; 0; 0;0; 0; 0;0; 0; 0;0; 0; 0;436.222; 232.889; 18.0287; 428.139; 200.988; 0; 15; 1; -0.0229412; -0.703262; -0.956157;0.0284832; -0.642911; -0.972824;-2.11287; -0.264699; 0.879809;5.66267; -6.98648; 7.73845;0; 0; 0; 0; 0; 0; 0; 0; 0; 0; 200; 228; 1024; 1024; 1024; 228; 1024; 1024; 1024; 1; 4; 0; 1900; 50; 35; 0; 0; 0; 0; 0; 0; 0; 
108674;108682;2019/05/25 18:30:53;-1; -1; -1; -1; -1; 100; 0; 0; 0; 0; 0;0; 0; 0;0; 0; 0;0; 0; 0;437.5; 244; 19; 436.813; 211.049; 0; 16; 1; -0.0251255; -0.690712; -0.889825;0.0124006; -0.657251; -0.947924;-1.9157; -0.443275; 0.985029;7.09601; -7.78105; 8.28064;0; 0; 0; 0; 0; 0; 0; 0; 0; 0; 200; 228; 1024; 1024; 1024; 228; 1024; 1024; 1024; 1; 4; 0; 1900; 50; 35; 0; 0; 0; 0; 0; 0; 0; 
108675;108683;2019/05/25 18:30:53;-1; -1; -1; -1; -1; 100; 0; 0; 0; 0; 0;0; 0; 0;0; 0; 0;0; 0; 0;440.5; 262; 18.1373; 443.333; 221.843; 0; 17; 1; -0.0345777; -0.763281; -0.902534;-0.00169288; -0.68906; -0.934307;-1.70559; -0.652937; 1.05068;8.35646; -8.57965; 8.31917;0; 0; 0; 0; 0; 0; 0; 0; 0; 0; 200; 228; 1024; 1024; 1024; 228; 1024; 1024; 1024; 1; 4; 0; 1900; 50; 35; 0; 0; 0; 0; 0; 0; 0; 
108676;108684;2019/05/25 18:30:53;-1; -1; -1; -1; -1; 100; 0; 0; 0; 0; 0;0; 0; 0;0; 0; 0;0; 0; 0;440.125; 273.875; 18.1313; 448.627; 235.278; 0; 18; 1; -0.0335566; -0.789742; -0.883286;-0.011252; -0.719265; -0.919001;-1.49435; -0.878253; 1.07873;9.41858; -9.461; 7.81758;0; 0; 0; 0; 0; 0; 0; 0; 0; 0; 200; 228; 1024; 1024; 1024; 228; 1024; 1024; 1024; 1; 4; 0; 1900; 50; 35; 0; 0; 0; 0; 0; 0; 0; 
108677;108685;2019/05/25 18:30:53;-1; -1; -1; -1; -1; 100; 0; 0; 0; 0; 0;0; 0; 0;0; 0; 0;0; 0; 0;439.667; 286.333; 18.414; 452.206; 248.747; 0; 19; 1; -0.0317989; -0.804692; -0.849534;-0.0174161; -0.744893; -0.898161;-1.27418; -1.08664; 1.07083;10.358; -10.3038; 6.68543;0; 0; 0; 0; 0; 0; 0; 0; 0; 0; 200; 228; 1024; 1024; 1024; 228; 1024; 1024; 1024; 1; 4; 0; 1900; 50; 35; 0; 0; 0; 0; 0; 0; 0; 
108678;108686;2019/05/25 18:30:53;-1; -1; -1; -1; -1; 100; 0; 0; 0; 0; 0;0; 0; 0;0; 0; 0;0; 0; 0;439.667; 286.333; 18.414; 454.411; 262.397; 1; 0; 1; -0.0317989; -0.804692; -0.849534;-0.0174161; -0.744893; -0.898161;-1.27418; -1.08664; 1.07083;10.358; -10.3038; 6.68543;0; 0; 0; 0; 0; 0; 0; 0; 0; 0; 200; 228; 1024; 1024; 1024; 228; 1024; 1024; 1024; 1; 4; 0; 1900; 50; 35; 0; 0; 0; 0; 0; 0; 0; 
108679;108687;2019/05/25 18:30:53;-1; -1; -1; -1; -1; 100; 0; 0; 0; 0; 0;0; 0; 0;0; 0; 0;0; 0; 0;433.429; 319.143; 18.4897; 460.387; 264.743; 0; 1; 1; -0.0148267; -0.872403; -0.793097;-0.0166393; -0.783146; -0.866642;-0.994713; -1.22132; 1.03093;10.6644; -10.1379; 4.87403;0; 0; 0; 0; 0; 0; 0; 0; 0; 0; 200; 228; 1024; 1024; 1024; 228; 1024; 1024; 1024; 1; 4; 0; 1900; 50; 35; 0; 0; 0; 0; 0; 0; 0; 
108680;108688;2019/05/25 18:30:53;-1; -1; -1; -1; -1; 100; 0; 0; 0; 0; 0;0; 0; 0;0; 0; 0;0; 0; 0;433.429; 319.143; 18.4897; 457.848; 284.165; 1; 0; 1; -0.0148267; -0.872403; -0.793097;-0.0166393; -0.783146; -0.866642;-0.994713; -1.22132; 1.03093;10.6644; -10.1379; 4.87403;0; 0; 0; 0; 0; 0; 0; 0; 0; 0; 200; 228; 1024; 1024; 1024; 228; 1024; 1024; 1024; 1; 4; 0; 1900; 50; 35; 0; 0; 0; 0; 0; 0; 0; 
108681;108689;2019/05/25 18:30:53;-1; -1; -1; -1; -1; 100; 0; 0; 0; 0; 0;0; 0; 0;0; 0; 0;0; 0; 0;428.615; 367.385; 18.4895; 463.483; 287.201; 0; 1; 1; -0.00183178; -0.976823; -0.715241;-0.012197; -0.841249; -0.821222;-0.718675; -1.32686; 1.07265;10.5746; -9.26417; 3.50201;0; 0; 0; 0; 0; 0; 0; 0; 0; 0; 200; 228; 1024; 1024; 1024; 228; 1024; 1024; 1024; 1; 4; 0; 1900; 50; 35; 0; 0; 0; 0; 0; 0; 0; 
108682;108690;2019/05/25 18:30:53;-1; -1; -1; -1; -1; 100; 0; 0; 0; 0; 0;0; 0; 0;0; 0; 0;0; 0; 0;423.294; 382.353; 18.4898; 458.129; 315.506; 0; 2; 1; 0.0125348; -1.0092; -0.691071;-0.00477747; -0.891635; -0.782176;-0.482658; -1.49816; 1.14004;10.6371; -8.71813; 2.56551;0; 0; 0; 0; 0; 0; 0; 0; 0; 0; 200; 228; 1024; 1024; 1024; 228; 1024; 1024; 1024; 1; 4; 0; 1900; 50; 35; 0; 0; 0; 0; 0; 0; 0; 
108683;108691;2019/05/25 18:30:53;-1; -1; -1; -1; -1; 100; 0; 0; 0; 0; 0;0; 0; 0;0; 0; 0;0; 0; 0;423.294; 382.353; 18.4898; 452.321; 340.671; 1; 0; 1; 0.0125348; -1.0092; -0.691071;-0.00477747; -0.891635; -0.782176;-0.482658; -1.49816; 1.14004;10.6371; -8.71813; 2.56551;0; 0; 0; 0; 0; 0; 0; 0; 0; 0; 200; 228; 1024; 1024; 1024; 228; 1024; 1024; 1024; 1; 4; 0; 1900; 50; 35; 0; 0; 0; 0; 0; 0; 0; 
108684;108692;2019/05/25 18:30:53;-1; -1; -1; -1; -1; 100; 0; 0; 0; 0; 0;0; 0; 0;0; 0; 0;0; 0; 0;423.294; 382.353; 18.4898; 456.982; 345.539; 2; 0; 1; 0.0125348; -1.0092; -0.691071;-0.00477747; -0.891635; -0.782176;-0.482658; -1.49816; 1.14004;10.6371; -8.71813; 2.56551;0; 0; 0; 0; 0; 0; 0; 0; 0; 0; 200; 228; 1024; 1024; 1024; 228; 1024; 1024; 1024; 1; 4; 0; 1900; 50; 35; 0; 0; 0; 0; 0; 0; 0; 
108685;108693;2019/05/25 18:30:53;-1; -1; -1; -1; -1; 100; 0; 0; 0; 0; 0;0; 0; 0;0; 0; 0;0; 0; 0;423.294; 382.353; 18.4898; 461.748; 350.516; 3; 0; 1; 0.0125348; -1.0092; -0.691071;-0.00477747; -0.891635; -0.782176;-0.482658; -1.49816; 1.14004;10.6371; -8.71813; 2.56551;0; 0; 0; 0; 0; 0; 0; 0; 0; 0; 200; 228; 1024; 1024; 1024; 228; 1024; 1024; 1024; 1; 4; 0; 1900; 50; 35; 0; 0; 0; 0; 0; 0; 0; 
108686;108694;2019/05/25 18:30:53;-1; -1; -1; -1; -1; 100; 0; 0; 0; 0; 0;0; 0; 0;0; 0; 0;0; 0; 0;423.294; 382.353; 18.4898; 466.479; 355.457; 4; 0; 1; 0.0125348; -1.0092; -0.691071;-0.00477747; -0.891635; -0.782176;-0.482658; -1.49816; 1.14004;10.6371; -8.71813; 2.56551;0; 0; 0; 0; 0; 0; 0; 0; 0; 0; 200; 228; 1024; 1024; 1024; 228; 1024; 1024; 1024; 1; 4; 0; 1900; 50; 35; 0; 0; 0; 0; 0; 0; 0; 
108687;108695;2019/05/25 18:30:53;-1; -1; -1; -1; -1; 100; 0; 0; 0; 0; 0;0; 0; 0;0; 0; 0;0; 0; 0;423.294; 382.353; 18.4898; 471.209; 360.398; 5; 0; 1; 0.0125348; -1.0092; -0.691071;-0.00477747; -0.891635; -0.782176;-0.482658; -1.49816; 1.14004;10.6371; -8.71813; 2.56551;0; 0; 0; 0; 0; 0; 0; 0; 0; 0; 200; 228; 1024; 1024; 1024; 228; 1024; 1024; 1024; 1; 4; 0; 1900; 50; 35; 0; 0; 0; 0; 0; 0; 0; 
108688;108696;2019/05/25 18:30:53;-1; -1; -1; -1; -1; 100; 0; 0; 0; 0; 0;0; 0; 0;0; 0; 0;0; 0; 0;423.294; 382.353; 18.4898; 475.871; 365.266; 6; 0; 1; 0.0125348; -1.0092; -0.691071;-0.00477747; -0.891635; -0.782176;-0.482658; -1.49816; 1.14004;10.6371; -8.71813; 2.56551;0; 0; 0; 0; 0; 0; 0; 0; 0; 0; 200; 228; 1024; 1024; 1024; 228; 1024; 1024; 1024; 1; 4; 0; 1900; 50; 35; 0; 0; 0; 0; 0; 0; 0; 
108689;108697;2019/05/25 18:30:53;-1; -1; -1; -1; -1; 100; 0; 0; 0; 0; 0;0; 0; 0;0; 0; 0;0; 0; 0;423.294; 382.353; 18.4898; 480.602; 370.207; 7; 0; 1; 0.0125348; -1.0092; -0.691071;-0.00477747; -0.891635; -0.782176;-0.482658; -1.49816; 1.14004;10.6371; -8.71813; 2.56551;0; 0; 0; 0; 0; 0; 0; 0; 0; 0; 200; 228; 1024; 1024; 1024; 228; 1024; 1024; 1024; 1; 4; 0; 1900; 50; 35; 0; 0; 0; 0; 0; 0; 0; 
108690;108698;2019/05/25 18:30:53;-1; -1; -1; -1; -1; 100; 0; 0; 0; 0; 0;0; 0; 0;0; 0; 0;0; 0; 0;423.294; 382.353; 18.4898; 485.367; 375.184; 8; 0; 1; 0.0125348; -1.0092; -0.691071;-0.00477747; -0.891635; -0.782176;-0.482658; -1.49816; 1.14004;10.6371; -8.71813; 2.56551;0; 0; 0; 0; 0; 0; 0; 0; 0; 0; 200; 228; 1024; 1024; 1024; 228; 1024; 1024; 1024; 1; 4; 0; 1900; 50; 35; 0; 0; 0; 0; 0; 0; 0; 
108691;108699;2019/05/25 18:30:53;-1; -1; -1; -1; -1; 100; 0; 0; 0; 0; 0;0; 0; 0;0; 0; 0;0; 0; 0;423.294; 382.353; 18.4898; 490.029; 380.052; 9; 0; 1; 0.0125348; -1.0092; -0.691071;-0.00477747; -0.891635; -0.782176;-0.482658; -1.49816; 1.14004;10.6371; -8.71813; 2.56551;0; 0; 0; 0; 0; 0; 0; 0; 0; 0; 200; 228; 1024; 1024; 1024; 228; 1024; 1024; 1024; 1; 4; 0; 1900; 50; 35; 0; 0; 0; 0; 0; 0; 0; 
108692;108700;2019/05/25 18:30:53;-1; -1; -1; -1; -1; 100; 0; 0; 0; 0; 0;0; 0; 0;0; 0; 0;0; 0; 0;423.294; 382.353; 18.4898; 494.76; 384.993; 10; 0; 0; 0; 0; 0;0; 0; 0;0; 0; 0;0; 0; 0;0; 0; 0; 0; 0; 0; 0; 0; 0; 0; 200; 228; 1024; 1024; 1024; 228; 1024; 1024; 1024; 1; 4; 0; 1900; 50; 35; 0; 0; 0; 0; 0; 0; 0; 
108693;108701;2019/05/25 18:30:53;-1; -1; -1; -1; -1; 100; 0; 0; 0; 0; 0;0; 0; 0;0; 0; 0;0; 0; 0;423.294; 382.353; 18.4898; -1; -1; 11; 0; 0; 0; 0; 0;0; 0; 0;0; 0; 0;0; 0; 0;0; 0; 0; 0; 0; 0; 0; 0; 0; 0; 200; 228; 1024; 1024; 1024; 228; 1024; 1024; 1024; 1; 4; 0; 1900; 50; 35; 0; 0; 0; 0; 0; 0; 0; 
108694;108702;2019/05/25 18:30:53;-1; -1; -1; -1; -1; 100; 0; 0; 0; 0; 0;0; 0; 0;0; 0; 0;0; 0; 0;423.294; 382.353; 18.4898; -1; -1; 12; 0; 0; 0; 0; 0;0; 0; 0;0; 0; 0;0; 0; 0;0; 0; 0; 0; 0; 0; 0; 0; 0; 0; 200; 228; 1024; 1024; 1024; 228; 1024; 1024; 1024; 1; 4; 0; 1900; 50; 35; 0; 0; 0; 0; 0; 0; 0; 
108695;108703;2019/05/25 18:30:53;-1; -1; -1; -1; -1; 100; 0; 0; 0; 0; 0;0; 0; 0;0; 0; 0;0; 0; 0;423.294; 382.353; 18.4898; -1; -1; 13; 0; 0; 0; 0; 0;0; 0; 0;0; 0; 0;0; 0; 0;0; 0; 0; 0; 0; 0; 0; 0; 0; 0; 200; 228; 1024; 1024; 1024; 228; 1024; 1024; 1024; 1; 4; 0; 1900; 50; 35; 0; 0; 0; 0; 0; 0; 0; 
108696;108704;2019/05/25 18:30:53;-1; -1; -1; -1; -1; 100; 0; 0; 0; 0; 0;0; 0; 0;0; 0; 0;0; 0; 0;423.294; 382.353; 18.4898; -1; -1; 14; 0; 0; 0; 0; 0;0; 0; 0;0; 0; 0;0; 0; 0;0; 0; 0; 0; 0; 0; 0; 0; 0; 0; 200; 228; 1024; 1024; 1024; 228; 1024; 1024; 1024; 1; 4; 0; 1900; 50; 35; 0; 0; 0; 0; 0; 0; 0; 
108697;108705;2019/05/25 18:30:53;-1; -1; -1; -1; -1; 100; 0; 0; 0; 0; 0;0; 0; 0;0; 0; 0;0; 0; 0;423.294; 382.353; 18.4898; -1; -1; 15; 0; 0; 0; 0; 0;0; 0; 0;0; 0; 0;0; 0; 0;0; 0; 0; 0; 0; 0; 0; 0; 0; 0; 200; 228; 1024; 1024; 1024; 228; 1024; 1024; 1024; 1; 4; 0; 1900; 50; 35; 0; 0; 0; 0; 0; 0; 0; 
108698;108706;2019/05/25 18:30:53;-1; -1; -1; -1; -1; 100; 0; 0; 0; 0; 0;0; 0; 0;0; 0; 0;0; 0; 0;423.294; 382.353; 18.4898; -1; -1; 16; 0; 0; 0; 0; 0;0; 0; 0;0; 0; 0;0; 0; 0;0; 0; 0; 0; 0; 0; 0; 0; 0; 0; 200; 228; 1024; 1024; 1024; 228; 1024; 1024; 1024; 1; 4; 0; 1900; 50; 35; 0; 0; 0; 0; 0; 0; 0; 
108699;108707;2019/05/25 18:30:53;-1; -1; -1; -1; -1; 100; 0; 0; 0; 0; 0;0; 0; 0;0; 0; 0;0; 0; 0;423.294; 382.353; 18.4898; -1; -1; 17; 0; 0; 0; 0; 0;0; 0; 0;0; 0; 0;0; 0; 0;0; 0; 0; 0; 0; 0; 0; 0; 0; 0; 200; 228; 1024; 1024; 1024; 228; 1024; 1024; 1024; 1; 4; 0; 1900; 50; 35; 0; 0; 0; 0; 0; 0; 0; 
108700;108708;2019/05/25 18:30:53;-1; -1; -1; -1; -1; 100; 0; 0; 0; 0; 0;0; 0; 0;0; 0; 0;0; 0; 0;423.294; 382.353; 18.4898; -1; -1; 18; 0; 0; 0; 0; 0;0; 0; 0;0; 0; 0;0; 0; 0;0; 0; 0; 0; 0; 0; 0; 0; 0; 0; 200; 228; 1024; 1024; 1024; 228; 1024; 1024; 1024; 1; 4; 0; 1900; 50; 35; 0; 0; 0; 0; 0; 0; 0; 
108701;108709;2019/05/25 18:30:53;-1; -1; -1; -1; -1; 100; 0; 0; 0; 0; 0;0; 0; 0;0; 0; 0;0; 0; 0;423.294; 382.353; 18.4898; -1; -1; 19; 0; 0; 0; 0; 0;0; 0; 0;0; 0; 0;0; 0; 0;0; 0; 0; 0; 0; 0; 0; 0; 0; 0; 200; 228; 1024; 1024; 1024; 228; 1024; 1024; 1024; 1; 4; 0; 1900; 50; 35; 0; 0; 0; 0; 0; 0; 0; 
108702;108710;2019/05/25 18:30:53;-1; -1; -1; -1; -1; 100; 0; 0; 0; 0; 0;0; 0; 0;0; 0; 0;0; 0; 0;423.294; 382.353; 18.4898; -1; -1; 20; 0; 0; 0; 0; 0;0; 0; 0;0; 0; 0;0; 0; 0;0; 0; 0; 0; 0; 0; 0; 0; 0; 0; 200; 228; 1024; 1024; 1024; 228; 1024; 1024; 1024; 1; 4; 0; 1900; 50; 35; 0; 0; 0; 0; 0; 0; 0; 
108703;108711;2019/05/25 18:30:53;-1; -1; -1; -1; -1; 100; 0; 0; 0; 0; 0;0; 0; 0;0; 0; 0;0; 0; 0;423.294; 382.353; 18.4898; -1; -1; 21; 0; 0; 0; 0; 0;0; 0; 0;0; 0; 0;0; 0; 0;0; 0; 0; 0; 0; 0; 0; 0; 0; 0; 200; 228; 1024; 1024; 1024; 228; 1024; 1024; 1024; 1; 4; 0; 1900; 50; 35; 0; 0; 0; 0; 0; 0; 0; 
108704;108712;2019/05/25 18:30:53;-1; -1; -1; -1; -1; 100; 0; 0; 0; 0; 0;0; 0; 0;0; 0; 0;0; 0; 0;423.294; 382.353; 18.4898; -1; -1; 22; 0; 0; 0; 0; 0;0; 0; 0;0; 0; 0;0; 0; 0;0; 0; 0; 0; 0; 0; 0; 0; 0; 0; 200; 228; 1024; 1024; 1024; 228; 1024; 1024; 1024; 1; 4; 0; 1900; 50; 35; 0; 0; 0; 0; 0; 0; 0; 
108705;108713;2019/05/25 18:30:53;-1; -1; -1; -1; -1; 100; 0; 0; 0; 0; 0;0; 0; 0;0; 0; 0;0; 0; 0;423.294; 382.353; 18.4898; -1; -1; 23; 0; 0; 0; 0; 0;0; 0; 0;0; 0; 0;0; 0; 0;0; 0; 0; 0; 0; 0; 0; 0; 0; 0; 200; 228; 1024; 1024; 1024; 228; 1024; 1024; 1024; 1; 4; 0; 1900; 50; 35; 0; 0; 0; 0; 0; 0; 0; 
108706;108714;2019/05/25 18:30:54;-1; -1; -1; -1; -1; 100; 0; 0; 0; 0; 0;0; 0; 0;0; 0; 0;0; 0; 0;423.294; 382.353; 18.4898; -1; -1; 24; 0; 0; 0; 0; 0;0; 0; 0;0; 0; 0;0; 0; 0;0; 0; 0; 0; 0; 0; 0; 0; 0; 0; 200; 228; 1024; 1024; 1024; 228; 1024; 1024; 1024; 1; 4; 0; 1900; 50; 35; 0; 0; 0; 0; 0; 0; 0; 
108707;108715;2019/05/25 18:30:54;-1; -1; -1; -1; -1; 100; 0; 0; 0; 0; 0;0; 0; 0;0; 0; 0;0; 0; 0;423.294; 382.353; 18.4898; -1; -1; 25; 0; 0; 0; 0; 0;0; 0; 0;0; 0; 0;0; 0; 0;0; 0; 0; 0; 0; 0; 0; 0; 0; 0; 200; 228; 1024; 1024; 1024; 228; 1024; 1024; 1024; 1; 4; 0; 1900; 50; 35; 0; 0; 0; 0; 0; 0; 0; 
108708;108716;2019/05/25 18:30:54;-1; -1; -1; -1; -1; 100; 0; 0; 0; 0; 0;0; 0; 0;0; 0; 0;0; 0; 0;423.294; 382.353; 18.4898; -1; -1; 26; 0; 0; 0; 0; 0;0; 0; 0;0; 0; 0;0; 0; 0;0; 0; 0; 0; 0; 0; 0; 0; 0; 0; 200; 228; 1024; 1024; 1024; 228; 1024; 1024; 1024; 1; 4; 0; 1900; 50; 35; 0; 0; 0; 0; 0; 0; 0; 
108709;108717;2019/05/25 18:30:54;-1; -1; -1; -1; -1; 100; 0; 0; 0; 0; 0;0; 0; 0;0; 0; 0;0; 0; 0;423.294; 382.353; 18.4898; -1; -1; 27; 0; 0; 0; 0; 0;0; 0; 0;0; 0; 0;0; 0; 0;0; 0; 0; 0; 0; 0; 0; 0; 0; 0; 200; 228; 1024; 1024; 1024; 228; 1024; 1024; 1024; 1; 4; 0; 1900; 50; 35; 0; 0; 0; 0; 0; 0; 0; 
108710;108718;2019/05/25 18:30:54;-1; -1; -1; -1; -1; 100; 0; 0; 0; 0; 0;0; 0; 0;0; 0; 0;0; 0; 0;423.294; 382.353; 18.4898; -1; -1; 28; 0; 0; 0; 0; 0;0; 0; 0;0; 0; 0;0; 0; 0;0; 0; 0; 0; 0; 0; 0; 0; 0; 0; 200; 228; 1024; 1024; 1024; 228; 1024; 1024; 1024; 1; 4; 0; 1900; 50; 35; 0; 0; 0; 0; 0; 0; 0; 
108711;108719;2019/05/25 18:30:54;-1; -1; -1; -1; -1; 100; 0; 0; 0; 0; 0;0; 0; 0;0; 0; 0;0; 0; 0;423.294; 382.353; 18.4898; -1; -1; 29; 0; 0; 0; 0; 0;0; 0; 0;0; 0; 0;0; 0; 0;0; 0; 0; 0; 0; 0; 0; 0; 0; 0; 200; 228; 1024; 1024; 1024; 228; 1024; 1024; 1024; 1; 4; 0; 1900; 50; 35; 0; 0; 0; 0; 0; 0; 0; 
108712;108720;2019/05/25 18:30:54;-1; -1; -1; -1; -1; 100; 0; 0; 0; 0; 0;0; 0; 0;0; 0; 0;0; 0; 0;423.294; 382.353; 18.4898; -1; -1; 30; 0; 0; 0; 0; 0;0; 0; 0;0; 0; 0;0; 0; 0;0; 0; 0; 0; 0; 0; 0; 0; 0; 0; 200; 228; 1024; 1024; 1024; 228; 1024; 1024; 1024; 1; 4; 0; 1900; 50; 35; 0; 0; 0; 0; 0; 0; 0; 
108713;108721;2019/05/25 18:30:54;-1; -1; -1; -1; -1; 100; 0; 0; 0; 0; 0;0; 0; 0;0; 0; 0;0; 0; 0;-1; -1; -1; -1; -1; 31; 0; 0; 0; 0; 0;0; 0; 0;0; 0; 0;0; 0; 0;0; 0; 0; 0; 0; 0; 0; 0; 0; 0; 200; 228; 1024; 1024; 1024; 228; 1024; 1024; 1024; 1; 4; 0; 1900; 50; 35; 0; 0; 0; 0; 0; 0; 0; 
108714;108722;2019/05/25 18:30:54;-1; -1; -1; -1; -1; 100; 0; 0; 0; 0; 0;0; 0; 0;0; 0; 0;0; 0; 0;-1; -1; -1; -1; -1; 32; 0; 0; 0; 0; 0;0; 0; 0;0; 0; 0;0; 0; 0;0; 0; 0; 0; 0; 0; 0; 0; 0; 0; 200; 228; 1024; 1024; 1024; 228; 1024; 1024; 1024; 1; 4; 0; 1900; 50; 35; 0; 0; 0; 0; 0; 0; 0; 
