ID;RS_ID;insect_log;imLx_drone;imLy_drone;disparity_drone;imLx_pred_drone;imLy_pred_drone;n_frames_lost_drone;n_frames_tracking_drone;foundL_drone;posX_drone;posY_drone;posZ_drone;sposX_drone;sposY_drone;sposZ_drone;svelX_drone;svelY_drone;svelZ_drone;saccX_drone;saccY_drone;saccZ_drone;imLx_insect;imLy_insect;disparity_insect;imLx_pred_insect;imLy_pred_insect;n_frames_lost_insect;n_frames_tracking_insect;foundL_insect;posX_insect;posY_insect;posZ_insect;sposX_insect;sposY_insect;sposZ_insect;svelX_insect;svelY_insect;svelZ_insect;saccX_insect;saccY_insect;saccZ_insect;valid;posErrX;posErrY;posErrZ;velX;velY;velZ;accX;accY;accZ;hoverthrottle;autoThrottle;autoRoll;autoPitch;autoYaw;joyThrottle;joyRoll;joyPitch;joyYaw;joyArmSwitch;joyModeSwitch;joyTakeoffSwitch;throttleP;throttleI;throttleD;dt;dx;dy;dz;velx_sp;vely_sp;velz_sp;Unnamed: 76;time
950.0;953.0;0.0;-1.0;-1.0;-1.0;461.583;398.667;100.0;0.0;0.0;0.0;0.0;0.0;0.0;0.0;0.0;0.0;0.0;0.0;0.0;0.0;0.0;844.0;318.0;14.8093;844.0;318.495;0.0;1.0;1.0;-1.4181700000000002;-0.976459;-1.07741;-1.4181700000000002;-0.976459;-1.07741;0.0;0.0;0.0;0.0;0.0;0.0;0.0;0.0;0.0;0.0;0.0;0.0;0.0;0.0;0.0;0.0;1000.0;228.0;1024.0;1024.0;1024.0;930.0;1024.0;1024.0;1024.0;1.0;3.0;0.0;1300.0;15.0;9.0;0.0;0.0;0.0;0.0;0.0;0.0;0.0;;1970-01-01 00:00:00.000
951.0;954.0;0.0;-1.0;-1.0;-1.0;461.583;398.667;100.0;0.0;0.0;0.0;0.0;0.0;0.0;0.0;0.0;0.0;0.0;0.0;0.0;0.0;0.0;842.25;317.75;14.5677;843.841;318.921;0.0;2.0;1.0;-1.43569;-0.9919209999999999;-1.0957299999999999;-1.4234200000000001;-0.9810979999999999;-1.08291;0.0;0.0;0.0;0.0;0.0;0.0;0.0;0.0;0.0;0.0;0.0;0.0;0.0;0.0;0.0;0.0;1000.0;228.0;1024.0;1024.0;1024.0;930.0;1024.0;1024.0;1024.0;1.0;3.0;0.0;1300.0;15.0;9.0;0.0;0.0;0.0;0.0;0.0;0.0;0.0;;1970-01-01 00:00:00.011
952.0;955.0;0.0;-1.0;-1.0;-1.0;461.583;398.667;100.0;0.0;0.0;0.0;0.0;0.0;0.0;0.0;0.0;0.0;0.0;0.0;0.0;0.0;0.0;838.571;318.0;14.5;842.9939999999999;319.268;0.0;3.0;1.0;-1.42973;-0.997286;-1.10039;-1.4253200000000001;-0.9859540000000001;-1.08815;0.0;0.0;0.0;0.0;0.0;0.0;0.0;0.0;0.0;0.0;0.0;0.0;0.0;0.0;0.0;0.0;1000.0;228.0;1024.0;1024.0;1024.0;930.0;1024.0;1024.0;1024.0;1.0;3.0;0.0;1300.0;15.0;9.0;0.0;0.0;0.0;0.0;0.0;0.0;0.0;;1970-01-01 00:00:00.022
952.0;955.0;0.0;-1.0;-1.0;-1.0;461.583;398.667;100.0;0.0;0.0;0.0;0.0;0.0;0.0;0.0;0.0;0.0;0.0;0.0;0.0;0.0;0.0;838.571;318.0;14.5;842.9939999999999;319.268;0.0;3.0;1.0;-1.42973;-0.997286;-1.10039;-1.4253200000000001;-0.9859540000000001;-1.08815;0.0;0.0;0.0;0.0;0.0;0.0;0.0;0.0;0.0;0.0;0.0;0.0;0.0;0.0;0.0;0.0;1000.0;228.0;1024.0;1024.0;1024.0;930.0;1024.0;1024.0;1024.0;1.0;3.0;0.0;1300.0;15.0;9.0;0.0;0.0;0.0;0.0;0.0;0.0;0.0;;1970-01-01 00:00:00.033
953.0;956.0;0.0;-1.0;-1.0;-1.0;461.583;398.667;100.0;0.0;0.0;0.0;0.0;0.0;0.0;0.0;0.0;0.0;0.0;0.0;0.0;0.0;0.0;837.0;318.4;14.4892;841.7460000000001;319.582;0.0;4.0;1.0;-1.42539;-0.9991979999999999;-1.10048;-1.42534;-0.989927;-1.09185;0.0;0.0;0.0;0.0;0.0;0.0;0.0;0.0;0.0;0.0;0.0;0.0;0.0;0.0;0.0;0.0;1000.0;228.0;1024.0;1024.0;1024.0;930.0;1024.0;1024.0;1024.0;1.0;3.0;0.0;1300.0;15.0;9.0;0.0;0.0;0.0;0.0;0.0;0.0;0.0;;1970-01-01 00:00:00.044
954.0;957.0;0.0;-1.0;-1.0;-1.0;461.583;398.667;100.0;0.0;0.0;0.0;0.0;0.0;0.0;0.0;0.0;0.0;0.0;0.0;0.0;0.0;0.0;832.25;319.75;14.513;839.487;320.115;0.0;5.0;1.0;-1.40672;-1.0015;-1.09623;-1.41975;-0.993399;-1.09317;0.0;0.0;0.0;0.0;0.0;0.0;0.0;0.0;0.0;0.0;0.0;0.0;0.0;0.0;0.0;0.0;1000.0;228.0;1024.0;1024.0;1024.0;930.0;1024.0;1024.0;1024.0;1.0;3.0;0.0;1300.0;15.0;9.0;0.0;0.0;0.0;0.0;0.0;0.0;0.0;;1970-01-01 00:00:00.055
954.0;957.0;0.0;-1.0;-1.0;-1.0;461.583;398.667;100.0;0.0;0.0;0.0;0.0;0.0;0.0;0.0;0.0;0.0;0.0;0.0;0.0;0.0;0.0;832.25;319.75;14.513;839.487;320.115;0.0;5.0;1.0;-1.40672;-1.0015;-1.09623;-1.41975;-0.993399;-1.09317;0.0;0.0;0.0;0.0;0.0;0.0;0.0;0.0;0.0;0.0;0.0;0.0;0.0;0.0;0.0;0.0;1000.0;228.0;1024.0;1024.0;1024.0;930.0;1024.0;1024.0;1024.0;1.0;3.0;0.0;1300.0;15.0;9.0;0.0;0.0;0.0;0.0;0.0;0.0;0.0;;1970-01-01 00:00:00.066
955.0;958.0;0.0;-1.0;-1.0;-1.0;461.583;398.667;100.0;0.0;0.0;0.0;0.0;0.0;0.0;0.0;0.0;0.0;0.0;0.0;0.0;0.0;0.0;831.3330000000001;319.778;14.3503;837.39;320.52299999999997;0.0;6.0;1.0;-1.4194799999999999;-1.01294;-1.1086;-1.41967;-0.99926;-1.0978;0.0;0.0;0.0;0.0;0.0;0.0;0.0;0.0;0.0;0.0;0.0;0.0;0.0;0.0;0.0;0.0;1000.0;228.0;1024.0;1024.0;1024.0;930.0;1024.0;1024.0;1024.0;1.0;3.0;0.0;1300.0;15.0;9.0;0.0;0.0;0.0;0.0;0.0;0.0;0.0;;1970-01-01 00:00:00.077
956.0;959.0;0.0;-1.0;-1.0;-1.0;461.583;398.667;100.0;0.0;0.0;0.0;0.0;0.0;0.0;0.0;0.0;0.0;0.0;0.0;0.0;0.0;0.0;827.3330000000001;320.222;14.4482;834.686;320.937;0.0;7.0;1.0;-1.39604;-1.00738;-1.10028;-1.41258;-1.00169;-1.09854;0.0;0.0;0.0;0.0;0.0;0.0;0.0;0.0;0.0;0.0;0.0;0.0;0.0;0.0;0.0;0.0;1000.0;228.0;1024.0;1024.0;1024.0;930.0;1024.0;1024.0;1024.0;1.0;3.0;0.0;1300.0;15.0;9.0;0.0;0.0;0.0;0.0;0.0;0.0;0.0;;1970-01-01 00:00:00.088
956.0;959.0;0.0;-1.0;-1.0;-1.0;461.583;398.667;100.0;0.0;0.0;0.0;0.0;0.0;0.0;0.0;0.0;0.0;0.0;0.0;0.0;0.0;0.0;827.3330000000001;320.222;14.4482;834.686;320.937;0.0;7.0;1.0;-1.39604;-1.00738;-1.10028;-1.41258;-1.00169;-1.09854;0.0;0.0;0.0;0.0;0.0;0.0;0.0;0.0;0.0;0.0;0.0;0.0;0.0;0.0;0.0;0.0;1000.0;228.0;1024.0;1024.0;1024.0;930.0;1024.0;1024.0;1024.0;1.0;3.0;0.0;1300.0;15.0;9.0;0.0;0.0;0.0;0.0;0.0;0.0;0.0;;1970-01-01 00:00:00.099
957.0;960.0;0.0;-1.0;-1.0;-1.0;461.583;398.667;100.0;0.0;0.0;0.0;0.0;0.0;0.0;0.0;0.0;0.0;0.0;0.0;0.0;0.0;0.0;825.0;321.0;14.421;831.9910000000001;321.447;0.0;8.0;1.0;-1.3906;-1.01156;-1.10094;-1.40599;-1.00465;-1.0992600000000001;0.10307100000000001;-0.245194;-0.191834;0.41153;-0.978982;-0.765932;0.0;0.0;0.0;0.0;0.0;0.0;0.0;0.0;0.0;0.0;1000.0;228.0;1024.0;1024.0;1024.0;930.0;1024.0;1024.0;1024.0;1.0;3.0;0.0;1300.0;15.0;9.0;0.0;0.0;0.0;0.0;0.0;0.0;0.0;;1970-01-01 00:00:00.110
958.0;961.0;0.0;-1.0;-1.0;-1.0;461.583;398.667;100.0;0.0;0.0;0.0;0.0;0.0;0.0;0.0;0.0;0.0;0.0;0.0;0.0;0.0;0.0;821.0;321.0;14.2354;828.8610000000001;321.816;0.0;9.0;1.0;-1.3947100000000001;-1.02475;-1.11529;-1.4026100000000001;-1.01068;-1.10407;0.152521;-0.245852;-0.178646;0.8558879999999999;-1.569;-1.1728399999999999;0.0;0.0;0.0;0.0;0.0;0.0;0.0;0.0;0.0;0.0;1000.0;228.0;1024.0;1024.0;1024.0;930.0;1024.0;1024.0;1024.0;1.0;3.0;0.0;1300.0;15.0;9.0;0.0;0.0;0.0;0.0;0.0;0.0;0.0;;1970-01-01 00:00:00.121
958.0;961.0;0.0;-1.0;-1.0;-1.0;461.583;398.667;100.0;0.0;0.0;0.0;0.0;0.0;0.0;0.0;0.0;0.0;0.0;0.0;0.0;0.0;0.0;821.0;321.0;14.2354;828.8610000000001;321.816;0.0;9.0;1.0;-1.3947100000000001;-1.02475;-1.11529;-1.4026100000000001;-1.01068;-1.10407;0.152521;-0.245852;-0.178646;0.8558879999999999;-1.569;-1.1728399999999999;0.0;0.0;0.0;0.0;0.0;0.0;0.0;0.0;0.0;0.0;1000.0;228.0;1024.0;1024.0;1024.0;930.0;1024.0;1024.0;1024.0;1.0;3.0;0.0;1300.0;15.0;9.0;0.0;0.0;0.0;0.0;0.0;0.0;0.0;;1970-01-01 00:00:00.132
959.0;962.0;0.0;-1.0;-1.0;-1.0;461.583;398.667;100.0;0.0;0.0;0.0;0.0;0.0;0.0;0.0;0.0;0.0;0.0;0.0;0.0;0.0;0.0;817.0;322.0;14.4083;825.408;322.35900000000004;0.0;10.0;1.0;-1.3641299999999998;-1.01539;-1.10008;-1.39106;-1.0121;-1.10287;0.22836700000000001;-0.236027;-0.15118199999999998;1.42533;-1.88378;-1.3073299999999999;0.0;0.0;0.0;0.0;0.0;0.0;0.0;0.0;0.0;0.0;1000.0;228.0;1024.0;1024.0;1024.0;930.0;1024.0;1024.0;1024.0;1.0;3.0;0.0;1300.0;15.0;9.0;0.0;0.0;0.0;0.0;0.0;0.0;0.0;;1970-01-01 00:00:00.143
960.0;963.0;0.0;-1.0;-1.0;-1.0;461.583;398.667;100.0;0.0;0.0;0.0;0.0;0.0;0.0;0.0;0.0;0.0;0.0;0.0;0.0;0.0;0.0;814.4;322.0;14.196;822.115;322.749;0.0;11.0;1.0;-1.3753799999999998;-1.0305799999999998;-1.11653;-1.38636;-1.0176399999999999;-1.10697;0.27035;-0.238405;-0.145819;1.9346299999999998;-2.08215;-1.36661;0.0;0.0;0.0;0.0;0.0;0.0;0.0;0.0;0.0;0.0;1000.0;228.0;1024.0;1024.0;1024.0;930.0;1024.0;1024.0;1024.0;1.0;3.0;0.0;1300.0;15.0;9.0;0.0;0.0;0.0;0.0;0.0;0.0;0.0;;1970-01-01 00:00:00.154
960.0;963.0;0.0;-1.0;-1.0;-1.0;461.583;398.667;100.0;0.0;0.0;0.0;0.0;0.0;0.0;0.0;0.0;0.0;0.0;0.0;0.0;0.0;0.0;814.4;322.0;14.196;822.115;322.749;0.0;11.0;1.0;-1.3753799999999998;-1.0305799999999998;-1.11653;-1.38636;-1.0176399999999999;-1.10697;0.27035;-0.238405;-0.145819;1.9346299999999998;-2.08215;-1.36661;0.0;0.0;0.0;0.0;0.0;0.0;0.0;0.0;0.0;0.0;1000.0;228.0;1024.0;1024.0;1024.0;930.0;1024.0;1024.0;1024.0;1.0;3.0;0.0;1300.0;15.0;9.0;0.0;0.0;0.0;0.0;0.0;0.0;0.0;;1970-01-01 00:00:00.165
961.0;964.0;0.0;-1.0;-1.0;-1.0;461.583;398.667;100.0;0.0;0.0;0.0;0.0;0.0;0.0;0.0;0.0;0.0;0.0;0.0;0.0;0.0;0.0;810.0;322.57099999999997;14.2927;818.424;323.189;0.0;12.0;1.0;-1.3507200000000001;-1.0253;-1.10792;-1.3756700000000002;-1.01994;-1.10725;0.3379;-0.22560700000000003;-0.12525;2.5099099999999996;-2.15007;-1.32005;0.0;0.0;0.0;0.0;0.0;0.0;0.0;0.0;0.0;0.0;1000.0;228.0;1024.0;1024.0;1024.0;930.0;1024.0;1024.0;1024.0;1.0;3.0;0.0;1300.0;15.0;9.0;0.0;0.0;0.0;0.0;0.0;0.0;0.0;;1970-01-01 00:00:00.176
962.0;965.0;0.0;-1.0;-1.0;-1.0;461.583;398.667;100.0;0.0;0.0;0.0;0.0;0.0;0.0;0.0;0.0;0.0;0.0;0.0;0.0;0.0;0.0;809.0;322.4;13.9629;815.418;323.45;0.0;13.0;1.0;-1.37905;-1.0490000000000002;-1.13442;-1.37668;-1.0286600000000001;-1.1154;0.346074;-0.243019;-0.14247;2.8877099999999998;-2.2603400000000002;-1.36087;0.0;0.0;0.0;0.0;0.0;0.0;0.0;0.0;0.0;0.0;1000.0;228.0;1024.0;1024.0;1024.0;930.0;1024.0;1024.0;1024.0;1.0;3.0;0.0;1300.0;15.0;9.0;0.0;0.0;0.0;0.0;0.0;0.0;0.0;;1970-01-01 00:00:00.187
963.0;966.0;0.0;-1.0;-1.0;-1.0;461.583;398.667;100.0;0.0;0.0;0.0;0.0;0.0;0.0;0.0;0.0;0.0;0.0;0.0;0.0;0.0;0.0;804.0;323.42900000000003;14.0056;811.7539999999999;323.92900000000003;0.0;14.0;1.0;-1.35703;-1.04891;-1.1290200000000001;-1.37079;-1.03473;-1.1194899999999999;0.348195;-0.265906;-0.166243;2.71133;-1.4389100000000001;-0.7143470000000001;0.0;0.0;0.0;0.0;0.0;0.0;0.0;0.0;0.0;0.0;1000.0;228.0;1024.0;1024.0;1024.0;930.0;1024.0;1024.0;1024.0;1.0;3.0;0.0;1300.0;15.0;9.0;0.0;0.0;0.0;0.0;0.0;0.0;0.0;;1970-01-01 00:00:00.198
963.0;966.0;0.0;-1.0;-1.0;-1.0;461.583;398.667;100.0;0.0;0.0;0.0;0.0;0.0;0.0;0.0;0.0;0.0;0.0;0.0;0.0;0.0;0.0;804.0;323.42900000000003;14.0056;811.7539999999999;323.92900000000003;0.0;14.0;1.0;-1.35703;-1.04891;-1.1290200000000001;-1.37079;-1.03473;-1.1194899999999999;0.348195;-0.265906;-0.166243;2.71133;-1.4389100000000001;-0.7143470000000001;0.0;0.0;0.0;0.0;0.0;0.0;0.0;0.0;0.0;0.0;1000.0;228.0;1024.0;1024.0;1024.0;930.0;1024.0;1024.0;1024.0;1.0;3.0;0.0;1300.0;15.0;9.0;0.0;0.0;0.0;0.0;0.0;0.0;0.0;;1970-01-01 00:00:00.209
964.0;967.0;0.0;-1.0;-1.0;-1.0;461.583;398.667;100.0;0.0;0.0;0.0;0.0;0.0;0.0;0.0;0.0;0.0;0.0;0.0;0.0;0.0;0.0;801.429;324.0;14.174000000000001;808.313;324.434;0.0;15.0;1.0;-1.33185;-1.03816;-1.1145399999999999;-1.35911;-1.03576;-1.1179999999999999;0.38259299999999996;-0.259671;-0.155385;2.54541;-0.9185209999999999;-0.335733;0.0;0.0;0.0;0.0;0.0;0.0;0.0;0.0;0.0;0.0;1000.0;228.0;1024.0;1024.0;1024.0;930.0;1024.0;1024.0;1024.0;1.0;3.0;0.0;1300.0;15.0;9.0;0.0;0.0;0.0;0.0;0.0;0.0;0.0;;1970-01-01 00:00:00.220
965.0;968.0;0.0;-1.0;-1.0;-1.0;461.583;398.667;100.0;0.0;0.0;0.0;0.0;0.0;0.0;0.0;0.0;0.0;0.0;0.0;0.0;0.0;0.0;799.6;324.0;13.7056;805.255;324.791;0.0;16.0;1.0;-1.37071;-1.0736299999999999;-1.1526299999999998;-1.36259;-1.04712;-1.12839;0.343242;-0.295652;-0.195126;1.9859099999999998;-0.7891779999999999;-0.376893;0.0;0.0;0.0;0.0;0.0;0.0;0.0;0.0;0.0;0.0;1000.0;228.0;1024.0;1024.0;1024.0;930.0;1024.0;1024.0;1024.0;1.0;3.0;0.0;1300.0;15.0;9.0;0.0;0.0;0.0;0.0;0.0;0.0;0.0;;1970-01-01 00:00:00.231
965.0;968.0;0.0;-1.0;-1.0;-1.0;461.583;398.667;100.0;0.0;0.0;0.0;0.0;0.0;0.0;0.0;0.0;0.0;0.0;0.0;0.0;0.0;0.0;799.6;324.0;13.7056;805.255;324.791;0.0;16.0;1.0;-1.37071;-1.0736299999999999;-1.1526299999999998;-1.36259;-1.04712;-1.12839;0.343242;-0.295652;-0.195126;1.9859099999999998;-0.7891779999999999;-0.376893;0.0;0.0;0.0;0.0;0.0;0.0;0.0;0.0;0.0;0.0;1000.0;228.0;1024.0;1024.0;1024.0;930.0;1024.0;1024.0;1024.0;1.0;3.0;0.0;1300.0;15.0;9.0;0.0;0.0;0.0;0.0;0.0;0.0;0.0;;1970-01-01 00:00:00.242
966.0;969.0;0.0;-1.0;-1.0;-1.0;461.583;398.667;100.0;0.0;0.0;0.0;0.0;0.0;0.0;0.0;0.0;0.0;0.0;0.0;0.0;0.0;0.0;795.75;324.25;13.8307;801.8789999999999;325.112;0.0;17.0;1.0;-1.34443;-1.0647;-1.14173;-1.35714;-1.05239;-1.13239;0.322601;-0.316152;-0.218596;1.40016;-0.783926;-0.5167109999999999;0.0;0.0;0.0;0.0;0.0;0.0;0.0;0.0;0.0;0.0;1000.0;228.0;1024.0;1024.0;1024.0;930.0;1024.0;1024.0;1024.0;1.0;3.0;0.0;1300.0;15.0;9.0;0.0;0.0;0.0;0.0;0.0;0.0;0.0;;1970-01-01 00:00:00.253
967.0;970.0;0.0;-1.0;-1.0;-1.0;461.583;398.667;100.0;0.0;0.0;0.0;0.0;0.0;0.0;0.0;0.0;0.0;0.0;0.0;0.0;0.0;0.0;794.4;324.0;13.5803;799.015;325.257;0.0;18.0;1.0;-1.36425;-1.08354;-1.16326;-1.35927;-1.06174;-1.1416600000000001;0.25901;-0.356584;-0.268514;0.525116;-0.99331;-0.882033;0.0;0.0;0.0;0.0;0.0;0.0;0.0;0.0;0.0;0.0;1000.0;228.0;1024.0;1024.0;1024.0;930.0;1024.0;1024.0;1024.0;1.0;3.0;0.0;1300.0;15.0;9.0;0.0;0.0;0.0;0.0;0.0;0.0;0.0;;1970-01-01 00:00:00.264
967.0;970.0;0.0;-1.0;-1.0;-1.0;461.583;398.667;100.0;0.0;0.0;0.0;0.0;0.0;0.0;0.0;0.0;0.0;0.0;0.0;0.0;0.0;0.0;794.4;324.0;13.5803;799.015;325.257;0.0;18.0;1.0;-1.36425;-1.08354;-1.16326;-1.35927;-1.06174;-1.1416600000000001;0.25901;-0.356584;-0.268514;0.525116;-0.99331;-0.882033;0.0;0.0;0.0;0.0;0.0;0.0;0.0;0.0;0.0;0.0;1000.0;228.0;1024.0;1024.0;1024.0;930.0;1024.0;1024.0;1024.0;1.0;3.0;0.0;1300.0;15.0;9.0;0.0;0.0;0.0;0.0;0.0;0.0;0.0;;1970-01-01 00:00:00.275
968.0;971.0;0.0;-1.0;-1.0;-1.0;461.583;398.667;100.0;0.0;0.0;0.0;0.0;0.0;0.0;0.0;0.0;0.0;0.0;0.0;0.0;0.0;0.0;791.091;324.72700000000003;13.6822;795.941;325.566;0.0;19.0;1.0;-1.3420299999999998;-1.0777299999999999;-1.1532;-1.3541;-1.06653;-1.1451200000000001;0.245574;-0.365181;-0.27975900000000004;-0.0861947;-1.08374;-1.0773700000000002;0.0;0.0;0.0;0.0;0.0;0.0;0.0;0.0;0.0;0.0;1000.0;228.0;1024.0;1024.0;1024.0;930.0;1024.0;1024.0;1024.0;1.0;3.0;0.0;1300.0;15.0;9.0;0.0;0.0;0.0;0.0;0.0;0.0;0.0;;1970-01-01 00:00:00.286
969.0;972.0;0.0;-1.0;-1.0;-1.0;461.583;398.667;100.0;0.0;0.0;0.0;0.0;0.0;0.0;0.0;0.0;0.0;0.0;0.0;0.0;0.0;0.0;787.6669999999999;325.66700000000003;13.6486;792.677;326.06;0.0;20.0;1.0;-1.33281;-1.0833;-1.1542299999999999;-1.34771;-1.07156;-1.14785;0.239465;-0.366161;-0.281112;-0.485843;-1.05053;-1.10506;0.0;0.0;0.0;0.0;0.0;0.0;0.0;0.0;0.0;0.0;1000.0;228.0;1024.0;1024.0;1024.0;930.0;1024.0;1024.0;1024.0;1.0;3.0;0.0;1300.0;15.0;9.0;0.0;0.0;0.0;0.0;0.0;0.0;0.0;;1970-01-01 00:00:00.297
969.0;972.0;0.0;-1.0;-1.0;-1.0;461.583;398.667;100.0;0.0;0.0;0.0;0.0;0.0;0.0;0.0;0.0;0.0;0.0;0.0;0.0;0.0;0.0;787.6669999999999;325.66700000000003;13.6486;792.677;326.06;0.0;20.0;1.0;-1.33281;-1.0833;-1.1542299999999999;-1.34771;-1.07156;-1.14785;0.239465;-0.366161;-0.281112;-0.485843;-1.05053;-1.10506;0.0;0.0;0.0;0.0;0.0;0.0;0.0;0.0;0.0;0.0;1000.0;228.0;1024.0;1024.0;1024.0;930.0;1024.0;1024.0;1024.0;1.0;3.0;0.0;1300.0;15.0;9.0;0.0;0.0;0.0;0.0;0.0;0.0;0.0;;1970-01-01 00:00:00.308
970.0;973.0;0.0;-1.0;-1.0;-1.0;461.583;398.667;100.0;0.0;0.0;0.0;0.0;0.0;0.0;0.0;0.0;0.0;0.0;0.0;0.0;0.0;0.0;786.4;326.0;13.5446;789.93;326.506;0.0;21.0;1.0;-1.33838;-1.09266;-1.16244;-1.34491;-1.07789;-1.1522299999999999;0.200351;-0.387911;-0.305321;-1.01914;-1.14234;-1.26169;0.0;0.0;0.0;0.0;0.0;0.0;0.0;0.0;0.0;0.0;1000.0;228.0;1024.0;1024.0;1024.0;930.0;1024.0;1024.0;1024.0;1.0;3.0;0.0;1300.0;15.0;9.0;0.0;0.0;0.0;0.0;0.0;0.0;0.0;;1970-01-01 00:00:00.319
971.0;974.0;0.0;-1.0;-1.0;-1.0;461.583;398.667;100.0;0.0;0.0;0.0;0.0;0.0;0.0;0.0;0.0;0.0;0.0;0.0;0.0;0.0;0.0;782.25;327.75;13.5268;786.685;327.349;0.0;22.0;1.0;-1.32483;-1.09958;-1.16056;-1.33889;-1.0844;-1.15473;0.21483400000000002;-0.38157199999999997;-0.288354;-1.12418;-1.02846;-1.12924;0.0;0.0;0.0;0.0;0.0;0.0;0.0;0.0;0.0;0.0;1000.0;228.0;1024.0;1024.0;1024.0;930.0;1024.0;1024.0;1024.0;1.0;3.0;0.0;1300.0;15.0;9.0;0.0;0.0;0.0;0.0;0.0;0.0;0.0;;1970-01-01 00:00:00.330
971.0;974.0;0.0;-1.0;-1.0;-1.0;461.583;398.667;100.0;0.0;0.0;0.0;0.0;0.0;0.0;0.0;0.0;0.0;0.0;0.0;0.0;0.0;0.0;782.25;327.75;13.5268;786.685;327.349;0.0;22.0;1.0;-1.32483;-1.09958;-1.16056;-1.33889;-1.0844;-1.15473;0.21483400000000002;-0.38157199999999997;-0.288354;-1.12418;-1.02846;-1.12924;0.0;0.0;0.0;0.0;0.0;0.0;0.0;0.0;0.0;0.0;1000.0;228.0;1024.0;1024.0;1024.0;930.0;1024.0;1024.0;1024.0;1.0;3.0;0.0;1300.0;15.0;9.0;0.0;0.0;0.0;0.0;0.0;0.0;0.0;;1970-01-01 00:00:00.341
972.0;975.0;0.0;-1.0;-1.0;-1.0;461.583;398.667;100.0;0.0;0.0;0.0;0.0;0.0;0.0;0.0;0.0;0.0;0.0;0.0;0.0;0.0;0.0;780.0;327.42900000000003;13.4422;783.6569999999999;327.849;0.0;23.0;1.0;-1.32482;-1.1054899999999999;-1.1685;-1.33467;-1.0907200000000001;-1.15886;0.218627;-0.38198000000000004;-0.278684;-1.08964;-0.8799030000000001;-0.91746;0.0;0.0;0.0;0.0;0.0;0.0;0.0;0.0;0.0;0.0;1000.0;228.0;1024.0;1024.0;1024.0;930.0;1024.0;1024.0;1024.0;1.0;3.0;0.0;1300.0;15.0;9.0;0.0;0.0;0.0;0.0;0.0;0.0;0.0;;1970-01-01 00:00:00.352
973.0;976.0;0.0;-1.0;-1.0;-1.0;461.583;398.667;100.0;0.0;0.0;0.0;0.0;0.0;0.0;0.0;0.0;0.0;0.0;0.0;0.0;0.0;0.0;777.0;329.0;13.4747;780.56;328.68;0.0;24.0;1.0;-1.31051;-1.10776;-1.1626;-1.32742;-1.0958299999999999;-1.15998;0.258355;-0.36532;-0.240389;-0.656405;-0.562822;-0.438183;0.0;0.0;0.0;0.0;0.0;0.0;0.0;0.0;0.0;0.0;1000.0;228.0;1024.0;1024.0;1024.0;930.0;1024.0;1024.0;1024.0;1.0;3.0;0.0;1300.0;15.0;9.0;0.0;0.0;0.0;0.0;0.0;0.0;0.0;;1970-01-01 00:00:00.363
974.0;977.0;0.0;-1.0;-1.0;-1.0;461.583;398.667;100.0;0.0;0.0;0.0;0.0;0.0;0.0;0.0;0.0;0.0;0.0;0.0;0.0;0.0;0.0;773.429;330.0;13.4567;777.237;329.577;0.0;25.0;1.0;-1.29902;-1.11238;-1.1622;-1.3189;-1.1008;-1.16065;0.295555;-0.35600000000000004;-0.20623000000000002;-0.19428399999999998;-0.301035;0.030666500000000003;0.0;0.0;0.0;0.0;0.0;0.0;0.0;0.0;0.0;0.0;1000.0;228.0;1024.0;1024.0;1024.0;930.0;1024.0;1024.0;1024.0;1.0;3.0;0.0;1300.0;15.0;9.0;0.0;0.0;0.0;0.0;0.0;0.0;0.0;;1970-01-01 00:00:00.374
974.0;977.0;0.0;-1.0;-1.0;-1.0;461.583;398.667;100.0;0.0;0.0;0.0;0.0;0.0;0.0;0.0;0.0;0.0;0.0;0.0;0.0;0.0;0.0;773.429;330.0;13.4567;777.237;329.577;0.0;25.0;1.0;-1.29902;-1.11238;-1.1622;-1.3189;-1.1008;-1.16065;0.295555;-0.35600000000000004;-0.20623000000000002;-0.19428399999999998;-0.301035;0.030666500000000003;0.0;0.0;0.0;0.0;0.0;0.0;0.0;0.0;0.0;0.0;1000.0;228.0;1024.0;1024.0;1024.0;930.0;1024.0;1024.0;1024.0;1.0;3.0;0.0;1300.0;15.0;9.0;0.0;0.0;0.0;0.0;0.0;0.0;0.0;;1970-01-01 00:00:00.385
975.0;978.0;0.0;-1.0;-1.0;-1.0;461.583;398.667;100.0;0.0;0.0;0.0;0.0;0.0;0.0;0.0;0.0;0.0;0.0;0.0;0.0;0.0;0.0;770.4;330.0;13.3524;773.919;330.212;0.0;26.0;1.0;-1.29785;-1.1210799999999999;-1.1712799999999999;-1.31259;-1.1068799999999999;-1.16384;0.31759;-0.354619;-0.187558;0.195359;-0.134537;0.391933;0.0;0.0;0.0;0.0;0.0;0.0;0.0;0.0;0.0;0.0;1000.0;228.0;1024.0;1024.0;1024.0;930.0;1024.0;1024.0;1024.0;1.0;3.0;0.0;1300.0;15.0;9.0;0.0;0.0;0.0;0.0;0.0;0.0;0.0;;1970-01-01 00:00:00.396
976.0;979.0;0.0;-1.0;-1.0;-1.0;461.583;398.667;100.0;0.0;0.0;0.0;0.0;0.0;0.0;0.0;0.0;0.0;0.0;0.0;0.0;0.0;0.0;767.0;332.0;13.3923;770.492;331.276;0.0;27.0;1.0;-1.28132;-1.1240700000000001;-1.16385;-1.3032;-1.11204;-1.16384;0.357084;-0.349108;-0.1589;0.743003;0.07420639999999999;0.819775;0.0;0.0;0.0;0.0;0.0;0.0;0.0;0.0;0.0;0.0;1000.0;228.0;1024.0;1024.0;1024.0;930.0;1024.0;1024.0;1024.0;1.0;3.0;0.0;1300.0;15.0;9.0;0.0;0.0;0.0;0.0;0.0;0.0;0.0;;1970-01-01 00:00:00.407
976.0;979.0;0.0;-1.0;-1.0;-1.0;461.583;398.667;100.0;0.0;0.0;0.0;0.0;0.0;0.0;0.0;0.0;0.0;0.0;0.0;0.0;0.0;0.0;767.0;332.0;13.3923;770.492;331.276;0.0;27.0;1.0;-1.28132;-1.1240700000000001;-1.16385;-1.3032;-1.11204;-1.16384;0.357084;-0.349108;-0.1589;0.743003;0.07420639999999999;0.819775;0.0;0.0;0.0;0.0;0.0;0.0;0.0;0.0;0.0;0.0;1000.0;228.0;1024.0;1024.0;1024.0;930.0;1024.0;1024.0;1024.0;1.0;3.0;0.0;1300.0;15.0;9.0;0.0;0.0;0.0;0.0;0.0;0.0;0.0;;1970-01-01 00:00:00.418
977.0;980.0;0.0;-1.0;-1.0;-1.0;461.583;398.667;100.0;0.0;0.0;0.0;0.0;0.0;0.0;0.0;0.0;0.0;0.0;0.0;0.0;0.0;0.0;762.6669999999999;331.778;13.306;766.697;331.962;0.0;28.0;1.0;-1.27338;-1.13065;-1.17184;-1.29426;-1.11762;-1.16624;0.39245599999999997;-0.342118;-0.141306;1.15499;0.202049;1.0789799999999998;0.0;0.0;0.0;0.0;0.0;0.0;0.0;0.0;0.0;0.0;1000.0;228.0;1024.0;1024.0;1024.0;930.0;1024.0;1024.0;1024.0;1.0;3.0;0.0;1300.0;15.0;9.0;0.0;0.0;0.0;0.0;0.0;0.0;0.0;;1970-01-01 00:00:00.429
978.0;981.0;0.0;-1.0;-1.0;-1.0;461.583;398.667;100.0;0.0;0.0;0.0;0.0;0.0;0.0;0.0;0.0;0.0;0.0;0.0;0.0;0.0;0.0;758.571;333.14300000000003;13.3565;762.711;332.866;0.0;29.0;1.0;-1.25326;-1.13071;-1.16472;-1.28196;-1.12155;-1.1657899999999999;0.44593299999999997;-0.328339;-0.11243199999999999;1.60058;0.335404;1.3112;0.0;0.0;0.0;0.0;0.0;0.0;0.0;0.0;0.0;0.0;1000.0;228.0;1024.0;1024.0;1024.0;930.0;1024.0;1024.0;1024.0;1.0;3.0;0.0;1300.0;15.0;9.0;0.0;0.0;0.0;0.0;0.0;0.0;0.0;;1970-01-01 00:00:00.440
978.0;981.0;0.0;-1.0;-1.0;-1.0;461.583;398.667;100.0;0.0;0.0;0.0;0.0;0.0;0.0;0.0;0.0;0.0;0.0;0.0;0.0;0.0;0.0;758.571;333.14300000000003;13.3565;762.711;332.866;0.0;29.0;1.0;-1.25326;-1.13071;-1.16472;-1.28196;-1.12155;-1.1657899999999999;0.44593299999999997;-0.328339;-0.11243199999999999;1.60058;0.335404;1.3112;0.0;0.0;0.0;0.0;0.0;0.0;0.0;0.0;0.0;0.0;1000.0;228.0;1024.0;1024.0;1024.0;930.0;1024.0;1024.0;1024.0;1.0;3.0;0.0;1300.0;15.0;9.0;0.0;0.0;0.0;0.0;0.0;0.0;0.0;;1970-01-01 00:00:00.451
979.0;982.0;0.0;-1.0;-1.0;-1.0;461.583;398.667;100.0;0.0;0.0;0.0;0.0;0.0;0.0;0.0;0.0;0.0;0.0;0.0;0.0;0.0;0.0;755.6669999999999;332.167;12.9144;758.959;333.19699999999995;0.0;30.0;1.0;-1.28494;-1.16621;-1.20658;-1.28285;-1.13494;-1.17802;0.44551499999999994;-0.353161;-0.139487;1.70763;0.24979;1.1896;0.0;0.0;0.0;0.0;0.0;0.0;0.0;0.0;0.0;0.0;1000.0;228.0;1024.0;1024.0;1024.0;930.0;1024.0;1024.0;1024.0;1.0;3.0;0.0;1300.0;15.0;9.0;0.0;0.0;0.0;0.0;0.0;0.0;0.0;;1970-01-01 00:00:00.462
980.0;983.0;0.0;-1.0;-1.0;-1.0;461.583;398.667;100.0;0.0;0.0;0.0;0.0;0.0;0.0;0.0;0.0;0.0;0.0;0.0;0.0;0.0;0.0;751.0;334.0;13.1352;754.83;333.99;0.0;31.0;1.0;-1.24561;-1.1525100000000001;-1.18262;-1.27168;-1.14022;-1.1794;0.45585299999999995;-0.369275;-0.15856900000000002;1.66461;0.096871;0.904058;0.0;0.0;0.0;0.0;0.0;0.0;0.0;0.0;0.0;0.0;1000.0;228.0;1024.0;1024.0;1024.0;930.0;1024.0;1024.0;1024.0;1.0;3.0;0.0;1300.0;15.0;9.0;0.0;0.0;0.0;0.0;0.0;0.0;0.0;;1970-01-01 00:00:00.473
980.0;983.0;0.0;-1.0;-1.0;-1.0;461.583;398.667;100.0;0.0;0.0;0.0;0.0;0.0;0.0;0.0;0.0;0.0;0.0;0.0;0.0;0.0;0.0;751.0;334.0;13.1352;754.83;333.99;0.0;31.0;1.0;-1.24561;-1.1525100000000001;-1.18262;-1.27168;-1.14022;-1.1794;0.45585299999999995;-0.369275;-0.15856900000000002;1.66461;0.096871;0.904058;0.0;0.0;0.0;0.0;0.0;0.0;0.0;0.0;0.0;0.0;1000.0;228.0;1024.0;1024.0;1024.0;930.0;1024.0;1024.0;1024.0;1.0;3.0;0.0;1300.0;15.0;9.0;0.0;0.0;0.0;0.0;0.0;0.0;0.0;;1970-01-01 00:00:00.484
981.0;984.0;0.0;-1.0;-1.0;-1.0;461.583;398.667;100.0;0.0;0.0;0.0;0.0;0.0;0.0;0.0;0.0;0.0;0.0;0.0;0.0;0.0;0.0;748.727;333.81800000000004;12.9243;751.181;334.48699999999997;0.0;32.0;1.0;-1.25716;-1.1707299999999998;-1.20228;-1.26732;-1.14937;-1.1862700000000002;0.454236;-0.39119699999999996;-0.184693;1.54436;-0.08792660000000001;0.553874;0.0;0.0;0.0;0.0;0.0;0.0;0.0;0.0;0.0;0.0;1000.0;228.0;1024.0;1024.0;1024.0;930.0;1024.0;1024.0;1024.0;1.0;3.0;0.0;1300.0;15.0;9.0;0.0;0.0;0.0;0.0;0.0;0.0;0.0;;1970-01-01 00:00:00.495
982.0;985.0;0.0;-1.0;-1.0;-1.0;461.583;398.667;100.0;0.0;0.0;0.0;0.0;0.0;0.0;0.0;0.0;0.0;0.0;0.0;0.0;0.0;0.0;744.0;334.0;12.9027;747.113;334.88300000000004;0.0;33.0;1.0;-1.24099;-1.17329;-1.20393;-1.25942;-1.15654;-1.19157;0.447353;-0.412422;-0.22150999999999998;1.28704;-0.305553;0.08233760000000001;0.0;0.0;0.0;0.0;0.0;0.0;0.0;0.0;0.0;0.0;1000.0;228.0;1024.0;1024.0;1024.0;930.0;1024.0;1024.0;1024.0;1.0;3.0;0.0;1300.0;15.0;9.0;0.0;0.0;0.0;0.0;0.0;0.0;0.0;;1970-01-01 00:00:00.506
982.0;985.0;0.0;-1.0;-1.0;-1.0;461.583;398.667;100.0;0.0;0.0;0.0;0.0;0.0;0.0;0.0;0.0;0.0;0.0;0.0;0.0;0.0;0.0;744.0;334.0;12.9027;747.113;334.88300000000004;0.0;33.0;1.0;-1.24099;-1.17329;-1.20393;-1.25942;-1.15654;-1.19157;0.447353;-0.412422;-0.22150999999999998;1.28704;-0.305553;0.08233760000000001;0.0;0.0;0.0;0.0;0.0;0.0;0.0;0.0;0.0;0.0;1000.0;228.0;1024.0;1024.0;1024.0;930.0;1024.0;1024.0;1024.0;1.0;3.0;0.0;1300.0;15.0;9.0;0.0;0.0;0.0;0.0;0.0;0.0;0.0;;1970-01-01 00:00:00.517
983.0;986.0;0.0;-1.0;-1.0;-1.0;461.583;398.667;100.0;0.0;0.0;0.0;0.0;0.0;0.0;0.0;0.0;0.0;0.0;0.0;0.0;0.0;0.0;741.3330000000001;334.222;12.7853;743.393;335.218;0.0;34.0;1.0;-1.2419799999999999;-1.1848;-1.2145299999999999;-1.25419;-1.1650200000000002;-1.19845;0.428393;-0.436709;-0.261524;0.91571;-0.561009;-0.430601;0.0;0.0;0.0;0.0;0.0;0.0;0.0;0.0;0.0;0.0;1000.0;228.0;1024.0;1024.0;1024.0;930.0;1024.0;1024.0;1024.0;1.0;3.0;0.0;1300.0;15.0;9.0;0.0;0.0;0.0;0.0;0.0;0.0;0.0;;1970-01-01 00:00:00.528
984.0;987.0;0.0;-1.0;-1.0;-1.0;461.583;398.667;100.0;0.0;0.0;0.0;0.0;0.0;0.0;0.0;0.0;0.0;0.0;0.0;0.0;0.0;0.0;737.3330000000001;334.222;12.6445;739.508;335.439;0.0;35.0;1.0;-1.2400200000000001;-1.1979899999999999;-1.22805;-1.24994;-1.1749100000000001;-1.20733;0.384885;-0.475095;-0.322805;0.305682;-0.9225559999999999;-1.0983100000000001;0.0;0.0;0.0;0.0;0.0;0.0;0.0;0.0;0.0;0.0;1000.0;228.0;1024.0;1024.0;1024.0;930.0;1024.0;1024.0;1024.0;1.0;3.0;0.0;1300.0;15.0;9.0;0.0;0.0;0.0;0.0;0.0;0.0;0.0;;1970-01-01 00:00:00.539
985.0;988.0;0.0;-1.0;-1.0;-1.0;461.583;398.667;100.0;0.0;0.0;0.0;0.0;0.0;0.0;0.0;0.0;0.0;0.0;0.0;0.0;0.0;0.0;734.0;335.0;12.7336;735.716;335.82199999999995;0.0;36.0;1.0;-1.21828;-1.1921899999999999;-1.21785;-1.24044;-1.1801;-1.21049;0.400269;-0.465337;-0.323306;0.00275573;-1.00142;-1.3929200000000002;0.0;0.0;0.0;0.0;0.0;0.0;0.0;0.0;0.0;0.0;1000.0;228.0;1024.0;1024.0;1024.0;930.0;1024.0;1024.0;1024.0;1.0;3.0;0.0;1300.0;15.0;9.0;0.0;0.0;0.0;0.0;0.0;0.0;0.0;;1970-01-01 00:00:00.550
985.0;988.0;0.0;-1.0;-1.0;-1.0;461.583;398.667;100.0;0.0;0.0;0.0;0.0;0.0;0.0;0.0;0.0;0.0;0.0;0.0;0.0;0.0;0.0;734.0;335.0;12.7336;735.716;335.82199999999995;0.0;36.0;1.0;-1.21828;-1.1921899999999999;-1.21785;-1.24044;-1.1801;-1.21049;0.400269;-0.465337;-0.323306;0.00275573;-1.00142;-1.3929200000000002;0.0;0.0;0.0;0.0;0.0;0.0;0.0;0.0;0.0;0.0;1000.0;228.0;1024.0;1024.0;1024.0;930.0;1024.0;1024.0;1024.0;1.0;3.0;0.0;1300.0;15.0;9.0;0.0;0.0;0.0;0.0;0.0;0.0;0.0;;1970-01-01 00:00:00.561
986.0;989.0;0.0;-1.0;-1.0;-1.0;461.583;398.667;100.0;0.0;0.0;0.0;0.0;0.0;0.0;0.0;0.0;0.0;0.0;0.0;0.0;0.0;0.0;731.0;335.0;12.5441;732.102;336.07800000000003;0.0;37.0;1.0;-1.22475;-1.21021;-1.23625;-1.23573;-1.18913;-1.21822;0.383681;-0.47450299999999995;-0.348961;-0.28651;-1.021;-1.5959299999999998;0.0;0.0;0.0;0.0;0.0;0.0;0.0;0.0;0.0;0.0;1000.0;228.0;1024.0;1024.0;1024.0;930.0;1024.0;1024.0;1024.0;1.0;3.0;0.0;1300.0;15.0;9.0;0.0;0.0;0.0;0.0;0.0;0.0;0.0;;1970-01-01 00:00:00.572
987.0;990.0;0.0;-1.0;-1.0;-1.0;461.583;398.667;100.0;0.0;0.0;0.0;0.0;0.0;0.0;0.0;0.0;0.0;0.0;0.0;0.0;0.0;0.0;727.0;335.0;12.5719;728.302;336.24300000000005;0.0;38.0;1.0;-1.20617;-1.20753;-1.23351;-1.22686;-1.19465;-1.22281;0.391751;-0.465499;-0.355268;-0.421389;-0.9092620000000001;-1.63861;0.0;0.0;0.0;0.0;0.0;0.0;0.0;0.0;0.0;0.0;1000.0;228.0;1024.0;1024.0;1024.0;930.0;1024.0;1024.0;1024.0;1.0;3.0;0.0;1300.0;15.0;9.0;0.0;0.0;0.0;0.0;0.0;0.0;0.0;;1970-01-01 00:00:00.583
987.0;990.0;0.0;-1.0;-1.0;-1.0;461.583;398.667;100.0;0.0;0.0;0.0;0.0;0.0;0.0;0.0;0.0;0.0;0.0;0.0;0.0;0.0;0.0;727.0;335.0;12.5719;728.302;336.24300000000005;0.0;38.0;1.0;-1.20617;-1.20753;-1.23351;-1.22686;-1.19465;-1.22281;0.391751;-0.465499;-0.355268;-0.421389;-0.9092620000000001;-1.63861;0.0;0.0;0.0;0.0;0.0;0.0;0.0;0.0;0.0;0.0;1000.0;228.0;1024.0;1024.0;1024.0;930.0;1024.0;1024.0;1024.0;1.0;3.0;0.0;1300.0;15.0;9.0;0.0;0.0;0.0;0.0;0.0;0.0;0.0;;1970-01-01 00:00:00.594
988.0;991.0;0.0;-1.0;-1.0;-1.0;461.583;398.667;100.0;0.0;0.0;0.0;0.0;0.0;0.0;0.0;0.0;0.0;0.0;0.0;0.0;0.0;0.0;725.0;335.6;12.5096;725.003;336.53;0.0;39.0;1.0;-1.2041899999999999;-1.21557;-1.2383899999999999;-1.2200600000000001;-1.2009299999999998;-1.22748;0.39221;-0.456503;-0.356554;-0.47300299999999995;-0.721558;-1.52236;0.0;0.0;0.0;0.0;0.0;0.0;0.0;0.0;0.0;0.0;1000.0;228.0;1024.0;1024.0;1024.0;930.0;1024.0;1024.0;1024.0;1.0;3.0;0.0;1300.0;15.0;9.0;0.0;0.0;0.0;0.0;0.0;0.0;0.0;;1970-01-01 00:00:00.605
989.0;992.0;0.0;-1.0;-1.0;-1.0;461.583;398.667;100.0;0.0;0.0;0.0;0.0;0.0;0.0;0.0;0.0;0.0;0.0;0.0;0.0;0.0;0.0;721.429;336.0;12.4885;721.573;336.845;0.0;40.0;1.0;-1.1919600000000001;-1.21898;-1.2396399999999999;-1.21163;-1.20634;-1.2311299999999998;0.40525100000000003;-0.438891;-0.344382;-0.3762;-0.44164799999999993;-1.24424;0.0;0.0;0.0;0.0;0.0;0.0;0.0;0.0;0.0;0.0;1000.0;228.0;1024.0;1024.0;1024.0;930.0;1024.0;1024.0;1024.0;1.0;3.0;0.0;1300.0;15.0;9.0;0.0;0.0;0.0;0.0;0.0;0.0;0.0;;1970-01-01 00:00:00.616
989.0;992.0;0.0;-1.0;-1.0;-1.0;461.583;398.667;100.0;0.0;0.0;0.0;0.0;0.0;0.0;0.0;0.0;0.0;0.0;0.0;0.0;0.0;0.0;721.429;336.0;12.4885;721.573;336.845;0.0;40.0;1.0;-1.1919600000000001;-1.21898;-1.2396399999999999;-1.21163;-1.20634;-1.2311299999999998;0.40525100000000003;-0.438891;-0.344382;-0.3762;-0.44164799999999993;-1.24424;0.0;0.0;0.0;0.0;0.0;0.0;0.0;0.0;0.0;0.0;1000.0;228.0;1024.0;1024.0;1024.0;930.0;1024.0;1024.0;1024.0;1.0;3.0;0.0;1300.0;15.0;9.0;0.0;0.0;0.0;0.0;0.0;0.0;0.0;;1970-01-01 00:00:00.627
990.0;993.0;0.0;-1.0;-1.0;-1.0;461.583;398.667;100.0;0.0;0.0;0.0;0.0;0.0;0.0;0.0;0.0;0.0;0.0;0.0;0.0;0.0;0.0;719.6;336.0;12.3871;718.6030000000001;337.05199999999996;0.0;41.0;1.0;-1.19434;-1.22896;-1.24978;-1.20644;-1.2131299999999998;-1.23672;0.41680500000000004;-0.41592399999999996;-0.323974;-0.0982721;-0.0287365;-0.751215;0.0;0.0;0.0;0.0;0.0;0.0;0.0;0.0;0.0;0.0;1000.0;228.0;1024.0;1024.0;1024.0;930.0;1024.0;1024.0;1024.0;1.0;3.0;0.0;1300.0;15.0;9.0;0.0;0.0;0.0;0.0;0.0;0.0;0.0;;1970-01-01 00:00:00.638
991.0;994.0;0.0;-1.0;-1.0;-1.0;461.583;398.667;100.0;0.0;0.0;0.0;0.0;0.0;0.0;0.0;0.0;0.0;0.0;0.0;0.0;0.0;0.0;716.0;337.0;12.3993;715.4060000000001;337.5;0.0;42.0;1.0;-1.17868;-1.23117;-1.24643;-1.19812;-1.21854;-1.23963;0.41907;-0.40305;-0.310759;0.0161032;0.23145100000000002;-0.40063499999999996;0.0;0.0;0.0;0.0;0.0;0.0;0.0;0.0;0.0;0.0;1000.0;228.0;1024.0;1024.0;1024.0;930.0;1024.0;1024.0;1024.0;1.0;3.0;0.0;1300.0;15.0;9.0;0.0;0.0;0.0;0.0;0.0;0.0;0.0;;1970-01-01 00:00:00.649
991.0;994.0;0.0;-1.0;-1.0;-1.0;461.583;398.667;100.0;0.0;0.0;0.0;0.0;0.0;0.0;0.0;0.0;0.0;0.0;0.0;0.0;0.0;0.0;716.0;337.0;12.3993;715.4060000000001;337.5;0.0;42.0;1.0;-1.17868;-1.23117;-1.24643;-1.19812;-1.21854;-1.23963;0.41907;-0.40305;-0.310759;0.0161032;0.23145100000000002;-0.40063499999999996;0.0;0.0;0.0;0.0;0.0;0.0;0.0;0.0;0.0;0.0;1000.0;228.0;1024.0;1024.0;1024.0;930.0;1024.0;1024.0;1024.0;1.0;3.0;0.0;1300.0;15.0;9.0;0.0;0.0;0.0;0.0;0.0;0.0;0.0;;1970-01-01 00:00:00.660
992.0;995.0;0.0;-1.0;-1.0;-1.0;461.583;398.667;100.0;0.0;0.0;0.0;0.0;0.0;0.0;0.0;0.0;0.0;0.0;0.0;0.0;0.0;0.0;714.0;337.42900000000003;12.3645;712.553;337.941;0.0;43.0;1.0;-1.17393;-1.23611;-1.2490299999999999;-1.19086;-1.22381;-1.24245;0.43060200000000004;-0.380302;-0.28322600000000003;0.19700299999999998;0.514987;0.022078200000000003;0.0;0.0;0.0;0.0;0.0;0.0;0.0;0.0;0.0;0.0;1000.0;228.0;1024.0;1024.0;1024.0;930.0;1024.0;1024.0;1024.0;1.0;3.0;0.0;1300.0;15.0;9.0;0.0;0.0;0.0;0.0;0.0;0.0;0.0;;1970-01-01 00:00:00.671
993.0;996.0;0.0;-1.0;-1.0;-1.0;461.583;398.667;100.0;0.0;0.0;0.0;0.0;0.0;0.0;0.0;0.0;0.0;0.0;0.0;0.0;0.0;0.0;710.0;337.42900000000003;12.2933;709.317;338.241;0.0;44.0;1.0;-1.16449;-1.24326;-1.25626;-1.18295;-1.22965;-1.2465899999999999;0.43368999999999996;-0.36791;-0.264917;0.285648;0.698635;0.373992;0.0;0.0;0.0;0.0;0.0;0.0;0.0;0.0;0.0;0.0;1000.0;228.0;1024.0;1024.0;1024.0;930.0;1024.0;1024.0;1024.0;1.0;3.0;0.0;1300.0;15.0;9.0;0.0;0.0;0.0;0.0;0.0;0.0;0.0;;1970-01-01 00:00:00.682
993.0;996.0;0.0;-1.0;-1.0;-1.0;461.583;398.667;100.0;0.0;0.0;0.0;0.0;0.0;0.0;0.0;0.0;0.0;0.0;0.0;0.0;0.0;0.0;710.0;337.42900000000003;12.2933;709.317;338.241;0.0;44.0;1.0;-1.16449;-1.24326;-1.25626;-1.18295;-1.22965;-1.2465899999999999;0.43368999999999996;-0.36791;-0.264917;0.285648;0.698635;0.373992;0.0;0.0;0.0;0.0;0.0;0.0;0.0;0.0;0.0;0.0;1000.0;228.0;1024.0;1024.0;1024.0;930.0;1024.0;1024.0;1024.0;1.0;3.0;0.0;1300.0;15.0;9.0;0.0;0.0;0.0;0.0;0.0;0.0;0.0;;1970-01-01 00:00:00.693
994.0;997.0;0.0;-1.0;-1.0;-1.0;461.583;398.667;100.0;0.0;0.0;0.0;0.0;0.0;0.0;0.0;0.0;0.0;0.0;0.0;0.0;0.0;0.0;707.0;338.0;12.3553;706.1210000000001;338.62;0.0;45.0;1.0;-1.14654;-1.23899;-1.24874;-1.17203;-1.23245;-1.24724;0.452003;-0.346605;-0.23783400000000002;0.41012299999999996;0.8579690000000001;0.698408;0.0;0.0;0.0;0.0;0.0;0.0;0.0;0.0;0.0;0.0;1000.0;228.0;1024.0;1024.0;1024.0;930.0;1024.0;1024.0;1024.0;1.0;3.0;0.0;1300.0;15.0;9.0;0.0;0.0;0.0;0.0;0.0;0.0;0.0;;1970-01-01 00:00:00.704
995.0;998.0;0.0;-1.0;-1.0;-1.0;461.583;398.667;100.0;0.0;0.0;0.0;0.0;0.0;0.0;0.0;0.0;0.0;0.0;0.0;0.0;0.0;0.0;705.6;338.0;12.0601;703.4639999999999;338.875;0.0;46.0;1.0;-1.1688100000000001;-1.26931;-1.2793;-1.17106;-1.2435100000000001;-1.25686;0.43318199999999996;-0.35635;-0.24543099999999998;0.357595;0.844342;0.814125;0.0;0.0;0.0;0.0;0.0;0.0;0.0;0.0;0.0;0.0;1000.0;228.0;1024.0;1024.0;1024.0;930.0;1024.0;1024.0;1024.0;1.0;3.0;0.0;1300.0;15.0;9.0;0.0;0.0;0.0;0.0;0.0;0.0;0.0;;1970-01-01 00:00:00.715
996.0;999.0;0.0;-1.0;-1.0;-1.0;461.583;398.667;100.0;0.0;0.0;0.0;0.0;0.0;0.0;0.0;0.0;0.0;0.0;0.0;0.0;0.0;0.0;702.0;338.57099999999997;12.0398;700.5;339.222;0.0;47.0;1.0;-1.15586;-1.27347;-1.28021;-1.1665;-1.2525;-1.26386;0.419396;-0.37099;-0.255616;0.224899;0.6860109999999999;0.761408;0.0;0.0;0.0;0.0;0.0;0.0;0.0;0.0;0.0;0.0;1000.0;228.0;1024.0;1024.0;1024.0;930.0;1024.0;1024.0;1024.0;1.0;3.0;0.0;1300.0;15.0;9.0;0.0;0.0;0.0;0.0;0.0;0.0;0.0;;1970-01-01 00:00:00.726
996.0;999.0;0.0;-1.0;-1.0;-1.0;461.583;398.667;100.0;0.0;0.0;0.0;0.0;0.0;0.0;0.0;0.0;0.0;0.0;0.0;0.0;0.0;0.0;702.0;338.57099999999997;12.0398;700.5;339.222;0.0;47.0;1.0;-1.15586;-1.27347;-1.28021;-1.1665;-1.2525;-1.26386;0.419396;-0.37099;-0.255616;0.224899;0.6860109999999999;0.761408;0.0;0.0;0.0;0.0;0.0;0.0;0.0;0.0;0.0;0.0;1000.0;228.0;1024.0;1024.0;1024.0;930.0;1024.0;1024.0;1024.0;1.0;3.0;0.0;1300.0;15.0;9.0;0.0;0.0;0.0;0.0;0.0;0.0;0.0;;1970-01-01 00:00:00.737
997.0;1000.0;0.0;-1.0;-1.0;-1.0;461.583;398.667;100.0;0.0;0.0;0.0;0.0;0.0;0.0;0.0;0.0;0.0;0.0;0.0;0.0;0.0;0.0;700.0;339.0;11.9146;697.823;339.591;0.0;48.0;1.0;-1.15962;-1.28837;-1.29271;-1.16444;-1.26326;-1.27252;0.386106;-0.401134;-0.28465799999999997;0.00332397;0.41925500000000004;0.561058;0.0;0.0;0.0;0.0;0.0;0.0;0.0;0.0;0.0;0.0;1000.0;228.0;1024.0;1024.0;1024.0;930.0;1024.0;1024.0;1024.0;1.0;3.0;0.0;1300.0;15.0;9.0;0.0;0.0;0.0;0.0;0.0;0.0;0.0;;1970-01-01 00:00:00.748
998.0;1001.0;0.0;-1.0;-1.0;-1.0;461.583;398.667;100.0;0.0;0.0;0.0;0.0;0.0;0.0;0.0;0.0;0.0;0.0;0.0;0.0;0.0;0.0;697.0;340.0;11.9037;695.0360000000001;340.158;0.0;49.0;1.0;-1.14811;-1.29311;-1.29168;-1.15954;-1.27221;-1.27827;0.356722;-0.433933;-0.313787;-0.292983;0.03741919999999999;0.21461599999999997;0.0;0.0;0.0;0.0;0.0;0.0;0.0;0.0;0.0;0.0;1000.0;228.0;1024.0;1024.0;1024.0;930.0;1024.0;1024.0;1024.0;1.0;3.0;0.0;1300.0;15.0;9.0;0.0;0.0;0.0;0.0;0.0;0.0;0.0;;1970-01-01 00:00:00.759
998.0;1001.0;0.0;-1.0;-1.0;-1.0;461.583;398.667;100.0;0.0;0.0;0.0;0.0;0.0;0.0;0.0;0.0;0.0;0.0;0.0;0.0;0.0;0.0;697.0;340.0;11.9037;695.0360000000001;340.158;0.0;49.0;1.0;-1.14811;-1.29311;-1.29168;-1.15954;-1.27221;-1.27827;0.356722;-0.433933;-0.313787;-0.292983;0.03741919999999999;0.21461599999999997;0.0;0.0;0.0;0.0;0.0;0.0;0.0;0.0;0.0;0.0;1000.0;228.0;1024.0;1024.0;1024.0;930.0;1024.0;1024.0;1024.0;1.0;3.0;0.0;1300.0;15.0;9.0;0.0;0.0;0.0;0.0;0.0;0.0;0.0;;1970-01-01 00:00:00.770
999.0;1002.0;0.0;-1.0;-1.0;-1.0;461.583;398.667;100.0;0.0;0.0;0.0;0.0;0.0;0.0;0.0;0.0;0.0;0.0;0.0;0.0;0.0;0.0;694.0;340.57099999999997;11.7596;692.17;340.73199999999997;0.0;50.0;1.0;-1.14945;-1.31102;-1.30623;-1.15651;-1.28385;-1.2866600000000001;0.319589;-0.476793;-0.34822600000000004;-0.63136;-0.41228400000000004;-0.203861;0.0;0.0;0.0;0.0;0.0;0.0;0.0;0.0;0.0;0.0;1000.0;228.0;1024.0;1024.0;1024.0;930.0;1024.0;1024.0;1024.0;1.0;3.0;0.0;1300.0;15.0;9.0;0.0;0.0;0.0;0.0;0.0;0.0;0.0;;1970-01-01 00:00:00.781
1000.0;1003.0;0.0;-1.0;-1.0;-1.0;461.583;398.667;100.0;0.0;0.0;0.0;0.0;0.0;0.0;0.0;0.0;0.0;0.0;0.0;0.0;0.0;0.0;692.0;340.0;11.732000000000001;689.565;340.94699999999995;0.0;51.0;1.0;-1.14365;-1.31203;-1.3105799999999999;-1.15265;-1.29231;-1.29383;0.26910100000000003;-0.5250739999999999;-0.394986;-1.10909;-0.959944;-0.749775;0.0;0.0;0.0;0.0;0.0;0.0;0.0;0.0;0.0;0.0;1000.0;228.0;1024.0;1024.0;1024.0;930.0;1024.0;1024.0;1024.0;1.0;3.0;0.0;1300.0;15.0;9.0;0.0;0.0;0.0;0.0;0.0;0.0;0.0;;1970-01-01 00:00:00.792
1000.0;1003.0;0.0;-1.0;-1.0;-1.0;461.583;398.667;100.0;0.0;0.0;0.0;0.0;0.0;0.0;0.0;0.0;0.0;0.0;0.0;0.0;0.0;0.0;692.0;340.0;11.732000000000001;689.565;340.94699999999995;0.0;51.0;1.0;-1.14365;-1.31203;-1.3105799999999999;-1.15265;-1.29231;-1.29383;0.26910100000000003;-0.5250739999999999;-0.394986;-1.10909;-0.959944;-0.749775;0.0;0.0;0.0;0.0;0.0;0.0;0.0;0.0;0.0;0.0;1000.0;228.0;1024.0;1024.0;1024.0;930.0;1024.0;1024.0;1024.0;1.0;3.0;0.0;1300.0;15.0;9.0;0.0;0.0;0.0;0.0;0.0;0.0;0.0;;1970-01-01 00:00:00.803
1001.0;1004.0;0.0;-1.0;-1.0;-1.0;461.583;398.667;100.0;0.0;0.0;0.0;0.0;0.0;0.0;0.0;0.0;0.0;0.0;0.0;0.0;0.0;0.0;688.571;342.0;11.8969;686.696;341.72;0.0;52.0;1.0;-1.11342;-1.3009700000000002;-1.28799;-1.14088;-1.29491;-1.29208;0.281948;-0.520266;-0.377635;-1.26928;-1.23043;-0.977714;0.0;0.0;0.0;0.0;0.0;0.0;0.0;0.0;0.0;0.0;1000.0;228.0;1024.0;1024.0;1024.0;930.0;1024.0;1024.0;1024.0;1.0;3.0;0.0;1300.0;15.0;9.0;0.0;0.0;0.0;0.0;0.0;0.0;0.0;;1970-01-01 00:00:00.814
1002.0;1005.0;0.0;-1.0;-1.0;-1.0;461.583;398.667;100.0;0.0;0.0;0.0;0.0;0.0;0.0;0.0;0.0;0.0;0.0;0.0;0.0;0.0;0.0;687.0;341.6;11.6031;684.2260000000001;342.134;0.0;53.0;1.0;-1.13485;-1.33245;-1.32151;-1.13907;-1.30617;-1.30091;0.278674;-0.526467;-0.3745;-1.3234299999999999;-1.35903;-1.06129;0.0;0.0;0.0;0.0;0.0;0.0;0.0;0.0;0.0;0.0;1000.0;228.0;1024.0;1024.0;1024.0;930.0;1024.0;1024.0;1024.0;1.0;3.0;0.0;1300.0;15.0;9.0;0.0;0.0;0.0;0.0;0.0;0.0;0.0;;1970-01-01 00:00:00.825
1002.0;1005.0;0.0;-1.0;-1.0;-1.0;461.583;398.667;100.0;0.0;0.0;0.0;0.0;0.0;0.0;0.0;0.0;0.0;0.0;0.0;0.0;0.0;0.0;687.0;341.6;11.6031;684.2260000000001;342.134;0.0;53.0;1.0;-1.13485;-1.33245;-1.32151;-1.13907;-1.30617;-1.30091;0.278674;-0.526467;-0.3745;-1.3234299999999999;-1.35903;-1.06129;0.0;0.0;0.0;0.0;0.0;0.0;0.0;0.0;0.0;0.0;1000.0;228.0;1024.0;1024.0;1024.0;930.0;1024.0;1024.0;1024.0;1.0;3.0;0.0;1300.0;15.0;9.0;0.0;0.0;0.0;0.0;0.0;0.0;0.0;;1970-01-01 00:00:00.836
1003.0;1006.0;0.0;-1.0;-1.0;-1.0;461.583;398.667;100.0;0.0;0.0;0.0;0.0;0.0;0.0;0.0;0.0;0.0;0.0;0.0;0.0;0.0;0.0;684.0;342.57099999999997;11.7185;681.592;342.724;0.0;54.0;1.0;-1.1109;-1.32284;-1.30631;-1.1306200000000002;-1.3111700000000002;-1.30253;0.302226;-0.5071829999999999;-0.344528;-1.12897;-1.23884;-0.875819;0.0;0.0;0.0;0.0;0.0;0.0;0.0;0.0;0.0;0.0;1000.0;228.0;1024.0;1024.0;1024.0;930.0;1024.0;1024.0;1024.0;1.0;3.0;0.0;1300.0;15.0;9.0;0.0;0.0;0.0;0.0;0.0;0.0;0.0;;1970-01-01 00:00:00.847
1004.0;1007.0;0.0;-1.0;-1.0;-1.0;461.583;398.667;100.0;0.0;0.0;0.0;0.0;0.0;0.0;0.0;0.0;0.0;0.0;0.0;0.0;0.0;0.0;681.429;342.85699999999997;11.6009;678.9739999999999;343.223;0.0;55.0;1.0;-1.1111;-1.3373;-1.31891;-1.12476;-1.31901;-1.30744;0.320179;-0.49115200000000003;-0.323207;-0.823284;-0.9717620000000001;-0.563106;0.0;0.0;0.0;0.0;0.0;0.0;0.0;0.0;0.0;0.0;1000.0;228.0;1024.0;1024.0;1024.0;930.0;1024.0;1024.0;1024.0;1.0;3.0;0.0;1300.0;15.0;9.0;0.0;0.0;0.0;0.0;0.0;0.0;0.0;;1970-01-01 00:00:00.858
1004.0;1007.0;0.0;-1.0;-1.0;-1.0;461.583;398.667;100.0;0.0;0.0;0.0;0.0;0.0;0.0;0.0;0.0;0.0;0.0;0.0;0.0;0.0;0.0;681.429;342.85699999999997;11.6009;678.9739999999999;343.223;0.0;55.0;1.0;-1.1111;-1.3373;-1.31891;-1.12476;-1.31901;-1.30744;0.320179;-0.49115200000000003;-0.323207;-0.823284;-0.9717620000000001;-0.563106;0.0;0.0;0.0;0.0;0.0;0.0;0.0;0.0;0.0;0.0;1000.0;228.0;1024.0;1024.0;1024.0;930.0;1024.0;1024.0;1024.0;1.0;3.0;0.0;1300.0;15.0;9.0;0.0;0.0;0.0;0.0;0.0;0.0;0.0;;1970-01-01 00:00:00.869
1005.0;1008.0;0.0;-1.0;-1.0;-1.0;461.583;398.667;100.0;0.0;0.0;0.0;0.0;0.0;0.0;0.0;0.0;0.0;0.0;0.0;0.0;0.0;0.0;679.0;343.6;11.5665;676.414;343.80199999999996;0.0;56.0;1.0;-1.1039299999999999;-1.344;-1.32114;-1.1185100000000001;-1.32651;-1.31155;0.343826;-0.464987;-0.29332199999999997;-0.39719699999999997;-0.535918;-0.118645;0.0;0.0;0.0;0.0;0.0;0.0;0.0;0.0;0.0;0.0;1000.0;228.0;1024.0;1024.0;1024.0;930.0;1024.0;1024.0;1024.0;1.0;3.0;0.0;1300.0;15.0;9.0;0.0;0.0;0.0;0.0;0.0;0.0;0.0;;1970-01-01 00:00:00.880
1006.0;1009.0;0.0;-1.0;-1.0;-1.0;461.583;398.667;100.0;0.0;0.0;0.0;0.0;0.0;0.0;0.0;0.0;0.0;0.0;0.0;0.0;0.0;0.0;676.25;343.75;11.6176;673.795;344.249;0.0;57.0;1.0;-1.0872600000000001;-1.33863;-1.31498;-1.10914;-1.3301399999999999;-1.3125799999999999;0.380042;-0.43005200000000005;-0.250835;0.20463699999999999;0.0578419;0.504364;0.0;0.0;0.0;0.0;0.0;0.0;0.0;0.0;0.0;0.0;1000.0;228.0;1024.0;1024.0;1024.0;930.0;1024.0;1024.0;1024.0;1.0;3.0;0.0;1300.0;15.0;9.0;0.0;0.0;0.0;0.0;0.0;0.0;0.0;;1970-01-01 00:00:00.891
1007.0;1010.0;0.0;-1.0;-1.0;-1.0;461.583;398.667;100.0;0.0;0.0;0.0;0.0;0.0;0.0;0.0;0.0;0.0;0.0;0.0;0.0;0.0;0.0;674.571;344.0;11.5475;671.472;344.63300000000004;0.0;58.0;1.0;-1.08661;-1.34768;-1.3224;-1.10238;-1.3354;-1.31552;0.38176;-0.41971499999999995;-0.24410199999999999;0.5213;0.436176;0.8357760000000001;0.0;0.0;0.0;0.0;0.0;0.0;0.0;0.0;0.0;0.0;1000.0;228.0;1024.0;1024.0;1024.0;930.0;1024.0;1024.0;1024.0;1.0;3.0;0.0;1300.0;15.0;9.0;0.0;0.0;0.0;0.0;0.0;0.0;0.0;;1970-01-01 00:00:00.902
1007.0;1010.0;0.0;-1.0;-1.0;-1.0;461.583;398.667;100.0;0.0;0.0;0.0;0.0;0.0;0.0;0.0;0.0;0.0;0.0;0.0;0.0;0.0;0.0;674.571;344.0;11.5475;671.472;344.63300000000004;0.0;58.0;1.0;-1.08661;-1.34768;-1.3224;-1.10238;-1.3354;-1.31552;0.38176;-0.41971499999999995;-0.24410199999999999;0.5213;0.436176;0.8357760000000001;0.0;0.0;0.0;0.0;0.0;0.0;0.0;0.0;0.0;0.0;1000.0;228.0;1024.0;1024.0;1024.0;930.0;1024.0;1024.0;1024.0;1.0;3.0;0.0;1300.0;15.0;9.0;0.0;0.0;0.0;0.0;0.0;0.0;0.0;;1970-01-01 00:00:00.913
1008.0;1011.0;0.0;-1.0;-1.0;-1.0;461.583;398.667;100.0;0.0;0.0;0.0;0.0;0.0;0.0;0.0;0.0;0.0;0.0;0.0;0.0;0.0;0.0;672.25;344.25;11.550999999999998;669.1610000000001;344.97;0.0;59.0;1.0;-1.07625;-1.34819;-1.3214299999999999;-1.09454;-1.33924;-1.3173;0.406858;-0.383854;-0.21188200000000001;0.8245809999999999;0.831116;1.15075;0.0;0.0;0.0;0.0;0.0;0.0;0.0;0.0;0.0;0.0;1000.0;228.0;1024.0;1024.0;1024.0;930.0;1024.0;1024.0;1024.0;1.0;3.0;0.0;1300.0;15.0;9.0;0.0;0.0;0.0;0.0;0.0;0.0;0.0;;1970-01-01 00:00:00.924
1009.0;1012.0;0.0;-1.0;-1.0;-1.0;461.583;398.667;100.0;0.0;0.0;0.0;0.0;0.0;0.0;0.0;0.0;0.0;0.0;0.0;0.0;0.0;0.0;669.0;345.0;11.5172;666.562;345.434;0.0;60.0;1.0;-1.0653299999999999;-1.3549;-1.32358;-1.08578;-1.3439299999999998;-1.31918;0.42316000000000004;-0.36113;-0.193619;0.9776;1.08182;1.29298;0.0;0.0;0.0;0.0;0.0;0.0;0.0;0.0;0.0;0.0;1000.0;228.0;1024.0;1024.0;1024.0;930.0;1024.0;1024.0;1024.0;1.0;3.0;0.0;1300.0;15.0;9.0;0.0;0.0;0.0;0.0;0.0;0.0;0.0;;1970-01-01 00:00:00.935
1009.0;1012.0;0.0;-1.0;-1.0;-1.0;461.583;398.667;100.0;0.0;0.0;0.0;0.0;0.0;0.0;0.0;0.0;0.0;0.0;0.0;0.0;0.0;0.0;669.0;345.0;11.5172;666.562;345.434;0.0;60.0;1.0;-1.0653299999999999;-1.3549;-1.32358;-1.08578;-1.3439299999999998;-1.31918;0.42316000000000004;-0.36113;-0.193619;0.9776;1.08182;1.29298;0.0;0.0;0.0;0.0;0.0;0.0;0.0;0.0;0.0;0.0;1000.0;228.0;1024.0;1024.0;1024.0;930.0;1024.0;1024.0;1024.0;1.0;3.0;0.0;1300.0;15.0;9.0;0.0;0.0;0.0;0.0;0.0;0.0;0.0;;1970-01-01 00:00:00.946
1010.0;1013.0;0.0;-1.0;-1.0;-1.0;461.583;398.667;100.0;0.0;0.0;0.0;0.0;0.0;0.0;0.0;0.0;0.0;0.0;0.0;0.0;0.0;0.0;668.25;345.75;11.5043;664.549;345.99;0.0;61.0;1.0;-1.0632700000000002;-1.3591799999999998;-1.32335;-1.07902;-1.34851;-1.32043;0.43652399999999997;-0.334459;-0.168037;1.0510899999999999;1.27472;1.39534;0.0;0.0;0.0;0.0;0.0;0.0;0.0;0.0;0.0;0.0;1000.0;228.0;1024.0;1024.0;1024.0;930.0;1024.0;1024.0;1024.0;1.0;3.0;0.0;1300.0;15.0;9.0;0.0;0.0;0.0;0.0;0.0;0.0;0.0;;1970-01-01 00:00:00.957
1011.0;1014.0;0.0;-1.0;-1.0;-1.0;461.583;398.667;100.0;0.0;0.0;0.0;0.0;0.0;0.0;0.0;0.0;0.0;0.0;0.0;0.0;0.0;0.0;666.0;347.0;11.5153;662.485;346.77099999999996;0.0;62.0;1.0;-1.0525;-1.36248;-1.31922;-1.07107;-1.3527;-1.32007;0.451358;-0.30525599999999997;-0.13483299999999998;1.05999;1.40259;1.47;0.0;0.0;0.0;0.0;0.0;0.0;0.0;0.0;0.0;0.0;1000.0;228.0;1024.0;1024.0;1024.0;930.0;1024.0;1024.0;1024.0;1.0;3.0;0.0;1300.0;15.0;9.0;0.0;0.0;0.0;0.0;0.0;0.0;0.0;;1970-01-01 00:00:00.968
1011.0;1014.0;0.0;-1.0;-1.0;-1.0;461.583;398.667;100.0;0.0;0.0;0.0;0.0;0.0;0.0;0.0;0.0;0.0;0.0;0.0;0.0;0.0;0.0;666.0;347.0;11.5153;662.485;346.77099999999996;0.0;62.0;1.0;-1.0525;-1.36248;-1.31922;-1.07107;-1.3527;-1.32007;0.451358;-0.30525599999999997;-0.13483299999999998;1.05999;1.40259;1.47;0.0;0.0;0.0;0.0;0.0;0.0;0.0;0.0;0.0;0.0;1000.0;228.0;1024.0;1024.0;1024.0;930.0;1024.0;1024.0;1024.0;1.0;3.0;0.0;1300.0;15.0;9.0;0.0;0.0;0.0;0.0;0.0;0.0;0.0;;1970-01-01 00:00:00.979
1012.0;1015.0;0.0;-1.0;-1.0;-1.0;461.583;398.667;100.0;0.0;0.0;0.0;0.0;0.0;0.0;0.0;0.0;0.0;0.0;0.0;0.0;0.0;0.0;664.6669999999999;347.778;11.4724;660.673;347.565;0.0;63.0;1.0;-1.05064;-1.37045;-1.32237;-1.06494;-1.35802;-1.32076;0.44728900000000005;-0.294473;-0.113559;0.904492;1.3828799999999999;1.4301;0.0;0.0;0.0;0.0;0.0;0.0;0.0;0.0;0.0;0.0;1000.0;228.0;1024.0;1024.0;1024.0;930.0;1024.0;1024.0;1024.0;1.0;3.0;0.0;1300.0;15.0;9.0;0.0;0.0;0.0;0.0;0.0;0.0;0.0;;1970-01-01 00:00:00.990
1013.0;1016.0;0.0;-1.0;-1.0;-1.0;461.583;398.667;100.0;0.0;0.0;0.0;0.0;0.0;0.0;0.0;0.0;0.0;0.0;0.0;0.0;0.0;0.0;662.0;349.0;11.495999999999999;658.62;348.51;0.0;64.0;1.0;-1.03691;-1.37214;-1.31685;-1.05653;-1.36226;-1.31959;0.45143999999999995;-0.283906;-0.0843554;0.8209059999999999;1.3719700000000001;1.4958799999999999;0.0;0.0;0.0;0.0;0.0;0.0;0.0;0.0;0.0;0.0;1000.0;228.0;1024.0;1024.0;1024.0;930.0;1024.0;1024.0;1024.0;1.0;3.0;0.0;1300.0;15.0;9.0;0.0;0.0;0.0;0.0;0.0;0.0;0.0;;1970-01-01 00:00:01.001
1013.0;1016.0;0.0;-1.0;-1.0;-1.0;461.583;398.667;100.0;0.0;0.0;0.0;0.0;0.0;0.0;0.0;0.0;0.0;0.0;0.0;0.0;0.0;0.0;662.0;349.0;11.495999999999999;658.62;348.51;0.0;64.0;1.0;-1.03691;-1.37214;-1.31685;-1.05653;-1.36226;-1.31959;0.45143999999999995;-0.283906;-0.0843554;0.8209059999999999;1.3719700000000001;1.4958799999999999;0.0;0.0;0.0;0.0;0.0;0.0;0.0;0.0;0.0;0.0;1000.0;228.0;1024.0;1024.0;1024.0;930.0;1024.0;1024.0;1024.0;1.0;3.0;0.0;1300.0;15.0;9.0;0.0;0.0;0.0;0.0;0.0;0.0;0.0;;1970-01-01 00:00:01.012
1014.0;1017.0;0.0;-1.0;-1.0;-1.0;461.583;398.667;100.0;0.0;0.0;0.0;0.0;0.0;0.0;0.0;0.0;0.0;0.0;0.0;0.0;0.0;0.0;661.0;349.6;11.4649;656.92;349.36400000000003;0.0;65.0;1.0;-1.03536;-1.3780700000000001;-1.31904;-1.05018;-1.367;-1.31942;0.447989;-0.281198;-0.0591092;0.656766;1.23306;1.5075;0.0;0.0;0.0;0.0;0.0;0.0;0.0;0.0;0.0;0.0;1000.0;228.0;1024.0;1024.0;1024.0;930.0;1024.0;1024.0;1024.0;1.0;3.0;0.0;1300.0;15.0;9.0;0.0;0.0;0.0;0.0;0.0;0.0;0.0;;1970-01-01 00:00:01.023
1015.0;1018.0;0.0;-1.0;-1.0;-1.0;461.583;398.667;100.0;0.0;0.0;0.0;0.0;0.0;0.0;0.0;0.0;0.0;0.0;0.0;0.0;0.0;0.0;657.778;350.667;11.4627;654.768;350.30199999999996;0.0;66.0;1.0;-1.02154;-1.38228;-1.31684;-1.04159;-1.3715899999999999;-1.31865;0.44523;-0.279121;-0.033341300000000004;0.482181;1.0672700000000002;1.54444;0.0;0.0;0.0;0.0;0.0;0.0;0.0;0.0;0.0;0.0;1000.0;228.0;1024.0;1024.0;1024.0;930.0;1024.0;1024.0;1024.0;1.0;3.0;0.0;1300.0;15.0;9.0;0.0;0.0;0.0;0.0;0.0;0.0;0.0;;1970-01-01 00:00:01.034
1015.0;1018.0;0.0;-1.0;-1.0;-1.0;461.583;398.667;100.0;0.0;0.0;0.0;0.0;0.0;0.0;0.0;0.0;0.0;0.0;0.0;0.0;0.0;0.0;657.778;350.667;11.4627;654.768;350.30199999999996;0.0;66.0;1.0;-1.02154;-1.38228;-1.31684;-1.04159;-1.3715899999999999;-1.31865;0.44523;-0.279121;-0.033341300000000004;0.482181;1.0672700000000002;1.54444;0.0;0.0;0.0;0.0;0.0;0.0;0.0;0.0;0.0;0.0;1000.0;228.0;1024.0;1024.0;1024.0;930.0;1024.0;1024.0;1024.0;1.0;3.0;0.0;1300.0;15.0;9.0;0.0;0.0;0.0;0.0;0.0;0.0;0.0;;1970-01-01 00:00:01.045
1016.0;1019.0;0.0;-1.0;-1.0;-1.0;461.583;398.667;100.0;0.0;0.0;0.0;0.0;0.0;0.0;0.0;0.0;0.0;0.0;0.0;0.0;0.0;0.0;656.0;352.0;11.360999999999999;652.748;351.38300000000004;0.0;67.0;1.0;-1.02288;-1.39963;-1.32554;-1.03597;-1.38;-1.3207200000000001;0.439025;-0.293211;-0.0211447;0.299297;0.805052;1.51316;0.0;0.0;0.0;0.0;0.0;0.0;0.0;0.0;0.0;0.0;1000.0;228.0;1024.0;1024.0;1024.0;930.0;1024.0;1024.0;1024.0;1.0;3.0;0.0;1300.0;15.0;9.0;0.0;0.0;0.0;0.0;0.0;0.0;0.0;;1970-01-01 00:00:01.056
1017.0;1020.0;0.0;-1.0;-1.0;-1.0;461.583;398.667;100.0;0.0;0.0;0.0;0.0;0.0;0.0;0.0;0.0;0.0;0.0;0.0;0.0;0.0;0.0;653.3330000000001;352.222;11.4715;650.538;352.215;0.0;68.0;1.0;-1.0014299999999998;-1.38697;-1.31227;-1.0256100000000001;-1.38209;-1.31818;0.444913;-0.29328699999999996;-0.00515278;0.153847;0.530821;1.42567;0.0;0.0;0.0;0.0;0.0;0.0;0.0;0.0;0.0;0.0;1000.0;1000.0;1024.0;1024.0;1024.0;930.0;1024.0;1024.0;1024.0;1.0;3.0;0.0;1300.0;15.0;9.0;0.0;0.0;0.0;0.0;0.0;0.0;0.0;;1970-01-01 00:00:01.067
1018.0;1021.0;0.0;-1.0;-1.0;-1.0;461.583;398.667;101.0;0.0;0.0;0.0;0.0;0.0;0.0;0.0;0.0;0.0;0.0;0.0;0.0;0.0;0.0;651.0;353.6;11.2556;648.297;353.23199999999997;0.0;69.0;1.0;-1.01029;-1.41876;-1.3342;-1.02101;-1.39309;-1.3229899999999999;0.44233100000000003;-0.31599499999999997;-0.0119946;0.0725132;0.23256300000000002;1.26092;0.0;0.0;0.0;0.0;0.0;0.0;0.0;0.0;0.0;0.0;1000.0;1000.0;1024.0;1024.0;1024.0;930.0;1024.0;1024.0;1024.0;1.0;3.0;0.0;1300.0;15.0;9.0;0.0;0.0;0.0;0.0;0.0;0.0;0.0;;1970-01-01 00:00:01.078
1018.0;1021.0;0.0;-1.0;-1.0;-1.0;461.583;398.667;101.0;0.0;0.0;0.0;0.0;0.0;0.0;0.0;0.0;0.0;0.0;0.0;0.0;0.0;0.0;651.0;353.6;11.2556;648.297;353.23199999999997;0.0;69.0;1.0;-1.01029;-1.41876;-1.3342;-1.02101;-1.39309;-1.3229899999999999;0.44233100000000003;-0.31599499999999997;-0.0119946;0.0725132;0.23256300000000002;1.26092;0.0;0.0;0.0;0.0;0.0;0.0;0.0;0.0;0.0;0.0;1000.0;1000.0;1024.0;1024.0;1024.0;930.0;1024.0;1024.0;1024.0;1.0;3.0;0.0;1300.0;15.0;9.0;0.0;0.0;0.0;0.0;0.0;0.0;0.0;;1970-01-01 00:00:01.089
1019.0;1022.0;0.0;-1.0;-1.0;-1.0;461.583;398.667;102.0;0.0;0.0;0.0;0.0;0.0;0.0;0.0;0.0;0.0;0.0;0.0;0.0;0.0;0.0;648.6669999999999;354.222;11.3686;646.033;354.142;0.0;70.0;1.0;-0.9900049999999999;-1.40698;-1.3195;-1.01171;-1.39726;-1.32194;0.444346;-0.329346;-0.0166038;0.0151851;-0.0418878;1.02706;0.0;0.0;0.0;0.0;0.0;0.0;0.0;0.0;0.0;0.0;1000.0;1000.0;1024.0;1024.0;1024.0;930.0;1024.0;1024.0;1024.0;1.0;3.0;0.0;1300.0;15.0;9.0;0.0;0.0;0.0;0.0;0.0;0.0;0.0;;1970-01-01 00:00:01.100
1020.0;1023.0;0.0;-1.0;-1.0;-1.0;461.583;398.667;103.0;0.0;0.0;0.0;0.0;0.0;0.0;0.0;0.0;0.0;0.0;0.0;0.0;0.0;0.0;645.6;355.2;11.3593;643.519;355.088;0.0;71.0;1.0;-0.9773430000000001;-1.41178;-1.31831;-1.0014;-1.40161;-1.32085;0.461367;-0.335804;-0.0156767;0.0625285;-0.24316;0.789651;0.0;0.0;0.0;0.0;0.0;0.0;0.0;0.0;0.0;0.0;1000.0;1000.0;1024.0;1024.0;1024.0;930.0;1024.0;1024.0;1024.0;1.0;3.0;0.0;1300.0;15.0;9.0;0.0;0.0;0.0;0.0;0.0;0.0;0.0;;1970-01-01 00:00:01.111
1020.0;1023.0;0.0;-1.0;-1.0;-1.0;461.583;398.667;103.0;0.0;0.0;0.0;0.0;0.0;0.0;0.0;0.0;0.0;0.0;0.0;0.0;0.0;0.0;645.6;355.2;11.3593;643.519;355.088;0.0;71.0;1.0;-0.9773430000000001;-1.41178;-1.31831;-1.0014;-1.40161;-1.32085;0.461367;-0.335804;-0.0156767;0.0625285;-0.24316;0.789651;0.0;0.0;0.0;0.0;0.0;0.0;0.0;0.0;0.0;0.0;1000.0;1000.0;1024.0;1024.0;1024.0;930.0;1024.0;1024.0;1024.0;1.0;3.0;0.0;1300.0;15.0;9.0;0.0;0.0;0.0;0.0;0.0;0.0;0.0;;1970-01-01 00:00:01.122
1021.0;1024.0;0.0;-1.0;-1.0;-1.0;461.583;398.667;104.0;0.0;0.0;0.0;0.0;0.0;0.0;0.0;0.0;0.0;0.0;0.0;0.0;0.0;0.0;644.0;356.0;11.3225;641.289;356.00199999999995;0.0;72.0;1.0;-0.9734700000000001;-1.41936;-1.32074;-0.9930209999999999;-1.4069399999999999;-1.32082;0.470729;-0.34263299999999997;-0.018069099999999998;0.139324;-0.39948;0.534768;0.0;0.0;0.0;0.0;0.0;0.0;0.0;0.0;0.0;0.0;1000.0;1000.0;1024.0;1024.0;1024.0;930.0;1024.0;1024.0;1024.0;1.0;3.0;0.0;1300.0;15.0;9.0;0.0;0.0;0.0;0.0;0.0;0.0;0.0;;1970-01-01 00:00:01.133
1022.0;1025.0;0.0;-1.0;-1.0;-1.0;461.583;398.667;105.0;0.0;0.0;0.0;0.0;0.0;0.0;0.0;0.0;0.0;0.0;0.0;0.0;0.0;0.0;640.3330000000001;356.333;11.2764;638.609;356.744;0.0;73.0;1.0;-0.9612229999999999;-1.42641;-1.32536;-0.983482;-1.41278;-1.32218;0.49202299999999993;-0.336463;-0.0166825;0.295197;-0.41238;0.338677;0.0;0.0;0.0;0.0;0.0;0.0;0.0;0.0;0.0;0.0;1000.0;1000.0;1024.0;1024.0;1024.0;930.0;1024.0;1024.0;1024.0;1.0;3.0;0.0;1300.0;15.0;9.0;0.0;0.0;0.0;0.0;0.0;0.0;0.0;;1970-01-01 00:00:01.144
1022.0;1025.0;0.0;-1.0;-1.0;-1.0;461.583;398.667;105.0;0.0;0.0;0.0;0.0;0.0;0.0;0.0;0.0;0.0;0.0;0.0;0.0;0.0;0.0;640.3330000000001;356.333;11.2764;638.609;356.744;0.0;73.0;1.0;-0.9612229999999999;-1.42641;-1.32536;-0.983482;-1.41278;-1.32218;0.49202299999999993;-0.336463;-0.0166825;0.295197;-0.41238;0.338677;0.0;0.0;0.0;0.0;0.0;0.0;0.0;0.0;0.0;0.0;1000.0;1000.0;1024.0;1024.0;1024.0;930.0;1024.0;1024.0;1024.0;1.0;3.0;0.0;1300.0;15.0;9.0;0.0;0.0;0.0;0.0;0.0;0.0;0.0;;1970-01-01 00:00:01.155
1023.0;1026.0;0.0;-1.0;-1.0;-1.0;461.583;398.667;106.0;0.0;0.0;0.0;0.0;0.0;0.0;0.0;0.0;0.0;0.0;0.0;0.0;0.0;0.0;639.0;357.0;11.1957;636.344;357.466;0.0;74.0;1.0;-0.96221;-1.4392200000000002;-1.33334;-0.9771;-1.4207100000000001;-1.3255299999999999;0.488896;-0.356079;-0.039344800000000006;0.35272800000000004;-0.49813900000000005;0.0666879;0.0;0.0;0.0;0.0;0.0;0.0;0.0;0.0;0.0;0.0;1000.0;1000.0;1024.0;1024.0;1024.0;930.0;1024.0;1024.0;1024.0;1.0;3.0;0.0;1300.0;15.0;9.0;0.0;0.0;0.0;0.0;0.0;0.0;0.0;;1970-01-01 00:00:01.166
1024.0;1027.0;0.0;-1.0;-1.0;-1.0;461.583;398.667;107.0;0.0;0.0;0.0;0.0;0.0;0.0;0.0;0.0;0.0;0.0;0.0;0.0;0.0;0.0;636.6669999999999;357.778;11.1908;634.063;358.209;0.0;75.0;1.0;-0.9522209999999999;-1.44279;-1.33209;-0.969636;-1.42734;-1.3275;0.49846599999999996;-0.35036999999999996;-0.0416032;0.43576499999999996;-0.436134;-0.0782052;0.0;0.0;0.0;0.0;0.0;0.0;0.0;0.0;0.0;0.0;1000.0;1000.0;1024.0;1024.0;1024.0;930.0;1024.0;1024.0;1024.0;1.0;3.0;0.0;1300.0;15.0;9.0;0.0;0.0;0.0;0.0;0.0;0.0;0.0;;1970-01-01 00:00:01.177
1024.0;1027.0;0.0;-1.0;-1.0;-1.0;461.583;398.667;107.0;0.0;0.0;0.0;0.0;0.0;0.0;0.0;0.0;0.0;0.0;0.0;0.0;0.0;0.0;636.6669999999999;357.778;11.1908;634.063;358.209;0.0;75.0;1.0;-0.9522209999999999;-1.44279;-1.33209;-0.969636;-1.42734;-1.3275;0.49846599999999996;-0.35036999999999996;-0.0416032;0.43576499999999996;-0.436134;-0.0782052;0.0;0.0;0.0;0.0;0.0;0.0;0.0;0.0;0.0;0.0;1000.0;1000.0;1024.0;1024.0;1024.0;930.0;1024.0;1024.0;1024.0;1.0;3.0;0.0;1300.0;15.0;9.0;0.0;0.0;0.0;0.0;0.0;0.0;0.0;;1970-01-01 00:00:01.188
1025.0;1028.0;0.0;-1.0;-1.0;-1.0;461.583;398.667;108.0;0.0;0.0;0.0;0.0;0.0;0.0;0.0;0.0;0.0;0.0;0.0;0.0;0.0;0.0;633.6669999999999;358.333;11.2518;631.557;358.897;0.0;76.0;1.0;-0.9337549999999999;-1.43706;-1.32356;-0.958872;-1.43025;-1.3263200000000002;0.510047;-0.341956;-0.0424213;0.523783;-0.31203000000000003;-0.150005;0.0;0.0;0.0;0.0;0.0;0.0;0.0;0.0;0.0;0.0;1000.0;1000.0;1024.0;1024.0;1024.0;930.0;1024.0;1024.0;1024.0;1.0;3.0;0.0;1300.0;15.0;9.0;0.0;0.0;0.0;0.0;0.0;0.0;0.0;;1970-01-01 00:00:01.199
1026.0;1029.0;0.0;-1.0;-1.0;-1.0;461.583;398.667;109.0;0.0;0.0;0.0;0.0;0.0;0.0;0.0;0.0;0.0;0.0;0.0;0.0;0.0;0.0;631.75;357.75;10.9731;629.234;359.181;0.0;77.0;1.0;-0.9487559999999999;-1.4713100000000001;-1.35858;-0.955837;-1.4425700000000001;-1.3359999999999999;0.487946;-0.368693;-0.0859094;0.420392;-0.318533;-0.37041999999999997;0.0;0.0;0.0;0.0;0.0;0.0;0.0;0.0;0.0;0.0;1000.0;1000.0;1024.0;1024.0;1024.0;930.0;1024.0;1024.0;1024.0;1.0;3.0;0.0;1300.0;15.0;9.0;0.0;0.0;0.0;0.0;0.0;0.0;0.0;;1970-01-01 00:00:01.210
1026.0;1029.0;0.0;-1.0;-1.0;-1.0;461.583;398.667;109.0;0.0;0.0;0.0;0.0;0.0;0.0;0.0;0.0;0.0;0.0;0.0;0.0;0.0;0.0;631.75;357.75;10.9731;629.234;359.181;0.0;77.0;1.0;-0.9487559999999999;-1.4713100000000001;-1.35858;-0.955837;-1.4425700000000001;-1.3359999999999999;0.487946;-0.368693;-0.0859094;0.420392;-0.318533;-0.37041999999999997;0.0;0.0;0.0;0.0;0.0;0.0;0.0;0.0;0.0;0.0;1000.0;1000.0;1024.0;1024.0;1024.0;930.0;1024.0;1024.0;1024.0;1.0;3.0;0.0;1300.0;15.0;9.0;0.0;0.0;0.0;0.0;0.0;0.0;0.0;;1970-01-01 00:00:01.221
1027.0;1030.0;0.0;-1.0;-1.0;-1.0;461.583;398.667;110.0;0.0;0.0;0.0;0.0;0.0;0.0;0.0;0.0;0.0;0.0;0.0;0.0;0.0;0.0;629.0;359.0;11.1706;626.7769999999999;359.75800000000004;0.0;78.0;1.0;-0.919695;-1.45003;-1.33161;-0.944994;-1.44481;-1.3346799999999999;0.484523;-0.37241599999999997;-0.106887;0.307313;-0.310035;-0.576876;0.0;0.0;0.0;0.0;0.0;0.0;0.0;0.0;0.0;0.0;1000.0;1000.0;1024.0;1024.0;1024.0;930.0;1024.0;1024.0;1024.0;1.0;3.0;0.0;1300.0;15.0;9.0;0.0;0.0;0.0;0.0;0.0;0.0;0.0;;1970-01-01 00:00:01.232
1028.0;1031.0;0.0;-1.0;-1.0;-1.0;461.583;398.667;111.0;0.0;0.0;0.0;0.0;0.0;0.0;0.0;0.0;0.0;0.0;0.0;0.0;0.0;0.0;626.25;358.25;10.8996;624.224;359.908;0.0;79.0;1.0;-0.9299729999999999;-1.48317;-1.36653;-0.9404879999999999;-1.45632;-1.3442399999999999;0.46237399999999995;-0.397271;-0.152192;0.06600779999999999;-0.428806;-0.887173;0.0;0.0;0.0;0.0;0.0;0.0;0.0;0.0;0.0;0.0;1000.0;1000.0;1024.0;1024.0;1024.0;930.0;1024.0;1024.0;1024.0;1.0;3.0;0.0;1300.0;15.0;9.0;0.0;0.0;0.0;0.0;0.0;0.0;0.0;;1970-01-01 00:00:01.243
1029.0;1032.0;0.0;-1.0;-1.0;-1.0;461.583;398.667;112.0;0.0;0.0;0.0;0.0;0.0;0.0;0.0;0.0;0.0;0.0;0.0;0.0;0.0;0.0;623.3330000000001;359.333;10.9283;621.547;360.335;0.0;80.0;1.0;-0.914214;-1.48348;-1.3603299999999998;-0.9326059999999999;-1.46446;-1.34907;0.45507700000000006;-0.41304700000000005;-0.18528699999999998;-0.0954248;-0.484738;-1.11501;0.0;0.0;0.0;0.0;0.0;0.0;0.0;0.0;0.0;0.0;1000.0;1000.0;1024.0;1024.0;1024.0;930.0;1024.0;1024.0;1024.0;1.0;3.0;0.0;1300.0;15.0;9.0;0.0;0.0;0.0;0.0;0.0;0.0;0.0;;1970-01-01 00:00:01.254
1029.0;1032.0;0.0;-1.0;-1.0;-1.0;461.583;398.667;112.0;0.0;0.0;0.0;0.0;0.0;0.0;0.0;0.0;0.0;0.0;0.0;0.0;0.0;0.0;623.3330000000001;359.333;10.9283;621.547;360.335;0.0;80.0;1.0;-0.914214;-1.48348;-1.3603299999999998;-0.9326059999999999;-1.46446;-1.34907;0.45507700000000006;-0.41304700000000005;-0.18528699999999998;-0.0954248;-0.484738;-1.11501;0.0;0.0;0.0;0.0;0.0;0.0;0.0;0.0;0.0;0.0;1000.0;1000.0;1024.0;1024.0;1024.0;930.0;1024.0;1024.0;1024.0;1.0;3.0;0.0;1300.0;15.0;9.0;0.0;0.0;0.0;0.0;0.0;0.0;0.0;;1970-01-01 00:00:01.265
1030.0;1033.0;0.0;-1.0;-1.0;-1.0;461.583;398.667;113.0;0.0;0.0;0.0;0.0;0.0;0.0;0.0;0.0;0.0;0.0;0.0;0.0;0.0;0.0;622.0;359.42900000000003;10.8866;619.286;360.649;0.0;81.0;1.0;-0.911609;-1.4895399999999999;-1.36532;-0.926307;-1.47199;-1.35394;0.44604799999999994;-0.426105;-0.216761;-0.266542;-0.5932310000000001;-1.36835;0.0;0.0;0.0;0.0;0.0;0.0;0.0;0.0;0.0;0.0;1000.0;1000.0;1024.0;1024.0;1024.0;930.0;1024.0;1024.0;1024.0;1.0;3.0;0.0;1300.0;15.0;9.0;0.0;0.0;0.0;0.0;0.0;0.0;0.0;;1970-01-01 00:00:01.276
1031.0;1034.0;0.0;-1.0;-1.0;-1.0;461.583;398.667;114.0;0.0;0.0;0.0;0.0;0.0;0.0;0.0;0.0;0.0;0.0;0.0;0.0;0.0;0.0;619.0;360.0;10.8177;616.7959999999999;361.032;0.0;82.0;1.0;-0.903573;-1.50126;-1.3726200000000002;-0.919486;-1.4807700000000001;-1.35954;0.424883;-0.457355;-0.262726;-0.49996;-0.816689;-1.70062;0.0;0.0;0.0;0.0;0.0;0.0;0.0;0.0;0.0;0.0;1000.0;1000.0;1024.0;1024.0;1024.0;930.0;1024.0;1024.0;1024.0;1.0;3.0;0.0;1300.0;15.0;9.0;0.0;0.0;0.0;0.0;0.0;0.0;0.0;;1970-01-01 00:00:01.287
1031.0;1034.0;0.0;-1.0;-1.0;-1.0;461.583;398.667;114.0;0.0;0.0;0.0;0.0;0.0;0.0;0.0;0.0;0.0;0.0;0.0;0.0;0.0;0.0;619.0;360.0;10.8177;616.7959999999999;361.032;0.0;82.0;1.0;-0.903573;-1.50126;-1.3726200000000002;-0.919486;-1.4807700000000001;-1.35954;0.424883;-0.457355;-0.262726;-0.49996;-0.816689;-1.70062;0.0;0.0;0.0;0.0;0.0;0.0;0.0;0.0;0.0;0.0;1000.0;1000.0;1024.0;1024.0;1024.0;930.0;1024.0;1024.0;1024.0;1.0;3.0;0.0;1300.0;15.0;9.0;0.0;0.0;0.0;0.0;0.0;0.0;0.0;;1970-01-01 00:00:01.298
1032.0;1035.0;0.0;-1.0;-1.0;-1.0;461.583;398.667;115.0;0.0;0.0;0.0;0.0;0.0;0.0;0.0;0.0;0.0;0.0;0.0;0.0;0.0;0.0;617.429;360.0;10.705;614.595;361.284;0.0;83.0;1.0;-0.9057569999999999;-1.51705;-1.38706;-0.9153680000000001;-1.49165;-1.3678;0.416512;-0.470393;-0.284617;-0.58519;-0.896072;-1.81375;0.0;0.0;0.0;0.0;0.0;0.0;0.0;0.0;0.0;0.0;1000.0;1000.0;1024.0;1024.0;1024.0;930.0;1024.0;1024.0;1024.0;1.0;3.0;0.0;1300.0;15.0;9.0;0.0;0.0;0.0;0.0;0.0;0.0;0.0;;1970-01-01 00:00:01.309
1033.0;1036.0;0.0;-1.0;-1.0;-1.0;461.583;398.667;116.0;0.0;0.0;0.0;0.0;0.0;0.0;0.0;0.0;0.0;0.0;0.0;0.0;0.0;0.0;615.6669999999999;359.667;10.7218;612.543;361.334;0.0;84.0;1.0;-0.896141;-1.51337;-1.38571;-0.9096;-1.49817;-1.37317;0.391228;-0.49528599999999995;-0.324464;-0.7236130000000001;-1.0282200000000001;-1.95697;0.0;0.0;0.0;0.0;0.0;0.0;0.0;0.0;0.0;0.0;1000.0;1000.0;1024.0;1024.0;1024.0;930.0;1024.0;1024.0;1024.0;1.0;3.0;0.0;1300.0;15.0;9.0;0.0;0.0;0.0;0.0;0.0;0.0;0.0;;1970-01-01 00:00:01.320
1033.0;1036.0;0.0;-1.0;-1.0;-1.0;461.583;398.667;116.0;0.0;0.0;0.0;0.0;0.0;0.0;0.0;0.0;0.0;0.0;0.0;0.0;0.0;0.0;615.6669999999999;359.667;10.7218;612.543;361.334;0.0;84.0;1.0;-0.896141;-1.51337;-1.38571;-0.9096;-1.49817;-1.37317;0.391228;-0.49528599999999995;-0.324464;-0.7236130000000001;-1.0282200000000001;-1.95697;0.0;0.0;0.0;0.0;0.0;0.0;0.0;0.0;0.0;0.0;1000.0;1000.0;1024.0;1024.0;1024.0;930.0;1024.0;1024.0;1024.0;1.0;3.0;0.0;1300.0;15.0;9.0;0.0;0.0;0.0;0.0;0.0;0.0;0.0;;1970-01-01 00:00:01.331
1034.0;1037.0;0.0;-1.0;-1.0;-1.0;461.583;398.667;117.0;0.0;0.0;0.0;0.0;0.0;0.0;0.0;0.0;0.0;0.0;0.0;0.0;0.0;0.0;613.3330000000001;360.667;10.8352;610.4159999999999;361.665;0.0;85.0;1.0;-0.8760190000000001;-1.5014399999999999;-1.3687799999999999;-0.899526;-1.49915;-1.37186;0.39828800000000003;-0.46819399999999994;-0.30495900000000004;-0.690044;-0.900109;-1.78413;0.0;0.0;0.0;0.0;0.0;0.0;0.0;0.0;0.0;0.0;1000.0;1000.0;1024.0;1024.0;1024.0;930.0;1024.0;1024.0;1024.0;1.0;3.0;0.0;1300.0;15.0;9.0;0.0;0.0;0.0;0.0;0.0;0.0;0.0;;1970-01-01 00:00:01.342
1035.0;1038.0;0.0;-1.0;-1.0;-1.0;461.583;398.667;118.0;0.0;0.0;0.0;0.0;0.0;0.0;0.0;0.0;0.0;0.0;0.0;0.0;0.0;0.0;613.429;360.0;10.6031;609.009;361.66900000000004;0.0;86.0;1.0;-0.895645;-1.53165;-1.40041;-0.8983610000000001;-1.5089;-1.38042;0.3757;-0.45833199999999996;-0.30817100000000003;-0.730954;-0.720873;-1.56112;0.0;0.0;0.0;0.0;0.0;0.0;0.0;0.0;0.0;0.0;1000.0;1000.0;1024.0;1024.0;1024.0;930.0;1024.0;1024.0;1024.0;1.0;3.0;0.0;1300.0;15.0;9.0;0.0;0.0;0.0;0.0;0.0;0.0;0.0;;1970-01-01 00:00:01.353
1035.0;1038.0;0.0;-1.0;-1.0;-1.0;461.583;398.667;118.0;0.0;0.0;0.0;0.0;0.0;0.0;0.0;0.0;0.0;0.0;0.0;0.0;0.0;0.0;613.429;360.0;10.6031;609.009;361.66900000000004;0.0;86.0;1.0;-0.895645;-1.53165;-1.40041;-0.8983610000000001;-1.5089;-1.38042;0.3757;-0.45833199999999996;-0.30817100000000003;-0.730954;-0.720873;-1.56112;0.0;0.0;0.0;0.0;0.0;0.0;0.0;0.0;0.0;0.0;1000.0;1000.0;1024.0;1024.0;1024.0;930.0;1024.0;1024.0;1024.0;1.0;3.0;0.0;1300.0;15.0;9.0;0.0;0.0;0.0;0.0;0.0;0.0;0.0;;1970-01-01 00:00:01.364
1036.0;1039.0;0.0;-1.0;-1.0;-1.0;461.583;398.667;119.0;0.0;0.0;0.0;0.0;0.0;0.0;0.0;0.0;0.0;0.0;0.0;0.0;0.0;0.0;612.0;359.0;10.5074;607.637;361.329;0.0;87.0;1.0;-0.897017;-1.54156;-1.41567;-0.897958;-1.5187;-1.391;0.338607;-0.46150699999999995;-0.33284600000000003;-0.867552;-0.573873;-1.40016;0.0;0.0;0.0;0.0;0.0;0.0;0.0;0.0;0.0;0.0;1000.0;1000.0;1024.0;1024.0;1024.0;930.0;1024.0;1024.0;1024.0;1.0;3.0;0.0;1300.0;15.0;9.0;0.0;0.0;0.0;0.0;0.0;0.0;0.0;;1970-01-01 00:00:01.375
1037.0;1040.0;0.0;-1.0;-1.0;-1.0;461.583;398.667;120.0;0.0;0.0;0.0;0.0;0.0;0.0;0.0;0.0;0.0;0.0;0.0;0.0;0.0;0.0;610.4;358.8;10.5048;606.234;360.99699999999996;0.0;88.0;1.0;-0.8896379999999999;-1.54114;-1.41652;-0.8954620000000001;-1.5254299999999998;-1.39865;0.299088;-0.45523199999999997;-0.355854;-1.0228;-0.33585;-1.21193;0.0;0.0;0.0;0.0;0.0;0.0;0.0;0.0;0.0;0.0;1000.0;1000.0;1024.0;1024.0;1024.0;930.0;1024.0;1024.0;1024.0;1.0;3.0;0.0;1300.0;15.0;9.0;0.0;0.0;0.0;0.0;0.0;0.0;0.0;;1970-01-01 00:00:01.386
1037.0;1040.0;0.0;-1.0;-1.0;-1.0;461.583;398.667;120.0;0.0;0.0;0.0;0.0;0.0;0.0;0.0;0.0;0.0;0.0;0.0;0.0;0.0;0.0;610.4;358.8;10.5048;606.234;360.99699999999996;0.0;88.0;1.0;-0.8896379999999999;-1.54114;-1.41652;-0.8954620000000001;-1.5254299999999998;-1.39865;0.299088;-0.45523199999999997;-0.355854;-1.0228;-0.33585;-1.21193;0.0;0.0;0.0;0.0;0.0;0.0;0.0;0.0;0.0;0.0;1000.0;1000.0;1024.0;1024.0;1024.0;930.0;1024.0;1024.0;1024.0;1.0;3.0;0.0;1300.0;15.0;9.0;0.0;0.0;0.0;0.0;0.0;0.0;0.0;;1970-01-01 00:00:01.397
1038.0;1041.0;0.0;-1.0;-1.0;-1.0;461.583;398.667;121.0;0.0;0.0;0.0;0.0;0.0;0.0;0.0;0.0;0.0;0.0;0.0;0.0;0.0;0.0;610.0;357.42900000000003;10.4615;605.189;360.298;0.0;89.0;1.0;-0.8914129999999999;-1.54196;-1.42584;-0.8942469999999999;-1.53039;-1.4068100000000001;0.263781;-0.427806;-0.369261;-1.2235;-0.0314682;-1.06512;0.0;0.0;0.0;0.0;0.0;0.0;0.0;0.0;0.0;0.0;1000.0;1000.0;1024.0;1024.0;1024.0;930.0;1024.0;1024.0;1024.0;1.0;3.0;0.0;1300.0;15.0;9.0;0.0;0.0;0.0;0.0;0.0;0.0;0.0;;1970-01-01 00:00:01.408
1039.0;1042.0;0.0;-1.0;-1.0;-1.0;461.583;398.667;122.0;0.0;0.0;0.0;0.0;0.0;0.0;0.0;0.0;0.0;0.0;0.0;0.0;0.0;0.0;609.0;357.0;10.5;604.211;359.63599999999997;0.0;90.0;1.0;-0.883389;-1.53457;-1.4216799999999998;-0.89099;-1.53165;-1.41127;0.23257199999999997;-0.390354;-0.373663;-1.3675700000000002;0.40008499999999997;-0.835514;0.0;0.0;0.0;0.0;0.0;0.0;0.0;0.0;0.0;0.0;1000.0;1000.0;1024.0;1024.0;1024.0;930.0;1024.0;1024.0;1024.0;1.0;3.0;0.0;1300.0;15.0;9.0;0.0;0.0;0.0;0.0;0.0;0.0;0.0;;1970-01-01 00:00:01.419
1040.0;1043.0;0.0;-1.0;-1.0;-1.0;461.583;398.667;123.0;0.0;0.0;0.0;0.0;0.0;0.0;0.0;0.0;0.0;0.0;0.0;0.0;0.0;0.0;608.0;356.57099999999997;10.4349;603.279;359.00199999999995;0.0;91.0;1.0;-0.8841209999999999;-1.54241;-1.43164;-0.8889290000000001;-1.53488;-1.4173799999999999;0.181851;-0.37685799999999997;-0.405962;-1.68472;0.604733;-0.90459;0.0;0.0;0.0;0.0;0.0;0.0;0.0;0.0;0.0;0.0;1000.0;1000.0;1024.0;1024.0;1024.0;930.0;1024.0;1024.0;1024.0;1.0;3.0;0.0;1300.0;15.0;9.0;0.0;0.0;0.0;0.0;0.0;0.0;0.0;;1970-01-01 00:00:01.430
1040.0;1043.0;0.0;-1.0;-1.0;-1.0;461.583;398.667;123.0;0.0;0.0;0.0;0.0;0.0;0.0;0.0;0.0;0.0;0.0;0.0;0.0;0.0;0.0;608.0;356.57099999999997;10.4349;603.279;359.00199999999995;0.0;91.0;1.0;-0.8841209999999999;-1.54241;-1.43164;-0.8889290000000001;-1.53488;-1.4173799999999999;0.181851;-0.37685799999999997;-0.405962;-1.68472;0.604733;-0.90459;0.0;0.0;0.0;0.0;0.0;0.0;0.0;0.0;0.0;0.0;1000.0;1000.0;1024.0;1024.0;1024.0;930.0;1024.0;1024.0;1024.0;1.0;3.0;0.0;1300.0;15.0;9.0;0.0;0.0;0.0;0.0;0.0;0.0;0.0;;1970-01-01 00:00:01.441
1041.0;1044.0;0.0;-1.0;-1.0;-1.0;461.583;398.667;124.0;0.0;0.0;0.0;0.0;0.0;0.0;0.0;0.0;0.0;0.0;0.0;0.0;0.0;0.0;606.25;355.75;10.4837;602.139;358.26599999999996;0.0;92.0;1.0;-0.871669;-1.5319;-1.42703;-0.8837510000000001;-1.53398;-1.4202700000000001;0.167445;-0.326271;-0.40270100000000003;-1.84234;0.8901209999999999;-0.92019;0.0;0.0;0.0;0.0;0.0;0.0;0.0;0.0;0.0;0.0;1000.0;1000.0;1024.0;1024.0;1024.0;930.0;1024.0;1024.0;1024.0;1.0;3.0;0.0;1300.0;15.0;9.0;0.0;0.0;0.0;0.0;0.0;0.0;0.0;;1970-01-01 00:00:01.452
1042.0;1045.0;0.0;-1.0;-1.0;-1.0;461.583;398.667;125.0;0.0;0.0;0.0;0.0;0.0;0.0;0.0;0.0;0.0;0.0;0.0;0.0;0.0;0.0;605.6669999999999;354.333;10.3386;601.2180000000001;357.267;0.0;93.0;1.0;-0.8810879999999999;-1.5476;-1.4506700000000001;-0.8829520000000001;-1.53807;-1.42939;0.160382;-0.273098;-0.394931;-1.8170099999999998;1.28634;-0.800007;0.0;0.0;0.0;0.0;0.0;0.0;0.0;0.0;0.0;0.0;1000.0;1000.0;1024.0;1024.0;1024.0;930.0;1024.0;1024.0;1024.0;1.0;3.0;0.0;1300.0;15.0;9.0;0.0;0.0;0.0;0.0;0.0;0.0;0.0;;1970-01-01 00:00:01.463
1042.0;1045.0;0.0;-1.0;-1.0;-1.0;461.583;398.667;125.0;0.0;0.0;0.0;0.0;0.0;0.0;0.0;0.0;0.0;0.0;0.0;0.0;0.0;0.0;605.6669999999999;354.333;10.3386;601.2180000000001;357.267;0.0;93.0;1.0;-0.8810879999999999;-1.5476;-1.4506700000000001;-0.8829520000000001;-1.53807;-1.42939;0.160382;-0.273098;-0.394931;-1.8170099999999998;1.28634;-0.800007;0.0;0.0;0.0;0.0;0.0;0.0;0.0;0.0;0.0;0.0;1000.0;1000.0;1024.0;1024.0;1024.0;930.0;1024.0;1024.0;1024.0;1.0;3.0;0.0;1300.0;15.0;9.0;0.0;0.0;0.0;0.0;0.0;0.0;0.0;;1970-01-01 00:00:01.474
1043.0;1046.0;0.0;-1.0;-1.0;-1.0;461.583;398.667;126.0;0.0;0.0;0.0;0.0;0.0;0.0;0.0;0.0;0.0;0.0;0.0;0.0;0.0;0.0;603.429;354.0;10.3404;599.925;356.426;0.0;94.0;1.0;-0.8701399999999999;-1.54597;-1.45127;-0.879108;-1.54044;-1.4359600000000001;0.161524;-0.22378299999999998;-0.385907;-1.63946;1.6959099999999998;-0.6;0.0;0.0;0.0;0.0;0.0;0.0;0.0;0.0;0.0;0.0;1000.0;1000.0;1024.0;1024.0;1024.0;930.0;1024.0;1024.0;1024.0;1.0;3.0;0.0;1300.0;15.0;9.0;0.0;0.0;0.0;0.0;0.0;0.0;0.0;;1970-01-01 00:00:01.485
1044.0;1047.0;0.0;-1.0;-1.0;-1.0;461.583;398.667;127.0;0.0;0.0;0.0;0.0;0.0;0.0;0.0;0.0;0.0;0.0;0.0;0.0;0.0;0.0;602.571;352.0;10.3421;598.803;355.17;0.0;95.0;1.0;-0.865856;-1.53752;-1.45613;-0.8751329999999999;-1.53956;-1.44201;0.173233;-0.170889;-0.372087;-1.3452;2.04334;-0.371284;0.0;0.0;0.0;0.0;0.0;0.0;0.0;0.0;0.0;0.0;1000.0;1000.0;1024.0;1024.0;1024.0;930.0;1024.0;1024.0;1024.0;1.0;3.0;0.0;1300.0;15.0;9.0;0.0;0.0;0.0;0.0;0.0;0.0;0.0;;1970-01-01 00:00:01.496
1044.0;1047.0;0.0;-1.0;-1.0;-1.0;461.583;398.667;127.0;0.0;0.0;0.0;0.0;0.0;0.0;0.0;0.0;0.0;0.0;0.0;0.0;0.0;0.0;602.571;352.0;10.3421;598.803;355.17;0.0;95.0;1.0;-0.865856;-1.53752;-1.45613;-0.8751329999999999;-1.53956;-1.44201;0.173233;-0.170889;-0.372087;-1.3452;2.04334;-0.371284;0.0;0.0;0.0;0.0;0.0;0.0;0.0;0.0;0.0;0.0;1000.0;1000.0;1024.0;1024.0;1024.0;930.0;1024.0;1024.0;1024.0;1.0;3.0;0.0;1300.0;15.0;9.0;0.0;0.0;0.0;0.0;0.0;0.0;0.0;;1970-01-01 00:00:01.507
1045.0;1048.0;0.0;-1.0;-1.0;-1.0;461.583;398.667;128.0;0.0;0.0;0.0;0.0;0.0;0.0;0.0;0.0;0.0;0.0;0.0;0.0;0.0;0.0;600.0;351.42900000000003;10.2694;597.255;354.07;0.0;96.0;1.0;-0.8594950000000001;-1.54605;-1.46791;-0.870441;-1.54151;-1.4497799999999998;0.18598399999999998;-0.14191099999999998;-0.377004;-0.993135;2.2179599999999997;-0.236109;0.0;0.0;0.0;0.0;0.0;0.0;0.0;0.0;0.0;0.0;1000.0;1000.0;1024.0;1024.0;1024.0;930.0;1024.0;1024.0;1024.0;1.0;3.0;0.0;1300.0;15.0;9.0;0.0;0.0;0.0;0.0;0.0;0.0;0.0;;1970-01-01 00:00:01.518
1046.0;1049.0;0.0;-1.0;-1.0;-1.0;461.583;398.667;129.0;0.0;0.0;0.0;0.0;0.0;0.0;0.0;0.0;0.0;0.0;0.0;0.0;0.0;0.0;598.25;350.25;10.1892;595.659;352.894;0.0;97.0;1.0;-0.857692;-1.55332;-1.48252;-0.866617;-1.54505;-1.4596;0.200678;-0.125777;-0.394769;-0.520713;2.3332599999999997;-0.0969731;0.0;0.0;0.0;0.0;0.0;0.0;0.0;0.0;0.0;0.0;1000.0;1000.0;1024.0;1024.0;1024.0;930.0;1024.0;1024.0;1024.0;1.0;3.0;0.0;1300.0;15.0;9.0;0.0;0.0;0.0;0.0;0.0;0.0;0.0;;1970-01-01 00:00:01.529
1046.0;1049.0;0.0;-1.0;-1.0;-1.0;461.583;398.667;129.0;0.0;0.0;0.0;0.0;0.0;0.0;0.0;0.0;0.0;0.0;0.0;0.0;0.0;0.0;598.25;350.25;10.1892;595.659;352.894;0.0;97.0;1.0;-0.857692;-1.55332;-1.48252;-0.866617;-1.54505;-1.4596;0.200678;-0.125777;-0.394769;-0.520713;2.3332599999999997;-0.0969731;0.0;0.0;0.0;0.0;0.0;0.0;0.0;0.0;0.0;0.0;1000.0;1000.0;1024.0;1024.0;1024.0;930.0;1024.0;1024.0;1024.0;1.0;3.0;0.0;1300.0;15.0;9.0;0.0;0.0;0.0;0.0;0.0;0.0;0.0;;1970-01-01 00:00:01.540
1047.0;1050.0;0.0;-1.0;-1.0;-1.0;461.583;398.667;130.0;0.0;0.0;0.0;0.0;0.0;0.0;0.0;0.0;0.0;0.0;0.0;0.0;0.0;0.0;598.0;349.42900000000003;10.1274;594.506;351.777;0.0;98.0;1.0;-0.861691;-1.55936;-1.49369;-0.865139;-1.54934;-1.46983;0.194719;-0.136796;-0.434713;-0.203528;2.15647;-0.185997;0.0;0.0;0.0;0.0;0.0;0.0;0.0;0.0;0.0;0.0;1000.0;1000.0;1024.0;1024.0;1024.0;930.0;1024.0;1024.0;1024.0;1.0;3.0;0.0;1300.0;15.0;9.0;0.0;0.0;0.0;0.0;0.0;0.0;0.0;;1970-01-01 00:00:01.551
1048.0;1051.0;0.0;-1.0;-1.0;-1.0;461.583;398.667;131.0;0.0;0.0;0.0;0.0;0.0;0.0;0.0;0.0;0.0;0.0;0.0;0.0;0.0;0.0;595.6;349.2;9.97843;592.988;350.89599999999996;0.0;99.0;1.0;-0.862553;-1.5816700000000001;-1.5166;-0.8643629999999999;-1.55904;-1.48386;0.191051;-0.165819;-0.47829499999999997;0.00033585699999999995;1.72222;-0.444441;0.0;0.0;0.0;0.0;0.0;0.0;0.0;0.0;0.0;0.0;1000.0;1000.0;1024.0;1024.0;1024.0;930.0;1024.0;1024.0;1024.0;1.0;3.0;0.0;1300.0;15.0;9.0;0.0;0.0;0.0;0.0;0.0;0.0;0.0;;1970-01-01 00:00:01.562
1048.0;1051.0;0.0;-1.0;-1.0;-1.0;461.583;398.667;131.0;0.0;0.0;0.0;0.0;0.0;0.0;0.0;0.0;0.0;0.0;0.0;0.0;0.0;0.0;595.6;349.2;9.97843;592.988;350.89599999999996;0.0;99.0;1.0;-0.862553;-1.5816700000000001;-1.5166;-0.8643629999999999;-1.55904;-1.48386;0.191051;-0.165819;-0.47829499999999997;0.00033585699999999995;1.72222;-0.444441;0.0;0.0;0.0;0.0;0.0;0.0;0.0;0.0;0.0;0.0;1000.0;1000.0;1024.0;1024.0;1024.0;930.0;1024.0;1024.0;1024.0;1.0;3.0;0.0;1300.0;15.0;9.0;0.0;0.0;0.0;0.0;0.0;0.0;0.0;;1970-01-01 00:00:01.573
1049.0;1052.0;0.0;-1.0;-1.0;-1.0;-1.0;-1.0;132.0;0.0;0.0;0.0;0.0;0.0;0.0;0.0;0.0;0.0;0.0;0.0;0.0;0.0;0.0;595.0;348.0;10.1173;591.779;349.87699999999995;0.0;100.0;1.0;-0.847757;-1.55494;-1.49891;-0.859381;-1.5578100000000001;-1.48837;0.193395;-0.168848;-0.496263;0.127451;1.2526700000000002;-0.707279;0.0;0.0;0.0;0.0;0.0;0.0;0.0;0.0;0.0;0.0;1000.0;1000.0;1024.0;1024.0;1024.0;930.0;1024.0;1024.0;1024.0;1.0;3.0;0.0;1300.0;15.0;9.0;0.0;0.0;0.0;0.0;0.0;0.0;0.0;;1970-01-01 00:00:01.584
1050.0;1053.0;0.0;-1.0;-1.0;-1.0;-1.0;-1.0;133.0;0.0;0.0;0.0;0.0;0.0;0.0;0.0;0.0;0.0;0.0;0.0;0.0;0.0;0.0;592.8;348.4;10.0309;590.281;349.27;0.0;101.0;1.0;-0.8441120000000001;-1.5700100000000001;-1.51076;-0.8548;-1.5614700000000001;-1.49509;0.197217;-0.18878499999999998;-0.509704;0.17223;0.680149;-0.973826;0.0;0.0;0.0;0.0;0.0;0.0;0.0;0.0;0.0;0.0;1000.0;1000.0;1024.0;1024.0;1024.0;930.0;1024.0;1024.0;1024.0;1.0;3.0;0.0;1300.0;15.0;9.0;0.0;0.0;0.0;0.0;0.0;0.0;0.0;;1970-01-01 00:00:01.595
1051.0;1054.0;0.0;-1.0;-1.0;-1.0;-1.0;-1.0;134.0;0.0;0.0;0.0;0.0;0.0;0.0;0.0;0.0;0.0;0.0;0.0;0.0;0.0;0.0;591.429;348.0;9.96021;588.8380000000001;348.709;0.0;102.0;1.0;-0.843232;-1.57946;-1.52255;-0.8513299999999999;-1.56687;-1.5033299999999998;0.19463699999999998;-0.214518;-0.5196310000000001;0.13788699999999998;0.11819;-1.1537600000000001;0.0;0.0;0.0;0.0;0.0;0.0;0.0;0.0;0.0;0.0;1000.0;1000.0;1024.0;1024.0;1024.0;930.0;1024.0;1024.0;1024.0;1.0;3.0;0.0;1300.0;15.0;9.0;0.0;0.0;0.0;0.0;0.0;0.0;0.0;;1970-01-01 00:00:01.606
1051.0;1054.0;0.0;-1.0;-1.0;-1.0;-1.0;-1.0;134.0;0.0;0.0;0.0;0.0;0.0;0.0;0.0;0.0;0.0;0.0;0.0;0.0;0.0;0.0;591.429;348.0;9.96021;588.8380000000001;348.709;0.0;102.0;1.0;-0.843232;-1.57946;-1.52255;-0.8513299999999999;-1.56687;-1.5033299999999998;0.19463699999999998;-0.214518;-0.5196310000000001;0.13788699999999998;0.11819;-1.1537600000000001;0.0;0.0;0.0;0.0;0.0;0.0;0.0;0.0;0.0;0.0;1000.0;1000.0;1024.0;1024.0;1024.0;930.0;1024.0;1024.0;1024.0;1.0;3.0;0.0;1300.0;15.0;9.0;0.0;0.0;0.0;0.0;0.0;0.0;0.0;;1970-01-01 00:00:01.617
1052.0;1055.0;0.0;-1.0;-1.0;-1.0;-1.0;-1.0;135.0;0.0;0.0;0.0;0.0;0.0;0.0;0.0;0.0;0.0;0.0;0.0;0.0;0.0;0.0;589.0;349.0;9.99906;587.096;348.62800000000004;0.0;103.0;1.0;-0.827837;-1.57756;-1.514;-0.844282;-1.57007;-1.50653;0.205958;-0.228613;-0.49915200000000004;0.103814;-0.33967600000000003;-1.10903;0.0;0.0;0.0;0.0;0.0;0.0;0.0;0.0;0.0;0.0;1000.0;1000.0;1024.0;1024.0;1024.0;930.0;1024.0;1024.0;1024.0;1.0;3.0;0.0;1300.0;15.0;9.0;0.0;0.0;0.0;0.0;0.0;0.0;0.0;;1970-01-01 00:00:01.628
1053.0;1056.0;0.0;-1.0;-1.0;-1.0;-1.0;-1.0;136.0;0.0;0.0;0.0;0.0;0.0;0.0;0.0;0.0;0.0;0.0;0.0;0.0;0.0;0.0;587.0;349.0;9.87294;585.274;348.577;0.0;104.0;1.0;-0.828304;-1.59771;-1.53334;-0.8394889999999999;-1.57836;-1.51457;0.22599;-0.253035;-0.47813500000000003;0.187141;-0.66791;-0.8387879999999999;0.0;0.0;0.0;0.0;0.0;0.0;0.0;0.0;0.0;0.0;1000.0;1000.0;1024.0;1024.0;1024.0;930.0;1024.0;1024.0;1024.0;1.0;3.0;0.0;1300.0;15.0;9.0;0.0;0.0;0.0;0.0;0.0;0.0;0.0;;1970-01-01 00:00:01.639
1053.0;1056.0;0.0;-1.0;-1.0;-1.0;-1.0;-1.0;136.0;0.0;0.0;0.0;0.0;0.0;0.0;0.0;0.0;0.0;0.0;0.0;0.0;0.0;0.0;587.0;349.0;9.87294;585.274;348.577;0.0;104.0;1.0;-0.828304;-1.59771;-1.53334;-0.8394889999999999;-1.57836;-1.51457;0.22599;-0.253035;-0.47813500000000003;0.187141;-0.66791;-0.8387879999999999;0.0;0.0;0.0;0.0;0.0;0.0;0.0;0.0;0.0;0.0;1000.0;1000.0;1024.0;1024.0;1024.0;930.0;1024.0;1024.0;1024.0;1.0;3.0;0.0;1300.0;15.0;9.0;0.0;0.0;0.0;0.0;0.0;0.0;0.0;;1970-01-01 00:00:01.650
1054.0;1057.0;0.0;-1.0;-1.0;-1.0;-1.0;-1.0;137.0;0.0;0.0;0.0;0.0;0.0;0.0;0.0;0.0;0.0;0.0;0.0;0.0;0.0;0.0;585.6;349.2;9.97609;583.586;348.611;0.0;105.0;1.0;-0.812736;-1.58204;-1.51695;-0.831463;-1.5794700000000002;-1.51529;0.26695599999999997;-0.233371;-0.412357;0.41535;-0.6704600000000001;-0.240004;0.0;0.0;0.0;0.0;0.0;0.0;0.0;0.0;0.0;0.0;1000.0;1000.0;1024.0;1024.0;1024.0;930.0;1024.0;1024.0;1024.0;1.0;3.0;0.0;1300.0;15.0;9.0;0.0;0.0;0.0;0.0;0.0;0.0;0.0;;1970-01-01 00:00:01.661
1055.0;1058.0;0.0;-1.0;-1.0;-1.0;-1.0;-1.0;138.0;0.0;0.0;0.0;0.0;0.0;0.0;0.0;0.0;0.0;0.0;0.0;0.0;0.0;0.0;584.0;351.0;9.99067;581.93;349.217;0.0;106.0;1.0;-0.803559;-1.58736;-1.50999;-0.823092;-1.58184;-1.5137;0.305068;-0.23595;-0.348518;0.695088;-0.670192;0.445896;0.0;0.0;0.0;0.0;0.0;0.0;0.0;0.0;0.0;0.0;1000.0;1000.0;1024.0;1024.0;1024.0;930.0;1024.0;1024.0;1024.0;1.0;3.0;0.0;1300.0;15.0;9.0;0.0;0.0;0.0;0.0;0.0;0.0;0.0;;1970-01-01 00:00:01.672
1055.0;1058.0;0.0;-1.0;-1.0;-1.0;-1.0;-1.0;138.0;0.0;0.0;0.0;0.0;0.0;0.0;0.0;0.0;0.0;0.0;0.0;0.0;0.0;0.0;584.0;351.0;9.99067;581.93;349.217;0.0;106.0;1.0;-0.803559;-1.58736;-1.50999;-0.823092;-1.58184;-1.5137;0.305068;-0.23595;-0.348518;0.695088;-0.670192;0.445896;0.0;0.0;0.0;0.0;0.0;0.0;0.0;0.0;0.0;0.0;1000.0;1000.0;1024.0;1024.0;1024.0;930.0;1024.0;1024.0;1024.0;1.0;3.0;0.0;1300.0;15.0;9.0;0.0;0.0;0.0;0.0;0.0;0.0;0.0;;1970-01-01 00:00:01.683
1056.0;1059.0;0.0;-1.0;-1.0;-1.0;-1.0;-1.0;139.0;0.0;0.0;0.0;0.0;0.0;0.0;0.0;0.0;0.0;0.0;0.0;0.0;0.0;0.0;582.0;351.0;10.0619;580.17;349.663;0.0;107.0;1.0;-0.7879550000000001;-1.57613;-1.4993100000000001;-0.812551;-1.58012;-1.50938;0.351732;-0.216048;-0.26615900000000003;1.03398;-0.510968;1.23994;0.0;0.0;0.0;0.0;0.0;0.0;0.0;0.0;0.0;0.0;1000.0;1000.0;1024.0;1024.0;1024.0;930.0;1024.0;1024.0;1024.0;1.0;3.0;0.0;1300.0;15.0;9.0;0.0;0.0;0.0;0.0;0.0;0.0;0.0;;1970-01-01 00:00:01.694
1057.0;1060.0;0.0;462.256;381.76300000000003;8.60968;462.256;382.05;0.0;1.0;1.0;-0.226847;-1.9933599999999998;-1.6580099999999998;-0.226847;-1.9933599999999998;-1.6580099999999998;0.0;0.0;0.0;0.0;0.0;0.0;580.0;352.0;9.913030000000001;578.335;350.311;0.0;108.0;1.0;-0.789717;-1.60407;-1.51916;-0.805701;-1.58731;-1.51231;0.393223;-0.21124600000000002;-0.195569;1.4132799999999999;-0.293516;2.03784;1.0;-0.226847;-1.9933599999999998;-1.5;0.0;0.0;0.0;-4.31009;-41.2546;-4.31009;1000.0;1000.0;1024.0;1024.0;1024.0;930.0;1024.0;1024.0;1024.0;1.0;3.0;0.0;1300.0;15.0;9.0;17.6989;0.0;0.0;0.0;-0.453694;-2.59137;-2.55;;1970-01-01 00:00:01.705
1057.0;1060.0;0.0;462.256;381.76300000000003;8.60968;462.256;382.05;0.0;1.0;1.0;-0.226847;-1.9933599999999998;-1.6580099999999998;-0.226847;-1.9933599999999998;-1.6580099999999998;0.0;0.0;0.0;0.0;0.0;0.0;580.0;352.0;9.913030000000001;578.335;350.311;0.0;108.0;1.0;-0.789717;-1.60407;-1.51916;-0.805701;-1.58731;-1.51231;0.393223;-0.21124600000000002;-0.195569;1.4132799999999999;-0.293516;2.03784;1.0;-0.226847;-1.9933599999999998;-1.5;0.0;0.0;0.0;-4.31009;-41.2546;-4.31009;1000.0;1000.0;1024.0;1024.0;1024.0;930.0;1024.0;1024.0;1024.0;1.0;3.0;0.0;1300.0;15.0;9.0;17.6989;0.0;0.0;0.0;-0.453694;-2.59137;-2.55;;1970-01-01 00:00:01.716
1058.0;1061.0;0.0;462.077;380.87199999999996;8.66267;462.23900000000003;382.23;0.0;2.0;1.0;-0.224429;-1.97681;-1.65057;-0.226122;-1.98839;-1.65578;0.0;0.0;0.0;0.0;0.0;0.0;577.0;353.0;9.99492;576.125;351.103;0.0;109.0;1.0;-0.76827;-1.59517;-1.50407;-0.794471;-1.5896700000000001;-1.50984;0.434813;-0.204973;-0.13056800000000002;1.7617200000000002;-0.08172460000000001;2.69435;1.0;-0.226122;-1.98839;-1.5;0.0;0.0;0.0;-4.29631;-41.1518;-4.29631;1000.0;1000.0;1024.0;1024.0;1024.0;930.0;1024.0;1024.0;1024.0;1.0;3.0;0.0;1300.0;15.0;9.0;0.0166965;0.0;0.0;0.0;-0.452243;-2.58491;-2.55;;1970-01-01 00:00:01.727
1059.0;1062.0;0.0;461.885;380.173;8.66788;462.18199999999996;382.18699999999995;0.0;3.0;1.0;-0.223188;-1.9722099999999998;-1.6517099999999998;-0.225242;-1.98354;-1.6545599999999998;0.0;0.0;0.0;0.0;0.0;0.0;576.0;353.0;9.97803;574.283;351.681;0.0;110.0;1.0;-0.7645689999999999;-1.5978700000000001;-1.50662;-0.785501;-1.5921299999999998;-1.5088700000000002;0.476444;-0.17793;-0.0555982;2.05702;0.250833;3.30367;1.0;-0.225242;-1.98354;-1.5;0.0;0.0;0.0;-4.27959;-41.0513;-4.27959;1000.0;1000.0;1024.0;1024.0;1024.0;930.0;1024.0;1024.0;1024.0;1.0;3.0;0.0;1300.0;15.0;9.0;0.0166978;0.0;0.0;0.0;-0.450484;-2.5786;-2.55;;1970-01-01 00:00:01.738
1059.0;1062.0;0.0;461.885;380.173;8.66788;462.18199999999996;382.18699999999995;0.0;3.0;1.0;-0.223188;-1.9722099999999998;-1.6517099999999998;-0.225242;-1.98354;-1.6545599999999998;0.0;0.0;0.0;0.0;0.0;0.0;576.0;353.0;9.97803;574.283;351.681;0.0;110.0;1.0;-0.7645689999999999;-1.5978700000000001;-1.50662;-0.785501;-1.5921299999999998;-1.5088700000000002;0.476444;-0.17793;-0.0555982;2.05702;0.250833;3.30367;1.0;-0.225242;-1.98354;-1.5;0.0;0.0;0.0;-4.27959;-41.0513;-4.27959;1000.0;1000.0;1024.0;1024.0;1024.0;930.0;1024.0;1024.0;1024.0;1.0;3.0;0.0;1300.0;15.0;9.0;0.0166978;0.0;0.0;0.0;-0.450484;-2.5786;-2.55;;1970-01-01 00:00:01.749
1060.0;1063.0;0.0;461.931;379.827;8.672410000000001;462.13;381.983;0.0;4.0;1.0;-0.223336;-1.9694900000000002;-1.6519;-0.22466999999999998;-1.97932;-1.65376;0.0;0.0;0.0;0.0;0.0;0.0;574.0;354.0;9.94945;572.389;352.41900000000004;0.0;111.0;1.0;-0.756734;-1.60671;-1.5083;-0.776871;-1.5965;-1.5087;0.503836;-0.174779;-0.007071300000000001;2.18;0.384441;3.6003800000000004;1.0;-0.22466999999999998;-1.97932;-1.5;0.0;0.0;0.0;-4.268730000000001;-40.9641;-4.268730000000001;1000.0;1000.0;1024.0;1024.0;1024.0;930.0;1024.0;1024.0;1024.0;1.0;3.0;0.0;1300.0;15.0;9.0;0.0166965;0.0;0.0;0.0;-0.44933999999999996;-2.57312;-2.55;;1970-01-01 00:00:01.760
1061.0;1064.0;0.0;461.9;378.85;8.665989999999999;462.075;381.525;0.0;5.0;1.0;-0.223325;-1.96617;-1.65609;-0.224267;-1.97538;-1.6544599999999998;0.0;0.0;0.0;0.0;0.0;0.0;573.0;355.0;9.84832;570.776;353.273;0.0;112.0;1.0;-0.7594380000000001;-1.62752;-1.52111;-0.771641;-1.60581;-1.51242;0.507727;-0.200576;0.000840532;2.1171599999999997;0.371902;3.55511;1.0;-0.224267;-1.97538;-1.5;0.0;0.0;0.0;-4.26106;-40.8824;-4.26106;1000.0;1000.0;1024.0;1024.0;1024.0;930.0;1024.0;1024.0;1024.0;1.0;3.0;0.0;1300.0;15.0;9.0;0.0166978;0.0;0.0;0.0;-0.448533;-2.56799;-2.55;;1970-01-01 00:00:01.771
1062.0;1065.0;0.0;461.64099999999996;378.35;8.66569;461.964;380.99699999999996;0.0;6.0;1.0;-0.22184099999999998;-1.9637900000000001;-1.65767;-0.223539;-1.9719;-1.6554200000000001;0.0;0.0;0.0;0.0;0.0;0.0;571.0;355.0;9.96452;569.048;353.89099999999996;0.0;113.0;1.0;-0.740567;-1.6085399999999999;-1.50337;-0.762319;-1.60663;-1.50971;0.505196;-0.22615700000000002;-0.0008069689999999999;1.88303;0.182777;3.19254;1.0;-0.223539;-1.9719;-1.5;0.0;0.0;0.0;-4.247240000000001;-40.8105;-4.247240000000001;1000.0;1000.0;1024.0;1024.0;1024.0;930.0;1024.0;1024.0;1024.0;1.0;3.0;0.0;1300.0;15.0;9.0;0.0166965;0.0;0.0;0.0;-0.447078;-2.56347;-2.55;;1970-01-01 00:00:01.782
1062.0;1065.0;0.0;461.64099999999996;378.35;8.66569;461.964;380.99699999999996;0.0;6.0;1.0;-0.22184099999999998;-1.9637900000000001;-1.65767;-0.223539;-1.9719;-1.6554200000000001;0.0;0.0;0.0;0.0;0.0;0.0;571.0;355.0;9.96452;569.048;353.89099999999996;0.0;113.0;1.0;-0.740567;-1.6085399999999999;-1.50337;-0.762319;-1.60663;-1.50971;0.505196;-0.22615700000000002;-0.0008069689999999999;1.88303;0.182777;3.19254;1.0;-0.223539;-1.9719;-1.5;0.0;0.0;0.0;-4.247240000000001;-40.8105;-4.247240000000001;1000.0;1000.0;1024.0;1024.0;1024.0;930.0;1024.0;1024.0;1024.0;1.0;3.0;0.0;1300.0;15.0;9.0;0.0166965;0.0;0.0;0.0;-0.447078;-2.56347;-2.55;;1970-01-01 00:00:01.793
1063.0;1066.0;0.0;461.931;377.827;8.69128;461.954;380.431;0.0;7.0;1.0;-0.22285100000000002;-1.9554599999999998;-1.65438;-0.223333;-1.96697;-1.6551099999999999;0.0;0.0;0.0;0.0;0.0;0.0;569.0;357.0;9.90921;567.237;354.973;0.0;114.0;1.0;-0.734629;-1.6260700000000001;-1.50644;-0.754012;-1.61246;-1.50873;0.509494;-0.23611100000000002;0.013827200000000001;1.59405;0.0103896;2.75158;1.0;-0.223333;-1.96697;-1.5;0.0;0.0;0.0;-4.24332;-40.7084;-4.24332;1000.0;1000.0;1024.0;1024.0;1024.0;930.0;1024.0;1024.0;1024.0;1.0;3.0;0.0;1300.0;15.0;9.0;0.0166978;0.0;0.0;0.0;-0.446665;-2.55706;-2.55;;1970-01-01 00:00:01.804
1064.0;1067.0;0.0;461.82199999999995;377.689;8.67787;461.917;379.952;0.0;8.0;1.0;-0.222572;-1.9578099999999998;-1.65735;-0.223104;-1.96422;-1.65578;0.033095099999999995;0.25458200000000003;0.0173342;0.13214;1.0164799999999998;0.0692112;567.0;357.0;9.88744;565.364;355.754;0.0;115.0;1.0;-0.7261529999999999;-1.62965;-1.50976;-0.745654;-1.61761;-1.50904;0.5006079999999999;-0.253259;0.0115038;1.2191299999999998;-0.186557;2.2182;1.0;-0.223104;-1.96422;-1.5;0.0;0.0;0.0;-3.92458;-36.5985;-3.92458;1000.0;1000.0;1024.0;1024.0;1024.0;930.0;1024.0;1024.0;1024.0;1.0;3.0;0.0;1300.0;15.0;9.0;0.0166965;0.0;0.0;0.0;-0.446209;-2.55349;-2.55;;1970-01-01 00:00:01.815
1064.0;1067.0;0.0;461.82199999999995;377.689;8.67787;461.917;379.952;0.0;8.0;1.0;-0.222572;-1.9578099999999998;-1.65735;-0.223104;-1.96422;-1.65578;0.033095099999999995;0.25458200000000003;0.0173342;0.13214;1.0164799999999998;0.0692112;567.0;357.0;9.88744;565.364;355.754;0.0;115.0;1.0;-0.7261529999999999;-1.62965;-1.50976;-0.745654;-1.61761;-1.50904;0.5006079999999999;-0.253259;0.0115038;1.2191299999999998;-0.186557;2.2182;1.0;-0.223104;-1.96422;-1.5;0.0;0.0;0.0;-3.92458;-36.5985;-3.92458;1000.0;1000.0;1024.0;1024.0;1024.0;930.0;1024.0;1024.0;1024.0;1.0;3.0;0.0;1300.0;15.0;9.0;0.0166965;0.0;0.0;0.0;-0.446209;-2.55349;-2.55;;1970-01-01 00:00:01.826
1065.0;1068.0;0.0;461.56699999999995;376.775;8.77628;461.81800000000004;379.332;0.0;9.0;1.0;-0.218623;-1.93144;-1.6415099999999998;-0.22175999999999998;-1.95439;-1.6515;0.0337589;0.269144;0.0225997;0.214075;1.68451;0.131762;564.6669999999999;357.333;9.90832;563.341;356.42;0.0;116.0;1.0;-0.7128720000000001;-1.62764;-1.50569;-0.73582;-1.6206200000000002;-1.50803;0.498726;-0.265731;0.010260700000000001;0.8204450000000001;-0.462496;1.5938700000000001;1.0;-0.22175999999999998;-1.95439;-1.5;0.0;0.0;0.0;-3.8927300000000002;-36.1632;-3.8927300000000002;1000.0;1000.0;1024.0;1024.0;1024.0;930.0;1024.0;1024.0;1024.0;1.0;3.0;0.0;1300.0;15.0;9.0;0.0166978;0.0;0.0;0.0;-0.44351999999999997;-2.5407;-2.55;;1970-01-01 00:00:01.837
1066.0;1069.0;0.0;461.212;376.23400000000004;8.759139999999999;461.645;378.712;0.0;10.0;1.0;-0.217031;-1.9326;-1.64635;-0.22034099999999998;-1.94785;-1.6499599999999999;0.037539300000000005;0.287142;0.0287405;0.27833;2.15719;0.19381099999999998;563.0;357.0;9.93747;561.423;356.789;0.0;117.0;1.0;-0.702411;-1.62144;-1.50216;-0.725797;-1.62087;-1.50627;0.503157;-0.256722;0.0158614;0.489559;-0.604672;1.04789;1.0;-0.22034099999999998;-1.94785;-1.5;0.0;0.0;0.0;-3.82986;-35.7414;-3.82986;1000.0;1000.0;1024.0;1024.0;1024.0;930.0;1024.0;1024.0;1024.0;1.0;3.0;0.0;1300.0;15.0;9.0;0.0166965;0.0;0.0;0.0;-0.440683;-2.53221;-2.55;;1970-01-01 00:00:01.848
1066.0;1069.0;0.0;461.212;376.23400000000004;8.759139999999999;461.645;378.712;0.0;10.0;1.0;-0.217031;-1.9326;-1.64635;-0.22034099999999998;-1.94785;-1.6499599999999999;0.037539300000000005;0.287142;0.0287405;0.27833;2.15719;0.19381099999999998;563.0;357.0;9.93747;561.423;356.789;0.0;117.0;1.0;-0.702411;-1.62144;-1.50216;-0.725797;-1.62087;-1.50627;0.503157;-0.256722;0.0158614;0.489559;-0.604672;1.04789;1.0;-0.22034099999999998;-1.94785;-1.5;0.0;0.0;0.0;-3.82986;-35.7414;-3.82986;1000.0;1000.0;1024.0;1024.0;1024.0;930.0;1024.0;1024.0;1024.0;1.0;3.0;0.0;1300.0;15.0;9.0;0.0166965;0.0;0.0;0.0;-0.440683;-2.53221;-2.55;;1970-01-01 00:00:01.859
1067.0;1070.0;0.0;461.224;375.87199999999996;8.81294;461.52;378.14300000000003;0.0;11.0;1.0;-0.215772;-1.91907;-1.6373799999999998;-0.218971;-1.9392200000000002;-1.64618;0.0436693;0.31666300000000003;0.050279199999999996;0.341359;2.55867;0.31703899999999996;560.0;357.0;9.95974;559.154;357.04900000000004;0.0;118.0;1.0;-0.685811;-1.61782;-1.4988;-0.713801;-1.61995;-1.50403;0.532831;-0.21051399999999998;0.043033;0.393968;-0.402485;0.797194;1.0;-0.218971;-1.9392200000000002;-1.5;0.0;0.0;0.0;-3.7455800000000004;-35.0927;-3.7455800000000004;1000.0;1000.0;1024.0;1024.0;1024.0;930.0;1024.0;1024.0;1024.0;1.0;3.0;0.0;1300.0;15.0;9.0;0.0166978;0.0;0.0;0.0;-0.43794099999999997;-2.5209799999999998;-2.55;;1970-01-01 00:00:01.870
1068.0;1071.0;0.0;461.162;375.559;8.72458;461.41;377.62699999999995;0.0;12.0;1.0;-0.21760500000000002;-1.93698;-1.6549200000000002;-0.218561;-1.93855;-1.6488;0.0460778;0.323182;0.05659109999999999;0.388792;2.82558;0.416177;557.0;357.0;9.84257;556.633;357.228;0.0;119.0;1.0;-0.678765;-1.6370799999999999;-1.51664;-0.70329;-1.62509;-1.50781;0.555381;-0.20002899999999998;0.0333862;0.436754;-0.137169;0.614839;1.0;-0.218561;-1.93855;-1.5;0.0;0.0;0.0;-3.7149199999999998;-34.9751;-3.7149199999999998;1000.0;1000.0;1024.0;1024.0;1024.0;930.0;1024.0;1024.0;1024.0;1.0;3.0;0.0;1300.0;15.0;9.0;0.016696799999999998;0.0;0.0;0.0;-0.437122;-2.52011;-2.55;;1970-01-01 00:00:01.881
1068.0;1071.0;0.0;461.162;375.559;8.72458;461.41;377.62699999999995;0.0;12.0;1.0;-0.21760500000000002;-1.93698;-1.6549200000000002;-0.218561;-1.93855;-1.6488;0.0460778;0.323182;0.05659109999999999;0.388792;2.82558;0.416177;557.0;357.0;9.84257;556.633;357.228;0.0;119.0;1.0;-0.678765;-1.6370799999999999;-1.51664;-0.70329;-1.62509;-1.50781;0.555381;-0.20002899999999998;0.0333862;0.436754;-0.137169;0.614839;1.0;-0.218561;-1.93855;-1.5;0.0;0.0;0.0;-3.7149199999999998;-34.9751;-3.7149199999999998;1000.0;1000.0;1024.0;1024.0;1024.0;930.0;1024.0;1024.0;1024.0;1.0;3.0;0.0;1300.0;15.0;9.0;0.016696799999999998;0.0;0.0;0.0;-0.437122;-2.52011;-2.55;;1970-01-01 00:00:01.892
1069.0;1072.0;0.0;461.025;374.475;8.814010000000001;461.289;376.92699999999996;0.0;13.0;1.0;-0.214621;-1.91212;-1.64136;-0.217379;-1.93062;-1.64657;0.051419000000000006;0.339052;0.06803580000000001;0.43857799999999997;3.0491;0.521356;555.3330000000001;355.333;9.84032;554.354;356.81800000000004;0.0;120.0;1.0;-0.670469;-1.63027;-1.52145;-0.693444;-1.6266399999999999;-1.5119;0.575058;-0.17666199999999999;0.00734817;0.523828;0.15506099999999998;0.343035;1.0;-0.217379;-1.93062;-1.5;0.0;0.0;0.0;-3.64172;-34.5584;-3.64172;1000.0;1000.0;1024.0;1024.0;1024.0;930.0;1024.0;1024.0;1024.0;1.0;3.0;0.0;1300.0;15.0;9.0;0.0166975;0.0;0.0;0.0;-0.434758;-2.5098;-2.55;;1970-01-01 00:00:01.903
1070.0;1073.0;0.0;461.167;373.944;8.9321;461.24199999999996;376.251;0.0;14.0;1.0;-0.212575;-1.88432;-1.62123;-0.21593800000000002;-1.9167299999999998;-1.63897;0.059467;0.393052;0.107946;0.36844299999999996;2.38233;0.674602;553.6;354.8;9.90126;552.231;356.343;0.0;121.0;1.0;-0.6576069999999999;-1.61796;-1.5135100000000001;-0.682693;-1.62404;-1.51239;0.59642;-0.131646;-0.00896049;0.6968449999999999;0.578599;0.12411300000000001;1.0;-0.21593800000000002;-1.9167299999999998;-1.5;0.0;0.0;0.0;-3.5378800000000004;-33.4112;-3.5378800000000004;1000.0;1000.0;1024.0;1024.0;1024.0;930.0;1024.0;1024.0;1024.0;1.0;3.0;0.0;1300.0;15.0;9.0;0.016696799999999998;0.0;0.0;0.0;-0.431875;-2.49175;-2.55;;1970-01-01 00:00:01.914
1070.0;1073.0;0.0;461.167;373.944;8.9321;461.24199999999996;376.251;0.0;14.0;1.0;-0.212575;-1.88432;-1.62123;-0.21593800000000002;-1.9167299999999998;-1.63897;0.059467;0.393052;0.107946;0.36844299999999996;2.38233;0.674602;553.6;354.8;9.90126;552.231;356.343;0.0;121.0;1.0;-0.6576069999999999;-1.61796;-1.5135100000000001;-0.682693;-1.62404;-1.51239;0.59642;-0.131646;-0.00896049;0.6968449999999999;0.578599;0.12411300000000001;1.0;-0.21593800000000002;-1.9167299999999998;-1.5;0.0;0.0;0.0;-3.5378800000000004;-33.4112;-3.5378800000000004;1000.0;1000.0;1024.0;1024.0;1024.0;930.0;1024.0;1024.0;1024.0;1.0;3.0;0.0;1300.0;15.0;9.0;0.016696799999999998;0.0;0.0;0.0;-0.431875;-2.49175;-2.55;;1970-01-01 00:00:01.925
1071.0;1074.0;0.0;460.974;373.86;8.856489999999999;461.151;375.722;0.0;15.0;1.0;-0.213302;-1.9;-1.63532;-0.21514699999999998;-1.9117099999999998;-1.63788;0.0620847;0.40622600000000003;0.11916900000000001;0.33416399999999996;1.9767400000000002;0.790338;551.0;355.0;9.97661;549.945;356.05400000000003;0.0;122.0;1.0;-0.639636;-1.60659;-1.50155;-0.669776;-1.6188;-1.5091299999999999;0.621545;-0.07172739999999998;-0.00977423;0.908483;1.12176;-0.00552564;1.0;-0.21514699999999998;-1.9117099999999998;-1.5;0.0;0.0;0.0;-3.49799;-33.0976;-3.49799;1000.0;1000.0;1024.0;1024.0;1024.0;930.0;1024.0;1024.0;1024.0;1.0;3.0;0.0;1300.0;15.0;9.0;0.0166975;0.0;0.0;0.0;-0.43029399999999995;-2.48522;-2.55;;1970-01-01 00:00:01.936
1072.0;1075.0;0.0;461.0;373.657;8.842;461.092;375.269;0.0;16.0;1.0;-0.2138;-1.90215;-1.63861;-0.214743;-1.90884;-1.6381;0.0596038;0.399491;0.118861;0.288596;1.63462;0.8340299999999999;549.429;352.0;9.80289;547.87;354.88199999999995;0.0;123.0;1.0;-0.642972;-1.62209;-1.53623;-0.6617350000000001;-1.61979;-1.51726;0.628708;-0.038733699999999996;-0.0497509;1.04637;1.54341;-0.265285;1.0;-0.214743;-1.90884;-1.5;0.0;0.0;0.0;-3.5138800000000003;-33.1455;-3.5138800000000003;1000.0;1000.0;1024.0;1024.0;1024.0;930.0;1024.0;1024.0;1024.0;1.0;3.0;0.0;1300.0;15.0;9.0;0.016696799999999998;0.0;0.0;0.0;-0.429486;-2.48149;-2.55;;1970-01-01 00:00:01.947
1073.0;1076.0;0.0;461.023;372.939;9.02467;461.056;374.717;0.0;17.0;1.0;-0.209602;-1.86027;-1.60754;-0.21320100000000003;-1.8942700000000001;-1.62893;0.0587996;0.419149;0.14022;0.233569;1.3899700000000001;0.8595290000000001;547.0;351.0;9.87412;545.675;353.709;0.0;124.0;1.0;-0.626061;-1.6061;-1.5278100000000001;-0.651033;-1.61568;-1.52043;0.627841;-0.00619253;-0.09532360000000001;1.0071700000000001;1.74184;-0.711587;1.0;-0.21320100000000003;-1.8942700000000001;-1.5;0.0;0.0;0.0;-3.4922199999999997;-32.531;-3.4922199999999997;1000.0;1000.0;1024.0;1024.0;1024.0;930.0;1024.0;1024.0;1024.0;1.0;3.0;0.0;1300.0;15.0;9.0;0.0166975;0.0;0.0;0.0;-0.42640100000000003;-2.46255;-2.55;;1970-01-01 00:00:01.958
1073.0;1076.0;0.0;461.023;372.939;9.02467;461.056;374.717;0.0;17.0;1.0;-0.209602;-1.86027;-1.60754;-0.21320100000000003;-1.8942700000000001;-1.62893;0.0587996;0.419149;0.14022;0.233569;1.3899700000000001;0.8595290000000001;547.0;351.0;9.87412;545.675;353.709;0.0;124.0;1.0;-0.626061;-1.6061;-1.5278100000000001;-0.651033;-1.61568;-1.52043;0.627841;-0.00619253;-0.09532360000000001;1.0071700000000001;1.74184;-0.711587;1.0;-0.21320100000000003;-1.8942700000000001;-1.5;0.0;0.0;0.0;-3.4922199999999997;-32.531;-3.4922199999999997;1000.0;1000.0;1024.0;1024.0;1024.0;930.0;1024.0;1024.0;1024.0;1.0;3.0;0.0;1300.0;15.0;9.0;0.0166975;0.0;0.0;0.0;-0.42640100000000003;-2.46255;-2.55;;1970-01-01 00:00:01.969
1074.0;1077.0;0.0;460.776;372.12800000000004;8.96073;460.957;374.064;0.0;18.0;1.0;-0.209721;-1.8697099999999998;-1.6213899999999999;-0.212157;-1.8869;-1.62667;0.0608493;0.457682;0.172517;0.19912;1.37101;0.9785790000000001;545.0;350.0;9.98847;543.53;352.537;0.0;125.0;1.0;-0.608902;-1.5834700000000002;-1.51296;-0.638393;-1.60602;-1.51819;0.6358189999999999;0.0724263;-0.0986175;0.925466;2.13294;-0.954003;1.0;-0.212157;-1.8869;-1.5;0.0;0.0;0.0;-3.4529099999999997;-31.7651;-3.4529099999999997;1000.0;1000.0;1024.0;1024.0;1024.0;930.0;1024.0;1024.0;1024.0;1.0;3.0;0.0;1300.0;15.0;9.0;0.016696799999999998;0.0;0.0;0.0;-0.424314;-2.45297;-2.55;;1970-01-01 00:00:01.980
1075.0;1078.0;0.0;460.86;372.0;8.97901;460.909;373.543;0.0;19.0;1.0;-0.209758;-1.8653;-1.61847;-0.21143699999999999;-1.88042;-1.62421;0.060232900000000006;0.475021;0.192805;0.15466400000000002;1.3655;1.08532;543.6669999999999;347.667;9.9884;541.635;350.94199999999995;0.0;126.0;1.0;-0.602245;-1.57358;-1.5191299999999999;-0.627549;-1.59629;-1.51847;0.644591;0.16466;-0.0853829;0.8329040000000001;2.64256;-0.942649;1.0;-0.21143699999999999;-1.88042;-1.5;0.0;0.0;0.0;-3.44509;-31.3549;-3.44509;1000.0;1000.0;1024.0;1024.0;1024.0;930.0;1024.0;1024.0;1024.0;1.0;3.0;0.0;1300.0;15.0;9.0;0.0166975;0.0;0.0;0.0;-0.42287399999999997;-2.44455;-2.55;;1970-01-01 00:00:01.991
1075.0;1078.0;0.0;460.86;372.0;8.97901;460.909;373.543;0.0;19.0;1.0;-0.209758;-1.8653;-1.61847;-0.21143699999999999;-1.88042;-1.62421;0.060232900000000006;0.475021;0.192805;0.15466400000000002;1.3655;1.08532;543.6669999999999;347.667;9.9884;541.635;350.94199999999995;0.0;126.0;1.0;-0.602245;-1.57358;-1.5191299999999999;-0.627549;-1.59629;-1.51847;0.644591;0.16466;-0.0853829;0.8329040000000001;2.64256;-0.942649;1.0;-0.21143699999999999;-1.88042;-1.5;0.0;0.0;0.0;-3.44509;-31.3549;-3.44509;1000.0;1000.0;1024.0;1024.0;1024.0;930.0;1024.0;1024.0;1024.0;1.0;3.0;0.0;1300.0;15.0;9.0;0.0166975;0.0;0.0;0.0;-0.42287399999999997;-2.44455;-2.55;;1970-01-01 00:00:02.002
1076.0;1079.0;0.0;460.838;371.721;8.95377;460.86800000000005;373.07300000000004;0.0;20.0;1.0;-0.210227;-1.8692400000000002;-1.62385;-0.21107399999999998;-1.87707;-1.6241;0.0555575;0.44336899999999996;0.175048;0.07718860000000001;1.0202;0.919115;542.3330000000001;345.667;9.91507;539.9209999999999;349.151;0.0;127.0;1.0;-0.599989;-1.5766799999999999;-1.53568;-0.6192810000000001;-1.5904;-1.5236299999999998;0.63994;0.23308600000000002;-0.0961386;0.673504;3.0418;-0.913665;1.0;-0.21107399999999998;-1.87707;-1.5;0.0;0.0;0.0;-3.4826099999999998;-31.7894;-3.4826099999999998;1000.0;1000.0;1024.0;1024.0;1024.0;930.0;1024.0;1024.0;1024.0;1.0;3.0;0.0;1300.0;15.0;9.0;0.016696799999999998;0.0;0.0;0.0;-0.422149;-2.4401900000000003;-2.55;;1970-01-01 00:00:02.013
1077.0;1080.0;0.0;460.657;371.52099999999996;9.00888;460.784;372.666;0.0;21.0;1.0;-0.20794200000000002;-1.85687;-1.6145;-0.21013400000000002;-1.8710099999999998;-1.62122;0.05334780000000001;0.42853900000000006;0.171521;0.0114291;0.7012109999999999;0.760498;540.3330000000001;343.667;9.94703;538.125;347.219;0.0;128.0;1.0;-0.588028;-1.5630899999999999;-1.53605;-0.609905;-1.5822100000000001;-1.52736;0.623009;0.285954;-0.130444;0.409948;3.25319;-1.03;1.0;-0.21013400000000002;-1.8710099999999998;-1.5;0.0;0.0;0.0;-3.48575;-31.9;-3.48575;1000.0;1000.0;1024.0;1024.0;1024.0;930.0;1024.0;1024.0;1024.0;1.0;3.0;0.0;1300.0;15.0;9.0;0.0166978;0.0;0.0;0.0;-0.42026899999999995;-2.4323099999999998;-2.55;;1970-01-01 00:00:02.024
1077.0;1080.0;0.0;460.657;371.52099999999996;9.00888;460.784;372.666;0.0;21.0;1.0;-0.20794200000000002;-1.85687;-1.6145;-0.21013400000000002;-1.8710099999999998;-1.62122;0.05334780000000001;0.42853900000000006;0.171521;0.0114291;0.7012109999999999;0.760498;540.3330000000001;343.667;9.94703;538.125;347.219;0.0;128.0;1.0;-0.588028;-1.5630899999999999;-1.53605;-0.609905;-1.5822100000000001;-1.52736;0.623009;0.285954;-0.130444;0.409948;3.25319;-1.03;1.0;-0.21013400000000002;-1.8710099999999998;-1.5;0.0;0.0;0.0;-3.48575;-31.9;-3.48575;1000.0;1000.0;1024.0;1024.0;1024.0;930.0;1024.0;1024.0;1024.0;1.0;3.0;0.0;1300.0;15.0;9.0;0.0166978;0.0;0.0;0.0;-0.42026899999999995;-2.4323099999999998;-2.55;;1970-01-01 00:00:02.035
1078.0;1081.0;0.0;460.42199999999997;370.338;8.93811;460.652;372.004;0.0;22.0;1.0;-0.208274;-1.8659599999999998;-1.63078;-0.209576;-1.86949;-1.62409;0.0526376;0.414239;0.15883699999999998;-0.0209567;0.47961099999999995;0.6159140000000001;539.6669999999999;341.667;10.002;536.696;345.19;0.0;129.0;1.0;-0.581469;-1.5460200000000002;-1.5328700000000002;-0.601374;-1.57135;-1.52901;0.6148060000000001;0.364958;-0.125184;0.190461;3.5637300000000005;-0.9191790000000001;1.0;-0.0715197;-0.326988;0.00162601;-0.13805699999999999;-1.5425;-1.62571;-6.69947;-0.172676;-6.69947;1000.0;1065.0;816.0;1147.0;1024.0;930.0;1024.0;1024.0;1024.0;1.0;3.0;0.0;1300.0;15.0;9.0;0.0166965;0.0;0.0;0.0;-0.143039;-0.42508500000000005;0.00276423;;1970-01-01 00:00:02.046
1079.0;1082.0;0.0;460.314;370.07800000000003;9.02764;460.523;371.439;0.0;23.0;1.0;-0.20561;-1.84624;-1.6153600000000001;-0.208387;-1.8625200000000002;-1.62147;0.0508045;0.375336;0.125078;-0.044496600000000004;0.11283399999999999;0.30909000000000003;538.571;338.0;9.93586;535.394;342.561;0.0;130.0;1.0;-0.5798409999999999;-1.5406799999999998;-1.55281;-0.594914;-1.56215;-1.53615;0.592946;0.43269799999999997;-0.13789300000000002;-0.0250497;3.89059;-0.721476;1.0;0.371454;-0.321831;-0.06866130000000001;-0.5798409999999999;-1.5406799999999998;-1.55281;6.28597;-0.685268;6.28597;1000.0;1066.0;1210.0;1072.0;1024.0;930.0;1024.0;1024.0;1024.0;1.0;3.0;0.0;1300.0;15.0;9.0;0.0166978;0.0;0.0;0.0;0.742908;-0.41838000000000003;-0.116724;;1970-01-01 00:00:02.057
1079.0;1082.0;0.0;460.314;370.07800000000003;9.02764;460.523;371.439;0.0;23.0;1.0;-0.20561;-1.84624;-1.6153600000000001;-0.208387;-1.8625200000000002;-1.62147;0.0508045;0.375336;0.125078;-0.044496600000000004;0.11283399999999999;0.30909000000000003;538.571;338.0;9.93586;535.394;342.561;0.0;130.0;1.0;-0.5798409999999999;-1.5406799999999998;-1.55281;-0.594914;-1.56215;-1.53615;0.592946;0.43269799999999997;-0.13789300000000002;-0.0250497;3.89059;-0.721476;1.0;0.371454;-0.321831;-0.06866130000000001;-0.5798409999999999;-1.5406799999999998;-1.55281;6.28597;-0.685268;6.28597;1000.0;1066.0;1210.0;1072.0;1024.0;930.0;1024.0;1024.0;1024.0;1.0;3.0;0.0;1300.0;15.0;9.0;0.0166978;0.0;0.0;0.0;0.742908;-0.41838000000000003;-0.116724;;1970-01-01 00:00:02.068
1080.0;1083.0;0.0;460.0;369.714;9.0965;460.333;370.914;0.0;24.0;1.0;-0.20233299999999999;-1.83056;-1.60419;-0.20656999999999998;-1.85293;-1.61629;0.0527881;0.36085;0.1165;-0.058884000000000006;-0.31892600000000004;-0.0382086;537.0;337.0;10.0178;534.0319999999999;340.351;0.0;131.0;1.0;-0.567271;-1.52385;-1.54274;-0.5866210000000001;-1.55066;-1.53813;0.5624779999999999;0.48063500000000003;-0.162353;-0.307859;3.96421;-0.6873640000000001;1.0;0.3607;-0.32907600000000004;-0.0735455;-0.567271;-1.52385;-1.54274;6.33902;-1.06582;6.33902;1000.0;1077.0;1220.0;1063.0;1024.0;930.0;1024.0;1024.0;1024.0;1.0;3.0;0.0;1300.0;15.0;9.0;0.0166965;0.0;0.0;0.0;0.7214010000000001;-0.427799;-0.125027;;1970-01-01 00:00:02.079
1081.0;1084.0;0.0;460.0;369.44699999999995;9.08116;460.195;370.44699999999995;0.0;25.0;1.0;-0.202675;-1.8324099999999999;-1.6076700000000002;-0.205402;-1.84677;-1.6137;0.055771100000000004;0.350866;0.111846;-0.0531452;-0.687074;-0.346172;536.0;334.57099999999997;10.154;532.808;337.994;0.0;132.0;1.0;-0.554747;-1.49328;-1.52835;-0.577059;-1.53345;-1.53519;0.539077;0.539281;-0.164189;-0.605999;3.8742699999999997;-0.727064;1.0;0.34934499999999996;-0.35349400000000003;-0.0853523;-0.554747;-1.49328;-1.52835;6.098409999999999;-1.73013;6.098409999999999;1000.0;1087.0;1222.0;1042.0;1024.0;930.0;1024.0;1024.0;1024.0;1.0;3.0;0.0;1300.0;15.0;9.0;0.0166978;0.0;0.0;0.0;0.698691;-0.45954300000000003;-0.145099;;1970-01-01 00:00:02.090
1081.0;1084.0;0.0;460.0;369.44699999999995;9.08116;460.195;370.44699999999995;0.0;25.0;1.0;-0.202675;-1.8324099999999999;-1.6076700000000002;-0.205402;-1.84677;-1.6137;0.055771100000000004;0.350866;0.111846;-0.0531452;-0.687074;-0.346172;536.0;334.57099999999997;10.154;532.808;337.994;0.0;132.0;1.0;-0.554747;-1.49328;-1.52835;-0.577059;-1.53345;-1.53519;0.539077;0.539281;-0.164189;-0.605999;3.8742699999999997;-0.727064;1.0;0.34934499999999996;-0.35349400000000003;-0.0853523;-0.554747;-1.49328;-1.52835;6.098409999999999;-1.73013;6.098409999999999;1000.0;1087.0;1222.0;1042.0;1024.0;930.0;1024.0;1024.0;1024.0;1.0;3.0;0.0;1300.0;15.0;9.0;0.0166978;0.0;0.0;0.0;0.698691;-0.45954300000000003;-0.145099;;1970-01-01 00:00:02.101
1082.0;1085.0;0.0;459.918;368.85699999999997;9.09228;460.07099999999997;369.925;0.0;26.0;1.0;-0.201979;-1.82742;-1.60742;-0.204375;-1.84097;-1.61182;0.060211900000000006;0.35466;0.116156;-0.013303;-0.7664350000000001;-0.442846;536.0;331.42900000000003;10.0006;532.003;335.306;0.0;133.0;1.0;-0.563254;-1.50286;-1.56007;-0.572918;-1.52427;-1.5426600000000001;0.5085609999999999;0.587612;-0.17447100000000001;-0.8881549999999999;3.7400800000000003;-0.748997;1.0;0.35888000000000003;-0.338104;-0.0517452;-0.563254;-1.50286;-1.56007;6.7796199999999995;-1.3512;6.7796199999999995;1000.0;1094.0;1252.0;1070.0;1024.0;930.0;1024.0;1024.0;1024.0;1.0;3.0;0.0;1300.0;15.0;9.0;0.0166965;0.0;0.0;0.0;0.717759;-0.439535;-0.0879668;;1970-01-01 00:00:02.112
1083.0;1086.0;0.0;459.469;368.12199999999996;9.09625;459.843;369.31699999999995;0.0;27.0;1.0;-0.199428;-1.8232;-1.60885;-0.20289100000000002;-1.8356400000000002;-1.61093;0.0650498;0.354022;0.11080599999999999;0.0387413;-0.757392;-0.50813;535.0;329.0;10.0738;531.179;332.61;0.0;134.0;1.0;-0.5542100000000001;-1.48174;-1.5551;-0.5673050000000001;-1.5115100000000001;-1.54639;0.475225;0.634847;-0.180669;-1.12295;3.6370699999999996;-0.649933;1.0;0.35131999999999997;-0.353902;-0.05582859999999999;-0.5542100000000001;-1.48174;-1.5551;6.86102;-1.68832;6.86102;1000.0;1101.0;1263.0;1060.0;1024.0;930.0;1024.0;1024.0;1024.0;1.0;3.0;0.0;1300.0;15.0;9.0;0.0166978;0.0;0.0;0.0;0.702639;-0.46007200000000004;-0.0949086;;1970-01-01 00:00:02.123
1084.0;1087.0;0.0;459.42900000000003;367.87800000000004;9.06102;459.665;368.8;0.0;28.0;1.0;-0.199978;-1.8291400000000002;-1.61581;-0.202017;-1.83369;-1.61239;0.0692125;0.355367;0.113185;0.089424;-0.689496;-0.48715600000000003;535.6669999999999;327.66700000000003;10.1234;530.873;330.26;0.0;135.0;1.0;-0.55478;-1.46889;-1.55095;-0.5635479999999999;-1.49873;-1.54776;0.43616499999999997;0.670895;-0.18324000000000001;-1.38703;3.4037599999999997;-0.621761;1.0;0.352763;-0.364797;-0.061445400000000004;-0.55478;-1.46889;-1.55095;7.183610000000001;-1.8923900000000002;7.183610000000001;1000.0;1109.0;1282.0;1056.0;1024.0;930.0;1024.0;1024.0;1024.0;1.0;3.0;0.0;1300.0;15.0;9.0;0.0166965;0.0;0.0;0.0;0.705526;-0.474236;-0.104457;;1970-01-01 00:00:02.134
1084.0;1087.0;0.0;459.42900000000003;367.87800000000004;9.06102;459.665;368.8;0.0;28.0;1.0;-0.199978;-1.8291400000000002;-1.61581;-0.202017;-1.83369;-1.61239;0.0692125;0.355367;0.113185;0.089424;-0.689496;-0.48715600000000003;535.6669999999999;327.66700000000003;10.1234;530.873;330.26;0.0;135.0;1.0;-0.55478;-1.46889;-1.55095;-0.5635479999999999;-1.49873;-1.54776;0.43616499999999997;0.670895;-0.18324000000000001;-1.38703;3.4037599999999997;-0.621761;1.0;0.352763;-0.364797;-0.061445400000000004;-0.55478;-1.46889;-1.55095;7.183610000000001;-1.8923900000000002;7.183610000000001;1000.0;1109.0;1282.0;1056.0;1024.0;930.0;1024.0;1024.0;1024.0;1.0;3.0;0.0;1300.0;15.0;9.0;0.0166965;0.0;0.0;0.0;0.705526;-0.474236;-0.104457;;1970-01-01 00:00:02.145
1085.0;1088.0;0.0;459.149;367.702;9.1253;459.45099999999996;368.371;0.0;29.0;1.0;-0.19704000000000002;-1.8154400000000002;-1.60494;-0.200524;-1.8282200000000002;-1.61016;0.07292080000000001;0.350173;0.11308800000000001;0.14196;-0.514166;-0.34016399999999997;535.429;324.0;9.986410000000001;530.65;327.422;0.0;136.0;1.0;-0.5612010000000001;-1.47349;-1.5819;-0.562844;-1.49115;-1.558;0.389746;0.686017;-0.19718;-1.64353;3.05368;-0.609769;1.0;0.360677;-0.354727;-0.0282528;-0.5612010000000001;-1.47349;-1.5819;7.9938199999999995;-1.76668;7.9938199999999995;1000.0;1117.0;1316.0;1092.0;1024.0;930.0;1024.0;1024.0;1024.0;1.0;3.0;0.0;1300.0;15.0;9.0;0.0166978;0.0;0.0;0.0;0.721355;-0.46114499999999997;-0.0480298;;1970-01-01 00:00:02.156
1086.0;1089.0;0.0;459.156;367.289;9.14212;459.29900000000004;367.93300000000005;0.0;30.0;1.0;-0.196714;-1.8101900000000002;-1.6031799999999998;-0.199381;-1.8228099999999998;-1.60806;0.0724582;0.330377;0.100688;0.163713;-0.430172;-0.267228;534.571;322.0;10.0642;530.289;324.764;0.0;137.0;1.0;-0.552612;-1.45367;-1.57491;-0.559774;-1.47991;-1.5630700000000002;0.34104;0.694108;-0.21790500000000002;-1.8702599999999998;2.68454;-0.587663;1.0;0.353231;-0.369133;-0.033152499999999994;-0.552612;-1.45367;-1.57491;8.18057;-2.37997;8.18057;1000.0;1126.0;1329.0;1091.0;1024.0;930.0;1024.0;1024.0;1024.0;1.0;3.0;0.0;1300.0;15.0;9.0;0.0166965;0.0;0.0;0.0;0.706462;-0.479872;-0.0563592;;1970-01-01 00:00:02.167
1086.0;1089.0;0.0;459.156;367.289;9.14212;459.29900000000004;367.93300000000005;0.0;30.0;1.0;-0.196714;-1.8101900000000002;-1.6031799999999998;-0.199381;-1.8228099999999998;-1.60806;0.0724582;0.330377;0.100688;0.163713;-0.430172;-0.267228;534.571;322.0;10.0642;530.289;324.764;0.0;137.0;1.0;-0.552612;-1.45367;-1.57491;-0.559774;-1.47991;-1.5630700000000002;0.34104;0.694108;-0.21790500000000002;-1.8702599999999998;2.68454;-0.587663;1.0;0.353231;-0.369133;-0.033152499999999994;-0.552612;-1.45367;-1.57491;8.18057;-2.37997;8.18057;1000.0;1126.0;1329.0;1091.0;1024.0;930.0;1024.0;1024.0;1024.0;1.0;3.0;0.0;1300.0;15.0;9.0;0.0166965;0.0;0.0;0.0;0.706462;-0.479872;-0.0563592;;1970-01-01 00:00:02.178
1087.0;1090.0;0.0;459.149;365.957;9.183580000000001;459.18800000000005;367.202;0.0;31.0;1.0;-0.19579000000000002;-1.79587;-1.59976;-0.198304;-1.81473;-1.6055700000000002;0.07181549999999999;0.326177;0.09287680000000001;0.16228900000000002;-0.356678;-0.236077;535.778;318.66700000000003;10.082;530.4830000000001;321.815;0.0;138.0;1.0;-0.557607;-1.4371;-1.58085;-0.559124;-1.46707;-1.5684;0.27623200000000003;0.681504;-0.26334;-2.17162;2.1785799999999997;-0.7484810000000001;1.0;0.359304;-0.377626;-0.024726599999999998;-0.557607;-1.4371;-1.58085;8.92953;-2.62261;8.92953;1000.0;1139.0;1360.0;1114.0;1024.0;930.0;1024.0;1024.0;1024.0;1.0;3.0;0.0;1300.0;15.0;9.0;0.0166978;0.0;0.0;0.0;0.718608;-0.490914;-0.0420353;;1970-01-01 00:00:02.189
1088.0;1091.0;0.0;459.149;365.957;9.13376;459.111;366.67400000000004;0.0;32.0;1.0;-0.196858;-1.80567;-1.60849;-0.19787000000000002;-1.81201;-1.60645;0.06906160000000001;0.31132600000000005;0.0771715;0.132708;-0.387031;-0.2973;537.2;316.4;9.97986;531.144;318.998;0.0;139.0;1.0;-0.570427;-1.4421899999999999;-1.6030200000000001;-0.562515;-1.4596;-1.57879;0.207273;0.667104;-0.30226;-2.50592;1.62453;-0.95931;1.0;0.372557;-0.36982;-0.00343001;-0.570427;-1.4421899999999999;-1.6030200000000001;9.850660000000001;-2.69748;9.850660000000001;1000.0;1152.0;1397.0;1139.0;1024.0;930.0;1024.0;1024.0;1024.0;1.0;3.0;0.0;1300.0;15.0;9.0;0.016696799999999998;0.0;0.0;0.0;0.745115;-0.48076599999999997;-0.00583102;;1970-01-01 00:00:02.200
1088.0;1091.0;0.0;459.149;365.957;9.13376;459.111;366.67400000000004;0.0;32.0;1.0;-0.196858;-1.80567;-1.60849;-0.19787000000000002;-1.81201;-1.60645;0.06906160000000001;0.31132600000000005;0.0771715;0.132708;-0.387031;-0.2973;537.2;316.4;9.97986;531.144;318.998;0.0;139.0;1.0;-0.570427;-1.4421899999999999;-1.6030200000000001;-0.562515;-1.4596;-1.57879;0.207273;0.667104;-0.30226;-2.50592;1.62453;-0.95931;1.0;0.372557;-0.36982;-0.00343001;-0.570427;-1.4421899999999999;-1.6030200000000001;9.850660000000001;-2.69748;9.850660000000001;1000.0;1152.0;1397.0;1139.0;1024.0;930.0;1024.0;1024.0;1024.0;1.0;3.0;0.0;1300.0;15.0;9.0;0.016696799999999998;0.0;0.0;0.0;0.745115;-0.48076599999999997;-0.00583102;;1970-01-01 00:00:02.211
1089.0;1092.0;0.0;458.889;365.42199999999997;9.16946;458.975;366.12800000000004;0.0;33.0;1.0;-0.194676;-1.79617;-1.60376;-0.19691199999999998;-1.8072599999999999;-1.60564;0.0653089;0.30011;0.0674023;0.0806593;-0.44747299999999995;-0.351679;537.75;313.75;10.1344;531.864;316.16;0.0;140.0;1.0;-0.5644359999999999;-1.4091200000000002;-1.58546;-0.563091;-1.44446;-1.58079;0.141189;0.667987;-0.318707;-2.83725;1.10704;-1.12673;1.0;0.36752399999999996;-0.39814;-0.0201795;-0.5644359999999999;-1.4091200000000002;-1.58546;10.1972;-3.46215;10.1972;1000.0;1166.0;1416.0;1132.0;1024.0;930.0;1024.0;1024.0;1024.0;1.0;3.0;0.0;1300.0;15.0;9.0;0.0166975;0.0;0.0;0.0;0.7350479999999999;-0.517582;-0.034305199999999994;;1970-01-01 00:00:02.222
1090.0;1093.0;0.0;458.93;364.41900000000004;9.215860000000001;458.89300000000003;365.42199999999997;0.0;34.0;1.0;-0.19392;-1.7825099999999998;-1.59856;-0.19601400000000002;-1.7998299999999998;-1.60352;0.06315219999999999;0.315246;0.0758789;0.0241986;-0.428674;-0.35996;540.0;310.57099999999997;10.0549;533.164;313.14;0.0;141.0;1.0;-0.580064;-1.40686;-1.60633;-0.568183;-1.43318;-1.58845;0.0662061;0.6624979999999999;-0.353706;-3.17948;0.630696;-1.35665;1.0;0.38405;-0.392969;0.00281179;-0.580064;-1.40686;-1.60633;11.3532;-3.11417;11.3532;1000.0;1177.0;1459.0;1169.0;1024.0;930.0;1024.0;1024.0;1024.0;1.0;3.0;0.0;1300.0;15.0;9.0;0.016696799999999998;0.0;0.0;0.0;0.7681;-0.5108600000000001;0.00478004;;1970-01-01 00:00:02.233
1090.0;1093.0;0.0;458.93;364.41900000000004;9.215860000000001;458.89300000000003;365.42199999999997;0.0;34.0;1.0;-0.19392;-1.7825099999999998;-1.59856;-0.19601400000000002;-1.7998299999999998;-1.60352;0.06315219999999999;0.315246;0.0758789;0.0241986;-0.428674;-0.35996;540.0;310.57099999999997;10.0549;533.164;313.14;0.0;141.0;1.0;-0.580064;-1.40686;-1.60633;-0.568183;-1.43318;-1.58845;0.0662061;0.6624979999999999;-0.353706;-3.17948;0.630696;-1.35665;1.0;0.38405;-0.392969;0.00281179;-0.580064;-1.40686;-1.60633;11.3532;-3.11417;11.3532;1000.0;1177.0;1459.0;1169.0;1024.0;930.0;1024.0;1024.0;1024.0;1.0;3.0;0.0;1300.0;15.0;9.0;0.016696799999999998;0.0;0.0;0.0;0.7681;-0.5108600000000001;0.00478004;;1970-01-01 00:00:02.244
1091.0;1094.0;0.0;459.0;364.0;9.25667;458.85699999999997;364.783;0.0;35.0;1.0;-0.193441;-1.77273;-1.5927;-0.195242;-1.7917;-1.60027;0.0589793;0.334932;0.0849883;-0.0411458;-0.318058;-0.328173;540.0;308.57099999999997;10.0926;534.1619999999999;310.367;0.0;142.0;1.0;-0.5778979999999999;-1.39321;-1.60555;-0.571098;-1.42119;-1.59358;0.00676871;0.6768460000000001;-0.35429099999999997;-3.4368;0.34179899999999996;-1.44129;1.0;0.382656;-0.398489;0.00528193;-0.5778979999999999;-1.39321;-1.60555;11.8218;-2.9150099999999997;11.8218;1000.0;1181.0;1479.0;1178.0;1024.0;930.0;1024.0;1024.0;1024.0;1.0;3.0;0.0;1300.0;15.0;9.0;0.0166975;0.0;0.0;0.0;0.765312;-0.5180359999999999;0.00897927;;1970-01-01 00:00:02.255
1092.0;1095.0;0.0;459.273;363.18199999999996;9.28496;458.921;364.069;0.0;36.0;1.0;-0.19431800000000002;-1.7636;-1.59017;-0.194965;-1.7832700000000001;-1.59724;0.0530197;0.35881399999999997;0.09419169999999999;-0.1023;-0.0772916;-0.22284299999999999;542.25;305.75;10.0834;535.655;307.51599999999996;0.0;143.0;1.0;-0.589559;-1.38263;-1.61439;-0.5766359999999999;-1.40962;-1.5998299999999999;-0.0632629;0.68675;-0.359315;-3.67634;0.175702;-1.4293799999999999;1.0;0.394594;-0.400644;0.017149900000000003;-0.589559;-1.38263;-1.61439;12.7019;-2.5794099999999998;12.7019;1000.0;1187.0;1511.0;1193.0;1024.0;930.0;1024.0;1024.0;1024.0;1.0;3.0;0.0;1300.0;15.0;9.0;0.016696799999999998;0.0;0.0;0.0;0.789188;-0.520837;0.029154900000000004;;1970-01-01 00:00:02.266
1092.0;1095.0;0.0;459.273;363.18199999999996;9.28496;458.921;364.069;0.0;36.0;1.0;-0.19431800000000002;-1.7636;-1.59017;-0.194965;-1.7832700000000001;-1.59724;0.0530197;0.35881399999999997;0.09419169999999999;-0.1023;-0.0772916;-0.22284299999999999;542.25;305.75;10.0834;535.655;307.51599999999996;0.0;143.0;1.0;-0.589559;-1.38263;-1.61439;-0.5766359999999999;-1.40962;-1.5998299999999999;-0.0632629;0.68675;-0.359315;-3.67634;0.175702;-1.4293799999999999;1.0;0.394594;-0.400644;0.017149900000000003;-0.589559;-1.38263;-1.61439;12.7019;-2.5794099999999998;12.7019;1000.0;1187.0;1511.0;1193.0;1024.0;930.0;1024.0;1024.0;1024.0;1.0;3.0;0.0;1300.0;15.0;9.0;0.016696799999999998;0.0;0.0;0.0;0.789188;-0.520837;0.029154900000000004;;1970-01-01 00:00:02.277
1093.0;1096.0;0.0;459.23400000000004;362.213;9.308869999999999;458.957;363.25300000000004;0.0;37.0;1.0;-0.19361099999999998;-1.7546599999999999;-1.58883;-0.19455899999999998;-1.77469;-1.5947200000000001;0.0467644;0.375156;0.0998452;-0.161403;0.14918499999999998;-0.10588299999999999;544.0;303.5;10.0389;537.342;304.79200000000003;0.0;144.0;1.0;-0.600874;-1.37927;-1.62747;-0.583908;-1.40052;-1.60812;-0.13691;0.677774;-0.37415;-3.85535;0.09052710000000001;-1.30005;1.0;0.406316;-0.39542;0.0327457;-0.600874;-1.37927;-1.62747;13.6459;-2.21113;13.6459;1000.0;1192.0;1543.0;1210.0;1024.0;930.0;1024.0;1024.0;1024.0;1.0;3.0;0.0;1300.0;15.0;9.0;0.0166975;0.0;0.0;0.0;0.812631;-0.514046;0.0556677;;1970-01-01 00:00:02.288
1094.0;1097.0;0.0;459.783;361.652;9.25986;459.16;362.49300000000005;0.0;38.0;1.0;-0.19759200000000002;-1.76138;-1.59884;-0.195469;-1.7707;-1.59596;0.0376463;0.39005100000000004;0.10179500000000001;-0.222275;0.40384200000000003;0.034786300000000006;545.0;300.4;10.0733;538.927;301.892;0.0;145.0;1.0;-0.603773;-1.36151;-1.63001;-0.589867;-1.38881;-1.61469;-0.191355;0.689307;-0.367818;-3.90481;0.142966;-1.04179;1.0;0.40830500000000003;-0.409183;0.034057300000000006;-0.603773;-1.36151;-1.63001;13.9892;-2.25884;13.9892;1000.0;1193.0;1553.0;1204.0;1024.0;930.0;1024.0;1024.0;1024.0;1.0;3.0;0.0;1300.0;15.0;9.0;0.016696799999999998;0.0;0.0;0.0;0.816609;-0.531938;0.057897300000000006;;1970-01-01 00:00:02.299
1095.0;1098.0;0.0;460.222;360.4;9.24445;459.449;361.556;0.0;39.0;1.0;-0.200294;-1.75858;-1.60507;-0.196916;-1.7670599999999999;-1.59869;0.022569799999999998;0.394524;0.0888273;-0.304012;0.619276;0.10641600000000001;546.6669999999999;298.66700000000003;10.0521;540.644;299.303;0.0;146.0;1.0;-0.613319;-1.35707;-1.63799;-0.596903;-1.37929;-1.62168;-0.24981199999999998;0.67377;-0.383942;-3.90403;0.10887000000000001;-0.8855360000000001;1.0;0.41640200000000005;-0.40998599999999996;0.039300699999999994;-0.613319;-1.35707;-1.63799;14.5797;-2.20424;14.5797;1000.0;1196.0;1568.0;1205.0;1024.0;930.0;1024.0;1024.0;1024.0;1.0;3.0;0.0;1300.0;15.0;9.0;0.0166975;0.0;0.0;0.0;0.8328049999999999;-0.532981;0.0668112;;1970-01-01 00:00:02.310
1095.0;1098.0;0.0;460.222;360.4;9.24445;459.449;361.556;0.0;39.0;1.0;-0.200294;-1.75858;-1.60507;-0.196916;-1.7670599999999999;-1.59869;0.022569799999999998;0.394524;0.0888273;-0.304012;0.619276;0.10641600000000001;546.6669999999999;298.66700000000003;10.0521;540.644;299.303;0.0;146.0;1.0;-0.613319;-1.35707;-1.63799;-0.596903;-1.37929;-1.62168;-0.24981199999999998;0.67377;-0.383942;-3.90403;0.10887000000000001;-0.8855360000000001;1.0;0.41640200000000005;-0.40998599999999996;0.039300699999999994;-0.613319;-1.35707;-1.63799;14.5797;-2.20424;14.5797;1000.0;1196.0;1568.0;1205.0;1024.0;930.0;1024.0;1024.0;1024.0;1.0;3.0;0.0;1300.0;15.0;9.0;0.0166975;0.0;0.0;0.0;0.8328049999999999;-0.532981;0.0668112;;1970-01-01 00:00:02.321
1096.0;1099.0;0.0;461.064;359.702;9.33267;459.92699999999996;360.666;0.0;40.0;1.0;-0.202901;-1.73879;-1.5918700000000001;-0.198712;-1.75858;-1.59665;0.00277185;0.401432;0.080731;-0.423491;0.715681;0.08322289999999999;547.3330000000001;296.222;10.2238;542.134;296.715;0.0;147.0;1.0;-0.6062770000000001;-1.32416;-1.6168;-0.599715;-1.36275;-1.62021;-0.27578400000000003;0.685449;-0.35718099999999997;-3.7078800000000003;0.156961;-0.545198;1.0;0.407565;-0.434414;0.0201526;-0.6062770000000001;-1.32416;-1.6168;14.3611;-2.59984;14.3611;1000.0;1194.0;1552.0;1174.0;1024.0;930.0;1024.0;1024.0;1024.0;1.0;3.0;0.0;1300.0;15.0;9.0;0.016696799999999998;0.0;0.0;0.0;0.81513;-0.564738;0.0342594;;1970-01-01 00:00:02.332
1097.0;1100.0;0.0;461.39099999999996;358.217;9.32597;460.379;359.559;0.0;41.0;1.0;-0.204799;-1.7332900000000002;-1.59721;-0.20053800000000002;-1.75099;-1.5968200000000001;-0.019445;0.40313699999999997;0.0622178;-0.566701;0.701278;-0.04083169999999999;548.0;293.42900000000003;10.0563;543.4490000000001;294.002;0.0;148.0;1.0;-0.619681;-1.33444;-1.65104;-0.605705;-1.35426;-1.6294600000000001;-0.303415;0.6780510000000001;-0.357329;-3.4611400000000003;0.0989813;-0.33922800000000003;1.0;0.41914300000000004;-0.416548;0.0542278;-0.619681;-1.33444;-1.65104;14.7527;-2.20295;14.7527;1000.0;1191.0;1552.0;1183.0;1024.0;930.0;1024.0;1024.0;1024.0;1.0;3.0;0.0;1300.0;15.0;9.0;0.016864700000000003;0.0;0.0;0.0;0.8382860000000001;-0.541513;0.0921873;;1970-01-01 00:00:02.343
1097.0;1100.0;0.0;461.39099999999996;358.217;9.32597;460.379;359.559;0.0;41.0;1.0;-0.204799;-1.7332900000000002;-1.59721;-0.20053800000000002;-1.75099;-1.5968200000000001;-0.019445;0.40313699999999997;0.0622178;-0.566701;0.701278;-0.04083169999999999;548.0;293.42900000000003;10.0563;543.4490000000001;294.002;0.0;148.0;1.0;-0.619681;-1.33444;-1.65104;-0.605705;-1.35426;-1.6294600000000001;-0.303415;0.6780510000000001;-0.357329;-3.4611400000000003;0.0989813;-0.33922800000000003;1.0;0.41914300000000004;-0.416548;0.0542278;-0.619681;-1.33444;-1.65104;14.7527;-2.20295;14.7527;1000.0;1191.0;1552.0;1183.0;1024.0;930.0;1024.0;1024.0;1024.0;1.0;3.0;0.0;1300.0;15.0;9.0;0.016864700000000003;0.0;0.0;0.0;0.8382860000000001;-0.541513;0.0921873;;1970-01-01 00:00:02.354
1098.0;1101.0;0.0;462.714;357.14300000000003;9.33239;461.12800000000004;358.43300000000005;0.0;42.0;1.0;-0.211732;-1.72722;-1.59915;-0.203896;-1.7438599999999997;-1.59752;-0.0472671;0.39898;0.0362416;-0.7397739999999999;0.580871;-0.255494;549.0;292.0;10.118;544.752;291.67;0.0;149.0;1.0;-0.620834;-1.3203200000000002;-1.6447;-0.610243;-1.34408;-1.6340299999999999;-0.31600900000000004;0.668081;-0.35075;-3.08414;-0.015026499999999998;-0.169398;1.0;0.41693800000000003;-0.42353599999999997;0.0471811;-0.620834;-1.3203200000000002;-1.6447;14.5037;-2.41375;14.5037;1000.0;1186.0;1528.0;1158.0;1024.0;930.0;1024.0;1024.0;1024.0;1.0;3.0;0.0;1300.0;15.0;9.0;0.016696799999999998;0.0;0.0;0.0;0.833875;-0.550597;0.0802079;;1970-01-01 00:00:02.365
