ID;RS_ID;time;insect_log;imLx_drone; imLy_drone; disparity_drone; imLx_pred_drone; imLy_pred_drone; n_frames_lost_drone; n_frames_tracking_drone; foundL_drone; posX_drone; posY_drone; posZ_drone; sposX_drone; sposY_drone; sposZ_drone; svelX_drone; svelY_drone; svelZ_drone; saccX_drone; saccY_drone; saccZ_drone; imLx_insect; imLy_insect; disparity_insect; imLx_pred_insect; imLy_pred_insect; n_frames_lost_insect; n_frames_tracking_insect; foundL_insect; posX_insect; posY_insect; posZ_insect; sposX_insect; sposY_insect; sposZ_insect; svelX_insect; svelY_insect; svelZ_insect; saccX_insect; saccY_insect; saccZ_insect; valid; posErrX; posErrY; posErrZ; velX; velY; velZ; accX; accY; accZ; hoverthrottle; autoThrottle; autoRoll; autoPitch; autoYaw; joyThrottle; joyRoll; joyPitch; joyYaw; joyArmSwitch; joyModeSwitch; joyTakeoffSwitch; throttleP; throttleI; throttleD; dt; dx; dy; dz; velx_sp; vely_sp; velz_sp;
950;953;2019/07/17 13:12:34;0;-1;-1;-1;461.583;398.667;100;0;0;0;0;0;0;0;0;0;0;0;0;0;0;844;318;14.8093;844;318.495;0;1;1;-1.41817;-0.976459;-1.07741;-1.41817;-0.976459;-1.07741;0;0;0;0;0;0;0;0;0;0;0;0;0;0;0;0;1000;228;1024;1024;1024;930;1024;1024;1024;1;3;0;1300;15;9;0;0;0;0;0;0;0; 
951;954;2019/07/17 13:12:34;0;-1;-1;-1;461.583;398.667;100;0;0;0;0;0;0;0;0;0;0;0;0;0;0;842.25;317.75;14.5677;843.841;318.921;0;2;1;-1.43569;-0.991921;-1.09573;-1.42342;-0.981098;-1.08291;0;0;0;0;0;0;0;0;0;0;0;0;0;0;0;0;1000;228;1024;1024;1024;930;1024;1024;1024;1;3;0;1300;15;9;0;0;0;0;0;0;0; 
952;955;2019/07/17 13:12:34;0;-1;-1;-1;461.583;398.667;100;0;0;0;0;0;0;0;0;0;0;0;0;0;0;838.571;318;14.5;842.994;319.268;0;3;1;-1.42973;-0.997286;-1.10039;-1.42532;-0.985954;-1.08815;0;0;0;0;0;0;0;0;0;0;0;0;0;0;0;0;1000;228;1024;1024;1024;930;1024;1024;1024;1;3;0;1300;15;9;0;0;0;0;0;0;0; 
953;956;2019/07/17 13:12:34;0;-1;-1;-1;461.583;398.667;100;0;0;0;0;0;0;0;0;0;0;0;0;0;0;837;318.4;14.4892;841.746;319.582;0;4;1;-1.42539;-0.999198;-1.10048;-1.42534;-0.989927;-1.09185;0;0;0;0;0;0;0;0;0;0;0;0;0;0;0;0;1000;228;1024;1024;1024;930;1024;1024;1024;1;3;0;1300;15;9;0;0;0;0;0;0;0; 
954;957;2019/07/17 13:12:34;0;-1;-1;-1;461.583;398.667;100;0;0;0;0;0;0;0;0;0;0;0;0;0;0;832.25;319.75;14.513;839.487;320.115;0;5;1;-1.40672;-1.0015;-1.09623;-1.41975;-0.993399;-1.09317;0;0;0;0;0;0;0;0;0;0;0;0;0;0;0;0;1000;228;1024;1024;1024;930;1024;1024;1024;1;3;0;1300;15;9;0;0;0;0;0;0;0; 
955;958;2019/07/17 13:12:34;0;-1;-1;-1;461.583;398.667;100;0;0;0;0;0;0;0;0;0;0;0;0;0;0;831.333;319.778;14.3503;837.39;320.523;0;6;1;-1.41948;-1.01294;-1.1086;-1.41967;-0.99926;-1.0978;0;0;0;0;0;0;0;0;0;0;0;0;0;0;0;0;1000;228;1024;1024;1024;930;1024;1024;1024;1;3;0;1300;15;9;0;0;0;0;0;0;0; 
956;959;2019/07/17 13:12:34;0;-1;-1;-1;461.583;398.667;100;0;0;0;0;0;0;0;0;0;0;0;0;0;0;827.333;320.222;14.4482;834.686;320.937;0;7;1;-1.39604;-1.00738;-1.10028;-1.41258;-1.00169;-1.09854;0;0;0;0;0;0;0;0;0;0;0;0;0;0;0;0;1000;228;1024;1024;1024;930;1024;1024;1024;1;3;0;1300;15;9;0;0;0;0;0;0;0; 
957;960;2019/07/17 13:12:34;0;-1;-1;-1;461.583;398.667;100;0;0;0;0;0;0;0;0;0;0;0;0;0;0;825;321;14.421;831.991;321.447;0;8;1;-1.3906;-1.01156;-1.10094;-1.40599;-1.00465;-1.09926;0.103071;-0.245194;-0.191834;0.41153;-0.978982;-0.765932;0;0;0;0;0;0;0;0;0;0;1000;228;1024;1024;1024;930;1024;1024;1024;1;3;0;1300;15;9;0;0;0;0;0;0;0; 
958;961;2019/07/17 13:12:34;0;-1;-1;-1;461.583;398.667;100;0;0;0;0;0;0;0;0;0;0;0;0;0;0;821;321;14.2354;828.861;321.816;0;9;1;-1.39471;-1.02475;-1.11529;-1.40261;-1.01068;-1.10407;0.152521;-0.245852;-0.178646;0.855888;-1.569;-1.17284;0;0;0;0;0;0;0;0;0;0;1000;228;1024;1024;1024;930;1024;1024;1024;1;3;0;1300;15;9;0;0;0;0;0;0;0; 
959;962;2019/07/17 13:12:34;0;-1;-1;-1;461.583;398.667;100;0;0;0;0;0;0;0;0;0;0;0;0;0;0;817;322;14.4083;825.408;322.359;0;10;1;-1.36413;-1.01539;-1.10008;-1.39106;-1.0121;-1.10287;0.228367;-0.236027;-0.151182;1.42533;-1.88378;-1.30733;0;0;0;0;0;0;0;0;0;0;1000;228;1024;1024;1024;930;1024;1024;1024;1;3;0;1300;15;9;0;0;0;0;0;0;0; 
960;963;2019/07/17 13:12:34;0;-1;-1;-1;461.583;398.667;100;0;0;0;0;0;0;0;0;0;0;0;0;0;0;814.4;322;14.196;822.115;322.749;0;11;1;-1.37538;-1.03058;-1.11653;-1.38636;-1.01764;-1.10697;0.27035;-0.238405;-0.145819;1.93463;-2.08215;-1.36661;0;0;0;0;0;0;0;0;0;0;1000;228;1024;1024;1024;930;1024;1024;1024;1;3;0;1300;15;9;0;0;0;0;0;0;0; 
961;964;2019/07/17 13:12:34;0;-1;-1;-1;461.583;398.667;100;0;0;0;0;0;0;0;0;0;0;0;0;0;0;810;322.571;14.2927;818.424;323.189;0;12;1;-1.35072;-1.0253;-1.10792;-1.37567;-1.01994;-1.10725;0.3379;-0.225607;-0.12525;2.50991;-2.15007;-1.32005;0;0;0;0;0;0;0;0;0;0;1000;228;1024;1024;1024;930;1024;1024;1024;1;3;0;1300;15;9;0;0;0;0;0;0;0; 
962;965;2019/07/17 13:12:34;0;-1;-1;-1;461.583;398.667;100;0;0;0;0;0;0;0;0;0;0;0;0;0;0;809;322.4;13.9629;815.418;323.45;0;13;1;-1.37905;-1.049;-1.13442;-1.37668;-1.02866;-1.1154;0.346074;-0.243019;-0.14247;2.88771;-2.26034;-1.36087;0;0;0;0;0;0;0;0;0;0;1000;228;1024;1024;1024;930;1024;1024;1024;1;3;0;1300;15;9;0;0;0;0;0;0;0; 
963;966;2019/07/17 13:12:34;0;-1;-1;-1;461.583;398.667;100;0;0;0;0;0;0;0;0;0;0;0;0;0;0;804;323.429;14.0056;811.754;323.929;0;14;1;-1.35703;-1.04891;-1.12902;-1.37079;-1.03473;-1.11949;0.348195;-0.265906;-0.166243;2.71133;-1.43891;-0.714347;0;0;0;0;0;0;0;0;0;0;1000;228;1024;1024;1024;930;1024;1024;1024;1;3;0;1300;15;9;0;0;0;0;0;0;0; 
964;967;2019/07/17 13:12:35;0;-1;-1;-1;461.583;398.667;100;0;0;0;0;0;0;0;0;0;0;0;0;0;0;801.429;324;14.174;808.313;324.434;0;15;1;-1.33185;-1.03816;-1.11454;-1.35911;-1.03576;-1.118;0.382593;-0.259671;-0.155385;2.54541;-0.918521;-0.335733;0;0;0;0;0;0;0;0;0;0;1000;228;1024;1024;1024;930;1024;1024;1024;1;3;0;1300;15;9;0;0;0;0;0;0;0; 
965;968;2019/07/17 13:12:35;0;-1;-1;-1;461.583;398.667;100;0;0;0;0;0;0;0;0;0;0;0;0;0;0;799.6;324;13.7056;805.255;324.791;0;16;1;-1.37071;-1.07363;-1.15263;-1.36259;-1.04712;-1.12839;0.343242;-0.295652;-0.195126;1.98591;-0.789178;-0.376893;0;0;0;0;0;0;0;0;0;0;1000;228;1024;1024;1024;930;1024;1024;1024;1;3;0;1300;15;9;0;0;0;0;0;0;0; 
966;969;2019/07/17 13:12:35;0;-1;-1;-1;461.583;398.667;100;0;0;0;0;0;0;0;0;0;0;0;0;0;0;795.75;324.25;13.8307;801.879;325.112;0;17;1;-1.34443;-1.0647;-1.14173;-1.35714;-1.05239;-1.13239;0.322601;-0.316152;-0.218596;1.40016;-0.783926;-0.516711;0;0;0;0;0;0;0;0;0;0;1000;228;1024;1024;1024;930;1024;1024;1024;1;3;0;1300;15;9;0;0;0;0;0;0;0; 
967;970;2019/07/17 13:12:35;0;-1;-1;-1;461.583;398.667;100;0;0;0;0;0;0;0;0;0;0;0;0;0;0;794.4;324;13.5803;799.015;325.257;0;18;1;-1.36425;-1.08354;-1.16326;-1.35927;-1.06174;-1.14166;0.25901;-0.356584;-0.268514;0.525116;-0.99331;-0.882033;0;0;0;0;0;0;0;0;0;0;1000;228;1024;1024;1024;930;1024;1024;1024;1;3;0;1300;15;9;0;0;0;0;0;0;0; 
968;971;2019/07/17 13:12:35;0;-1;-1;-1;461.583;398.667;100;0;0;0;0;0;0;0;0;0;0;0;0;0;0;791.091;324.727;13.6822;795.941;325.566;0;19;1;-1.34203;-1.07773;-1.1532;-1.3541;-1.06653;-1.14512;0.245574;-0.365181;-0.279759;-0.0861947;-1.08374;-1.07737;0;0;0;0;0;0;0;0;0;0;1000;228;1024;1024;1024;930;1024;1024;1024;1;3;0;1300;15;9;0;0;0;0;0;0;0; 
969;972;2019/07/17 13:12:35;0;-1;-1;-1;461.583;398.667;100;0;0;0;0;0;0;0;0;0;0;0;0;0;0;787.667;325.667;13.6486;792.677;326.06;0;20;1;-1.33281;-1.0833;-1.15423;-1.34771;-1.07156;-1.14785;0.239465;-0.366161;-0.281112;-0.485843;-1.05053;-1.10506;0;0;0;0;0;0;0;0;0;0;1000;228;1024;1024;1024;930;1024;1024;1024;1;3;0;1300;15;9;0;0;0;0;0;0;0; 
970;973;2019/07/17 13:12:35;0;-1;-1;-1;461.583;398.667;100;0;0;0;0;0;0;0;0;0;0;0;0;0;0;786.4;326;13.5446;789.93;326.506;0;21;1;-1.33838;-1.09266;-1.16244;-1.34491;-1.07789;-1.15223;0.200351;-0.387911;-0.305321;-1.01914;-1.14234;-1.26169;0;0;0;0;0;0;0;0;0;0;1000;228;1024;1024;1024;930;1024;1024;1024;1;3;0;1300;15;9;0;0;0;0;0;0;0; 
971;974;2019/07/17 13:12:35;0;-1;-1;-1;461.583;398.667;100;0;0;0;0;0;0;0;0;0;0;0;0;0;0;782.25;327.75;13.5268;786.685;327.349;0;22;1;-1.32483;-1.09958;-1.16056;-1.33889;-1.0844;-1.15473;0.214834;-0.381572;-0.288354;-1.12418;-1.02846;-1.12924;0;0;0;0;0;0;0;0;0;0;1000;228;1024;1024;1024;930;1024;1024;1024;1;3;0;1300;15;9;0;0;0;0;0;0;0; 
972;975;2019/07/17 13:12:35;0;-1;-1;-1;461.583;398.667;100;0;0;0;0;0;0;0;0;0;0;0;0;0;0;780;327.429;13.4422;783.657;327.849;0;23;1;-1.32482;-1.10549;-1.1685;-1.33467;-1.09072;-1.15886;0.218627;-0.38198;-0.278684;-1.08964;-0.879903;-0.91746;0;0;0;0;0;0;0;0;0;0;1000;228;1024;1024;1024;930;1024;1024;1024;1;3;0;1300;15;9;0;0;0;0;0;0;0; 
973;976;2019/07/17 13:12:35;0;-1;-1;-1;461.583;398.667;100;0;0;0;0;0;0;0;0;0;0;0;0;0;0;777;329;13.4747;780.56;328.68;0;24;1;-1.31051;-1.10776;-1.1626;-1.32742;-1.09583;-1.15998;0.258355;-0.36532;-0.240389;-0.656405;-0.562822;-0.438183;0;0;0;0;0;0;0;0;0;0;1000;228;1024;1024;1024;930;1024;1024;1024;1;3;0;1300;15;9;0;0;0;0;0;0;0; 
974;977;2019/07/17 13:12:35;0;-1;-1;-1;461.583;398.667;100;0;0;0;0;0;0;0;0;0;0;0;0;0;0;773.429;330;13.4567;777.237;329.577;0;25;1;-1.29902;-1.11238;-1.1622;-1.3189;-1.1008;-1.16065;0.295555;-0.356;-0.20623;-0.194284;-0.301035;0.0306665;0;0;0;0;0;0;0;0;0;0;1000;228;1024;1024;1024;930;1024;1024;1024;1;3;0;1300;15;9;0;0;0;0;0;0;0; 
975;978;2019/07/17 13:12:35;0;-1;-1;-1;461.583;398.667;100;0;0;0;0;0;0;0;0;0;0;0;0;0;0;770.4;330;13.3524;773.919;330.212;0;26;1;-1.29785;-1.12108;-1.17128;-1.31259;-1.10688;-1.16384;0.31759;-0.354619;-0.187558;0.195359;-0.134537;0.391933;0;0;0;0;0;0;0;0;0;0;1000;228;1024;1024;1024;930;1024;1024;1024;1;3;0;1300;15;9;0;0;0;0;0;0;0; 
976;979;2019/07/17 13:12:35;0;-1;-1;-1;461.583;398.667;100;0;0;0;0;0;0;0;0;0;0;0;0;0;0;767;332;13.3923;770.492;331.276;0;27;1;-1.28132;-1.12407;-1.16385;-1.3032;-1.11204;-1.16384;0.357084;-0.349108;-0.1589;0.743003;0.0742064;0.819775;0;0;0;0;0;0;0;0;0;0;1000;228;1024;1024;1024;930;1024;1024;1024;1;3;0;1300;15;9;0;0;0;0;0;0;0; 
977;980;2019/07/17 13:12:35;0;-1;-1;-1;461.583;398.667;100;0;0;0;0;0;0;0;0;0;0;0;0;0;0;762.667;331.778;13.306;766.697;331.962;0;28;1;-1.27338;-1.13065;-1.17184;-1.29426;-1.11762;-1.16624;0.392456;-0.342118;-0.141306;1.15499;0.202049;1.07898;0;0;0;0;0;0;0;0;0;0;1000;228;1024;1024;1024;930;1024;1024;1024;1;3;0;1300;15;9;0;0;0;0;0;0;0; 
978;981;2019/07/17 13:12:35;0;-1;-1;-1;461.583;398.667;100;0;0;0;0;0;0;0;0;0;0;0;0;0;0;758.571;333.143;13.3565;762.711;332.866;0;29;1;-1.25326;-1.13071;-1.16472;-1.28196;-1.12155;-1.16579;0.445933;-0.328339;-0.112432;1.60058;0.335404;1.3112;0;0;0;0;0;0;0;0;0;0;1000;228;1024;1024;1024;930;1024;1024;1024;1;3;0;1300;15;9;0;0;0;0;0;0;0; 
979;982;2019/07/17 13:12:35;0;-1;-1;-1;461.583;398.667;100;0;0;0;0;0;0;0;0;0;0;0;0;0;0;755.667;332.167;12.9144;758.959;333.197;0;30;1;-1.28494;-1.16621;-1.20658;-1.28285;-1.13494;-1.17802;0.445515;-0.353161;-0.139487;1.70763;0.24979;1.1896;0;0;0;0;0;0;0;0;0;0;1000;228;1024;1024;1024;930;1024;1024;1024;1;3;0;1300;15;9;0;0;0;0;0;0;0; 
980;983;2019/07/17 13:12:35;0;-1;-1;-1;461.583;398.667;100;0;0;0;0;0;0;0;0;0;0;0;0;0;0;751;334;13.1352;754.83;333.99;0;31;1;-1.24561;-1.15251;-1.18262;-1.27168;-1.14022;-1.1794;0.455853;-0.369275;-0.158569;1.66461;0.096871;0.904058;0;0;0;0;0;0;0;0;0;0;1000;228;1024;1024;1024;930;1024;1024;1024;1;3;0;1300;15;9;0;0;0;0;0;0;0; 
981;984;2019/07/17 13:12:35;0;-1;-1;-1;461.583;398.667;100;0;0;0;0;0;0;0;0;0;0;0;0;0;0;748.727;333.818;12.9243;751.181;334.487;0;32;1;-1.25716;-1.17073;-1.20228;-1.26732;-1.14937;-1.18627;0.454236;-0.391197;-0.184693;1.54436;-0.0879266;0.553874;0;0;0;0;0;0;0;0;0;0;1000;228;1024;1024;1024;930;1024;1024;1024;1;3;0;1300;15;9;0;0;0;0;0;0;0; 
982;985;2019/07/17 13:12:35;0;-1;-1;-1;461.583;398.667;100;0;0;0;0;0;0;0;0;0;0;0;0;0;0;744;334;12.9027;747.113;334.883;0;33;1;-1.24099;-1.17329;-1.20393;-1.25942;-1.15654;-1.19157;0.447353;-0.412422;-0.22151;1.28704;-0.305553;0.0823376;0;0;0;0;0;0;0;0;0;0;1000;228;1024;1024;1024;930;1024;1024;1024;1;3;0;1300;15;9;0;0;0;0;0;0;0; 
983;986;2019/07/17 13:12:35;0;-1;-1;-1;461.583;398.667;100;0;0;0;0;0;0;0;0;0;0;0;0;0;0;741.333;334.222;12.7853;743.393;335.218;0;34;1;-1.24198;-1.1848;-1.21453;-1.25419;-1.16502;-1.19845;0.428393;-0.436709;-0.261524;0.91571;-0.561009;-0.430601;0;0;0;0;0;0;0;0;0;0;1000;228;1024;1024;1024;930;1024;1024;1024;1;3;0;1300;15;9;0;0;0;0;0;0;0; 
984;987;2019/07/17 13:12:35;0;-1;-1;-1;461.583;398.667;100;0;0;0;0;0;0;0;0;0;0;0;0;0;0;737.333;334.222;12.6445;739.508;335.439;0;35;1;-1.24002;-1.19799;-1.22805;-1.24994;-1.17491;-1.20733;0.384885;-0.475095;-0.322805;0.305682;-0.922556;-1.09831;0;0;0;0;0;0;0;0;0;0;1000;228;1024;1024;1024;930;1024;1024;1024;1;3;0;1300;15;9;0;0;0;0;0;0;0; 
985;988;2019/07/17 13:12:35;0;-1;-1;-1;461.583;398.667;100;0;0;0;0;0;0;0;0;0;0;0;0;0;0;734;335;12.7336;735.716;335.822;0;36;1;-1.21828;-1.19219;-1.21785;-1.24044;-1.1801;-1.21049;0.400269;-0.465337;-0.323306;0.00275573;-1.00142;-1.39292;0;0;0;0;0;0;0;0;0;0;1000;228;1024;1024;1024;930;1024;1024;1024;1;3;0;1300;15;9;0;0;0;0;0;0;0; 
986;989;2019/07/17 13:12:35;0;-1;-1;-1;461.583;398.667;100;0;0;0;0;0;0;0;0;0;0;0;0;0;0;731;335;12.5441;732.102;336.078;0;37;1;-1.22475;-1.21021;-1.23625;-1.23573;-1.18913;-1.21822;0.383681;-0.474503;-0.348961;-0.28651;-1.021;-1.59593;0;0;0;0;0;0;0;0;0;0;1000;228;1024;1024;1024;930;1024;1024;1024;1;3;0;1300;15;9;0;0;0;0;0;0;0; 
987;990;2019/07/17 13:12:35;0;-1;-1;-1;461.583;398.667;100;0;0;0;0;0;0;0;0;0;0;0;0;0;0;727;335;12.5719;728.302;336.243;0;38;1;-1.20617;-1.20753;-1.23351;-1.22686;-1.19465;-1.22281;0.391751;-0.465499;-0.355268;-0.421389;-0.909262;-1.63861;0;0;0;0;0;0;0;0;0;0;1000;228;1024;1024;1024;930;1024;1024;1024;1;3;0;1300;15;9;0;0;0;0;0;0;0; 
988;991;2019/07/17 13:12:35;0;-1;-1;-1;461.583;398.667;100;0;0;0;0;0;0;0;0;0;0;0;0;0;0;725;335.6;12.5096;725.003;336.53;0;39;1;-1.20419;-1.21557;-1.23839;-1.22006;-1.20093;-1.22748;0.39221;-0.456503;-0.356554;-0.473003;-0.721558;-1.52236;0;0;0;0;0;0;0;0;0;0;1000;228;1024;1024;1024;930;1024;1024;1024;1;3;0;1300;15;9;0;0;0;0;0;0;0; 
989;992;2019/07/17 13:12:35;0;-1;-1;-1;461.583;398.667;100;0;0;0;0;0;0;0;0;0;0;0;0;0;0;721.429;336;12.4885;721.573;336.845;0;40;1;-1.19196;-1.21898;-1.23964;-1.21163;-1.20634;-1.23113;0.405251;-0.438891;-0.344382;-0.3762;-0.441648;-1.24424;0;0;0;0;0;0;0;0;0;0;1000;228;1024;1024;1024;930;1024;1024;1024;1;3;0;1300;15;9;0;0;0;0;0;0;0; 
990;993;2019/07/17 13:12:35;0;-1;-1;-1;461.583;398.667;100;0;0;0;0;0;0;0;0;0;0;0;0;0;0;719.6;336;12.3871;718.603;337.052;0;41;1;-1.19434;-1.22896;-1.24978;-1.20644;-1.21313;-1.23672;0.416805;-0.415924;-0.323974;-0.0982721;-0.0287365;-0.751215;0;0;0;0;0;0;0;0;0;0;1000;228;1024;1024;1024;930;1024;1024;1024;1;3;0;1300;15;9;0;0;0;0;0;0;0; 
991;994;2019/07/17 13:12:35;0;-1;-1;-1;461.583;398.667;100;0;0;0;0;0;0;0;0;0;0;0;0;0;0;716;337;12.3993;715.406;337.5;0;42;1;-1.17868;-1.23117;-1.24643;-1.19812;-1.21854;-1.23963;0.41907;-0.40305;-0.310759;0.0161032;0.231451;-0.400635;0;0;0;0;0;0;0;0;0;0;1000;228;1024;1024;1024;930;1024;1024;1024;1;3;0;1300;15;9;0;0;0;0;0;0;0; 
992;995;2019/07/17 13:12:35;0;-1;-1;-1;461.583;398.667;100;0;0;0;0;0;0;0;0;0;0;0;0;0;0;714;337.429;12.3645;712.553;337.941;0;43;1;-1.17393;-1.23611;-1.24903;-1.19086;-1.22381;-1.24245;0.430602;-0.380302;-0.283226;0.197003;0.514987;0.0220782;0;0;0;0;0;0;0;0;0;0;1000;228;1024;1024;1024;930;1024;1024;1024;1;3;0;1300;15;9;0;0;0;0;0;0;0; 
993;996;2019/07/17 13:12:35;0;-1;-1;-1;461.583;398.667;100;0;0;0;0;0;0;0;0;0;0;0;0;0;0;710;337.429;12.2933;709.317;338.241;0;44;1;-1.16449;-1.24326;-1.25626;-1.18295;-1.22965;-1.24659;0.43369;-0.36791;-0.264917;0.285648;0.698635;0.373992;0;0;0;0;0;0;0;0;0;0;1000;228;1024;1024;1024;930;1024;1024;1024;1;3;0;1300;15;9;0;0;0;0;0;0;0; 
994;997;2019/07/17 13:12:35;0;-1;-1;-1;461.583;398.667;100;0;0;0;0;0;0;0;0;0;0;0;0;0;0;707;338;12.3553;706.121;338.62;0;45;1;-1.14654;-1.23899;-1.24874;-1.17203;-1.23245;-1.24724;0.452003;-0.346605;-0.237834;0.410123;0.857969;0.698408;0;0;0;0;0;0;0;0;0;0;1000;228;1024;1024;1024;930;1024;1024;1024;1;3;0;1300;15;9;0;0;0;0;0;0;0; 
995;998;2019/07/17 13:12:35;0;-1;-1;-1;461.583;398.667;100;0;0;0;0;0;0;0;0;0;0;0;0;0;0;705.6;338;12.0601;703.464;338.875;0;46;1;-1.16881;-1.26931;-1.2793;-1.17106;-1.24351;-1.25686;0.433182;-0.35635;-0.245431;0.357595;0.844342;0.814125;0;0;0;0;0;0;0;0;0;0;1000;228;1024;1024;1024;930;1024;1024;1024;1;3;0;1300;15;9;0;0;0;0;0;0;0; 
996;999;2019/07/17 13:12:35;0;-1;-1;-1;461.583;398.667;100;0;0;0;0;0;0;0;0;0;0;0;0;0;0;702;338.571;12.0398;700.5;339.222;0;47;1;-1.15586;-1.27347;-1.28021;-1.1665;-1.2525;-1.26386;0.419396;-0.37099;-0.255616;0.224899;0.686011;0.761408;0;0;0;0;0;0;0;0;0;0;1000;228;1024;1024;1024;930;1024;1024;1024;1;3;0;1300;15;9;0;0;0;0;0;0;0; 
997;1000;2019/07/17 13:12:35;0;-1;-1;-1;461.583;398.667;100;0;0;0;0;0;0;0;0;0;0;0;0;0;0;700;339;11.9146;697.823;339.591;0;48;1;-1.15962;-1.28837;-1.29271;-1.16444;-1.26326;-1.27252;0.386106;-0.401134;-0.284658;0.00332397;0.419255;0.561058;0;0;0;0;0;0;0;0;0;0;1000;228;1024;1024;1024;930;1024;1024;1024;1;3;0;1300;15;9;0;0;0;0;0;0;0; 
998;1001;2019/07/17 13:12:35;0;-1;-1;-1;461.583;398.667;100;0;0;0;0;0;0;0;0;0;0;0;0;0;0;697;340;11.9037;695.036;340.158;0;49;1;-1.14811;-1.29311;-1.29168;-1.15954;-1.27221;-1.27827;0.356722;-0.433933;-0.313787;-0.292983;0.0374192;0.214616;0;0;0;0;0;0;0;0;0;0;1000;228;1024;1024;1024;930;1024;1024;1024;1;3;0;1300;15;9;0;0;0;0;0;0;0; 
999;1002;2019/07/17 13:12:35;0;-1;-1;-1;461.583;398.667;100;0;0;0;0;0;0;0;0;0;0;0;0;0;0;694;340.571;11.7596;692.17;340.732;0;50;1;-1.14945;-1.31102;-1.30623;-1.15651;-1.28385;-1.28666;0.319589;-0.476793;-0.348226;-0.63136;-0.412284;-0.203861;0;0;0;0;0;0;0;0;0;0;1000;228;1024;1024;1024;930;1024;1024;1024;1;3;0;1300;15;9;0;0;0;0;0;0;0; 
1000;1003;2019/07/17 13:12:35;0;-1;-1;-1;461.583;398.667;100;0;0;0;0;0;0;0;0;0;0;0;0;0;0;692;340;11.732;689.565;340.947;0;51;1;-1.14365;-1.31203;-1.31058;-1.15265;-1.29231;-1.29383;0.269101;-0.525074;-0.394986;-1.10909;-0.959944;-0.749775;0;0;0;0;0;0;0;0;0;0;1000;228;1024;1024;1024;930;1024;1024;1024;1;3;0;1300;15;9;0;0;0;0;0;0;0; 
1001;1004;2019/07/17 13:12:35;0;-1;-1;-1;461.583;398.667;100;0;0;0;0;0;0;0;0;0;0;0;0;0;0;688.571;342;11.8969;686.696;341.72;0;52;1;-1.11342;-1.30097;-1.28799;-1.14088;-1.29491;-1.29208;0.281948;-0.520266;-0.377635;-1.26928;-1.23043;-0.977714;0;0;0;0;0;0;0;0;0;0;1000;228;1024;1024;1024;930;1024;1024;1024;1;3;0;1300;15;9;0;0;0;0;0;0;0; 
1002;1005;2019/07/17 13:12:35;0;-1;-1;-1;461.583;398.667;100;0;0;0;0;0;0;0;0;0;0;0;0;0;0;687;341.6;11.6031;684.226;342.134;0;53;1;-1.13485;-1.33245;-1.32151;-1.13907;-1.30617;-1.30091;0.278674;-0.526467;-0.3745;-1.32343;-1.35903;-1.06129;0;0;0;0;0;0;0;0;0;0;1000;228;1024;1024;1024;930;1024;1024;1024;1;3;0;1300;15;9;0;0;0;0;0;0;0; 
1003;1006;2019/07/17 13:12:35;0;-1;-1;-1;461.583;398.667;100;0;0;0;0;0;0;0;0;0;0;0;0;0;0;684;342.571;11.7185;681.592;342.724;0;54;1;-1.1109;-1.32284;-1.30631;-1.13062;-1.31117;-1.30253;0.302226;-0.507183;-0.344528;-1.12897;-1.23884;-0.875819;0;0;0;0;0;0;0;0;0;0;1000;228;1024;1024;1024;930;1024;1024;1024;1;3;0;1300;15;9;0;0;0;0;0;0;0; 
1004;1007;2019/07/17 13:12:35;0;-1;-1;-1;461.583;398.667;100;0;0;0;0;0;0;0;0;0;0;0;0;0;0;681.429;342.857;11.6009;678.974;343.223;0;55;1;-1.1111;-1.3373;-1.31891;-1.12476;-1.31901;-1.30744;0.320179;-0.491152;-0.323207;-0.823284;-0.971762;-0.563106;0;0;0;0;0;0;0;0;0;0;1000;228;1024;1024;1024;930;1024;1024;1024;1;3;0;1300;15;9;0;0;0;0;0;0;0; 
1005;1008;2019/07/17 13:12:35;0;-1;-1;-1;461.583;398.667;100;0;0;0;0;0;0;0;0;0;0;0;0;0;0;679;343.6;11.5665;676.414;343.802;0;56;1;-1.10393;-1.344;-1.32114;-1.11851;-1.32651;-1.31155;0.343826;-0.464987;-0.293322;-0.397197;-0.535918;-0.118645;0;0;0;0;0;0;0;0;0;0;1000;228;1024;1024;1024;930;1024;1024;1024;1;3;0;1300;15;9;0;0;0;0;0;0;0; 
1006;1009;2019/07/17 13:12:35;0;-1;-1;-1;461.583;398.667;100;0;0;0;0;0;0;0;0;0;0;0;0;0;0;676.25;343.75;11.6176;673.795;344.249;0;57;1;-1.08726;-1.33863;-1.31498;-1.10914;-1.33014;-1.31258;0.380042;-0.430052;-0.250835;0.204637;0.0578419;0.504364;0;0;0;0;0;0;0;0;0;0;1000;228;1024;1024;1024;930;1024;1024;1024;1;3;0;1300;15;9;0;0;0;0;0;0;0; 
1007;1010;2019/07/17 13:12:35;0;-1;-1;-1;461.583;398.667;100;0;0;0;0;0;0;0;0;0;0;0;0;0;0;674.571;344;11.5475;671.472;344.633;0;58;1;-1.08661;-1.34768;-1.3224;-1.10238;-1.3354;-1.31552;0.38176;-0.419715;-0.244102;0.5213;0.436176;0.835776;0;0;0;0;0;0;0;0;0;0;1000;228;1024;1024;1024;930;1024;1024;1024;1;3;0;1300;15;9;0;0;0;0;0;0;0; 
1008;1011;2019/07/17 13:12:35;0;-1;-1;-1;461.583;398.667;100;0;0;0;0;0;0;0;0;0;0;0;0;0;0;672.25;344.25;11.551;669.161;344.97;0;59;1;-1.07625;-1.34819;-1.32143;-1.09454;-1.33924;-1.3173;0.406858;-0.383854;-0.211882;0.824581;0.831116;1.15075;0;0;0;0;0;0;0;0;0;0;1000;228;1024;1024;1024;930;1024;1024;1024;1;3;0;1300;15;9;0;0;0;0;0;0;0; 
1009;1012;2019/07/17 13:12:35;0;-1;-1;-1;461.583;398.667;100;0;0;0;0;0;0;0;0;0;0;0;0;0;0;669;345;11.5172;666.562;345.434;0;60;1;-1.06533;-1.3549;-1.32358;-1.08578;-1.34393;-1.31918;0.42316;-0.36113;-0.193619;0.9776;1.08182;1.29298;0;0;0;0;0;0;0;0;0;0;1000;228;1024;1024;1024;930;1024;1024;1024;1;3;0;1300;15;9;0;0;0;0;0;0;0; 
1010;1013;2019/07/17 13:12:35;0;-1;-1;-1;461.583;398.667;100;0;0;0;0;0;0;0;0;0;0;0;0;0;0;668.25;345.75;11.5043;664.549;345.99;0;61;1;-1.06327;-1.35918;-1.32335;-1.07902;-1.34851;-1.32043;0.436524;-0.334459;-0.168037;1.05109;1.27472;1.39534;0;0;0;0;0;0;0;0;0;0;1000;228;1024;1024;1024;930;1024;1024;1024;1;3;0;1300;15;9;0;0;0;0;0;0;0; 
1011;1014;2019/07/17 13:12:35;0;-1;-1;-1;461.583;398.667;100;0;0;0;0;0;0;0;0;0;0;0;0;0;0;666;347;11.5153;662.485;346.771;0;62;1;-1.0525;-1.36248;-1.31922;-1.07107;-1.3527;-1.32007;0.451358;-0.305256;-0.134833;1.05999;1.40259;1.47;0;0;0;0;0;0;0;0;0;0;1000;228;1024;1024;1024;930;1024;1024;1024;1;3;0;1300;15;9;0;0;0;0;0;0;0; 
1012;1015;2019/07/17 13:12:35;0;-1;-1;-1;461.583;398.667;100;0;0;0;0;0;0;0;0;0;0;0;0;0;0;664.667;347.778;11.4724;660.673;347.565;0;63;1;-1.05064;-1.37045;-1.32237;-1.06494;-1.35802;-1.32076;0.447289;-0.294473;-0.113559;0.904492;1.38288;1.4301;0;0;0;0;0;0;0;0;0;0;1000;228;1024;1024;1024;930;1024;1024;1024;1;3;0;1300;15;9;0;0;0;0;0;0;0; 
1013;1016;2019/07/17 13:12:35;0;-1;-1;-1;461.583;398.667;100;0;0;0;0;0;0;0;0;0;0;0;0;0;0;662;349;11.496;658.62;348.51;0;64;1;-1.03691;-1.37214;-1.31685;-1.05653;-1.36226;-1.31959;0.45144;-0.283906;-0.0843554;0.820906;1.37197;1.49588;0;0;0;0;0;0;0;0;0;0;1000;228;1024;1024;1024;930;1024;1024;1024;1;3;0;1300;15;9;0;0;0;0;0;0;0; 
1014;1017;2019/07/17 13:12:35;0;-1;-1;-1;461.583;398.667;100;0;0;0;0;0;0;0;0;0;0;0;0;0;0;661;349.6;11.4649;656.92;349.364;0;65;1;-1.03536;-1.37807;-1.31904;-1.05018;-1.367;-1.31942;0.447989;-0.281198;-0.0591092;0.656766;1.23306;1.5075;0;0;0;0;0;0;0;0;0;0;1000;228;1024;1024;1024;930;1024;1024;1024;1;3;0;1300;15;9;0;0;0;0;0;0;0; 
1015;1018;2019/07/17 13:12:35;0;-1;-1;-1;461.583;398.667;100;0;0;0;0;0;0;0;0;0;0;0;0;0;0;657.778;350.667;11.4627;654.768;350.302;0;66;1;-1.02154;-1.38228;-1.31684;-1.04159;-1.37159;-1.31865;0.44523;-0.279121;-0.0333413;0.482181;1.06727;1.54444;0;0;0;0;0;0;0;0;0;0;1000;228;1024;1024;1024;930;1024;1024;1024;1;3;0;1300;15;9;0;0;0;0;0;0;0; 
1016;1019;2019/07/17 13:12:35;0;-1;-1;-1;461.583;398.667;100;0;0;0;0;0;0;0;0;0;0;0;0;0;0;656;352;11.361;652.748;351.383;0;67;1;-1.02288;-1.39963;-1.32554;-1.03597;-1.38;-1.32072;0.439025;-0.293211;-0.0211447;0.299297;0.805052;1.51316;0;0;0;0;0;0;0;0;0;0;1000;228;1024;1024;1024;930;1024;1024;1024;1;3;0;1300;15;9;0;0;0;0;0;0;0; 
1017;1020;2019/07/17 13:12:35;0;-1;-1;-1;461.583;398.667;100;0;0;0;0;0;0;0;0;0;0;0;0;0;0;653.333;352.222;11.4715;650.538;352.215;0;68;1;-1.00143;-1.38697;-1.31227;-1.02561;-1.38209;-1.31818;0.444913;-0.293287;-0.00515278;0.153847;0.530821;1.42567;0;0;0;0;0;0;0;0;0;0;1000;1000;1024;1024;1024;930;1024;1024;1024;1;3;0;1300;15;9;0;0;0;0;0;0;0; 
1018;1021;2019/07/17 13:12:35;0;-1;-1;-1;461.583;398.667;101;0;0;0;0;0;0;0;0;0;0;0;0;0;0;651;353.6;11.2556;648.297;353.232;0;69;1;-1.01029;-1.41876;-1.3342;-1.02101;-1.39309;-1.32299;0.442331;-0.315995;-0.0119946;0.0725132;0.232563;1.26092;0;0;0;0;0;0;0;0;0;0;1000;1000;1024;1024;1024;930;1024;1024;1024;1;3;0;1300;15;9;0;0;0;0;0;0;0; 
1019;1022;2019/07/17 13:12:35;0;-1;-1;-1;461.583;398.667;102;0;0;0;0;0;0;0;0;0;0;0;0;0;0;648.667;354.222;11.3686;646.033;354.142;0;70;1;-0.990005;-1.40698;-1.3195;-1.01171;-1.39726;-1.32194;0.444346;-0.329346;-0.0166038;0.0151851;-0.0418878;1.02706;0;0;0;0;0;0;0;0;0;0;1000;1000;1024;1024;1024;930;1024;1024;1024;1;3;0;1300;15;9;0;0;0;0;0;0;0; 
1020;1023;2019/07/17 13:12:35;0;-1;-1;-1;461.583;398.667;103;0;0;0;0;0;0;0;0;0;0;0;0;0;0;645.6;355.2;11.3593;643.519;355.088;0;71;1;-0.977343;-1.41178;-1.31831;-1.0014;-1.40161;-1.32085;0.461367;-0.335804;-0.0156767;0.0625285;-0.24316;0.789651;0;0;0;0;0;0;0;0;0;0;1000;1000;1024;1024;1024;930;1024;1024;1024;1;3;0;1300;15;9;0;0;0;0;0;0;0; 
1021;1024;2019/07/17 13:12:35;0;-1;-1;-1;461.583;398.667;104;0;0;0;0;0;0;0;0;0;0;0;0;0;0;644;356;11.3225;641.289;356.002;0;72;1;-0.97347;-1.41936;-1.32074;-0.993021;-1.40694;-1.32082;0.470729;-0.342633;-0.0180691;0.139324;-0.39948;0.534768;0;0;0;0;0;0;0;0;0;0;1000;1000;1024;1024;1024;930;1024;1024;1024;1;3;0;1300;15;9;0;0;0;0;0;0;0; 
1022;1025;2019/07/17 13:12:35;0;-1;-1;-1;461.583;398.667;105;0;0;0;0;0;0;0;0;0;0;0;0;0;0;640.333;356.333;11.2764;638.609;356.744;0;73;1;-0.961223;-1.42641;-1.32536;-0.983482;-1.41278;-1.32218;0.492023;-0.336463;-0.0166825;0.295197;-0.41238;0.338677;0;0;0;0;0;0;0;0;0;0;1000;1000;1024;1024;1024;930;1024;1024;1024;1;3;0;1300;15;9;0;0;0;0;0;0;0; 
1023;1026;2019/07/17 13:12:35;0;-1;-1;-1;461.583;398.667;106;0;0;0;0;0;0;0;0;0;0;0;0;0;0;639;357;11.1957;636.344;357.466;0;74;1;-0.96221;-1.43922;-1.33334;-0.9771;-1.42071;-1.32553;0.488896;-0.356079;-0.0393448;0.352728;-0.498139;0.0666879;0;0;0;0;0;0;0;0;0;0;1000;1000;1024;1024;1024;930;1024;1024;1024;1;3;0;1300;15;9;0;0;0;0;0;0;0; 
1024;1027;2019/07/17 13:12:36;0;-1;-1;-1;461.583;398.667;107;0;0;0;0;0;0;0;0;0;0;0;0;0;0;636.667;357.778;11.1908;634.063;358.209;0;75;1;-0.952221;-1.44279;-1.33209;-0.969636;-1.42734;-1.3275;0.498466;-0.35037;-0.0416032;0.435765;-0.436134;-0.0782052;0;0;0;0;0;0;0;0;0;0;1000;1000;1024;1024;1024;930;1024;1024;1024;1;3;0;1300;15;9;0;0;0;0;0;0;0; 
1025;1028;2019/07/17 13:12:36;0;-1;-1;-1;461.583;398.667;108;0;0;0;0;0;0;0;0;0;0;0;0;0;0;633.667;358.333;11.2518;631.557;358.897;0;76;1;-0.933755;-1.43706;-1.32356;-0.958872;-1.43025;-1.32632;0.510047;-0.341956;-0.0424213;0.523783;-0.31203;-0.150005;0;0;0;0;0;0;0;0;0;0;1000;1000;1024;1024;1024;930;1024;1024;1024;1;3;0;1300;15;9;0;0;0;0;0;0;0; 
1026;1029;2019/07/17 13:12:36;0;-1;-1;-1;461.583;398.667;109;0;0;0;0;0;0;0;0;0;0;0;0;0;0;631.75;357.75;10.9731;629.234;359.181;0;77;1;-0.948756;-1.47131;-1.35858;-0.955837;-1.44257;-1.336;0.487946;-0.368693;-0.0859094;0.420392;-0.318533;-0.37042;0;0;0;0;0;0;0;0;0;0;1000;1000;1024;1024;1024;930;1024;1024;1024;1;3;0;1300;15;9;0;0;0;0;0;0;0; 
1027;1030;2019/07/17 13:12:36;0;-1;-1;-1;461.583;398.667;110;0;0;0;0;0;0;0;0;0;0;0;0;0;0;629;359;11.1706;626.777;359.758;0;78;1;-0.919695;-1.45003;-1.33161;-0.944994;-1.44481;-1.33468;0.484523;-0.372416;-0.106887;0.307313;-0.310035;-0.576876;0;0;0;0;0;0;0;0;0;0;1000;1000;1024;1024;1024;930;1024;1024;1024;1;3;0;1300;15;9;0;0;0;0;0;0;0; 
1028;1031;2019/07/17 13:12:36;0;-1;-1;-1;461.583;398.667;111;0;0;0;0;0;0;0;0;0;0;0;0;0;0;626.25;358.25;10.8996;624.224;359.908;0;79;1;-0.929973;-1.48317;-1.36653;-0.940488;-1.45632;-1.34424;0.462374;-0.397271;-0.152192;0.0660078;-0.428806;-0.887173;0;0;0;0;0;0;0;0;0;0;1000;1000;1024;1024;1024;930;1024;1024;1024;1;3;0;1300;15;9;0;0;0;0;0;0;0; 
1029;1032;2019/07/17 13:12:36;0;-1;-1;-1;461.583;398.667;112;0;0;0;0;0;0;0;0;0;0;0;0;0;0;623.333;359.333;10.9283;621.547;360.335;0;80;1;-0.914214;-1.48348;-1.36033;-0.932606;-1.46446;-1.34907;0.455077;-0.413047;-0.185287;-0.0954248;-0.484738;-1.11501;0;0;0;0;0;0;0;0;0;0;1000;1000;1024;1024;1024;930;1024;1024;1024;1;3;0;1300;15;9;0;0;0;0;0;0;0; 
1030;1033;2019/07/17 13:12:36;0;-1;-1;-1;461.583;398.667;113;0;0;0;0;0;0;0;0;0;0;0;0;0;0;622;359.429;10.8866;619.286;360.649;0;81;1;-0.911609;-1.48954;-1.36532;-0.926307;-1.47199;-1.35394;0.446048;-0.426105;-0.216761;-0.266542;-0.593231;-1.36835;0;0;0;0;0;0;0;0;0;0;1000;1000;1024;1024;1024;930;1024;1024;1024;1;3;0;1300;15;9;0;0;0;0;0;0;0; 
1031;1034;2019/07/17 13:12:36;0;-1;-1;-1;461.583;398.667;114;0;0;0;0;0;0;0;0;0;0;0;0;0;0;619;360;10.8177;616.796;361.032;0;82;1;-0.903573;-1.50126;-1.37262;-0.919486;-1.48077;-1.35954;0.424883;-0.457355;-0.262726;-0.49996;-0.816689;-1.70062;0;0;0;0;0;0;0;0;0;0;1000;1000;1024;1024;1024;930;1024;1024;1024;1;3;0;1300;15;9;0;0;0;0;0;0;0; 
1032;1035;2019/07/17 13:12:36;0;-1;-1;-1;461.583;398.667;115;0;0;0;0;0;0;0;0;0;0;0;0;0;0;617.429;360;10.705;614.595;361.284;0;83;1;-0.905757;-1.51705;-1.38706;-0.915368;-1.49165;-1.3678;0.416512;-0.470393;-0.284617;-0.58519;-0.896072;-1.81375;0;0;0;0;0;0;0;0;0;0;1000;1000;1024;1024;1024;930;1024;1024;1024;1;3;0;1300;15;9;0;0;0;0;0;0;0; 
1033;1036;2019/07/17 13:12:36;0;-1;-1;-1;461.583;398.667;116;0;0;0;0;0;0;0;0;0;0;0;0;0;0;615.667;359.667;10.7218;612.543;361.334;0;84;1;-0.896141;-1.51337;-1.38571;-0.9096;-1.49817;-1.37317;0.391228;-0.495286;-0.324464;-0.723613;-1.02822;-1.95697;0;0;0;0;0;0;0;0;0;0;1000;1000;1024;1024;1024;930;1024;1024;1024;1;3;0;1300;15;9;0;0;0;0;0;0;0; 
1034;1037;2019/07/17 13:12:36;0;-1;-1;-1;461.583;398.667;117;0;0;0;0;0;0;0;0;0;0;0;0;0;0;613.333;360.667;10.8352;610.416;361.665;0;85;1;-0.876019;-1.50144;-1.36878;-0.899526;-1.49915;-1.37186;0.398288;-0.468194;-0.304959;-0.690044;-0.900109;-1.78413;0;0;0;0;0;0;0;0;0;0;1000;1000;1024;1024;1024;930;1024;1024;1024;1;3;0;1300;15;9;0;0;0;0;0;0;0; 
1035;1038;2019/07/17 13:12:36;0;-1;-1;-1;461.583;398.667;118;0;0;0;0;0;0;0;0;0;0;0;0;0;0;613.429;360;10.6031;609.009;361.669;0;86;1;-0.895645;-1.53165;-1.40041;-0.898361;-1.5089;-1.38042;0.3757;-0.458332;-0.308171;-0.730954;-0.720873;-1.56112;0;0;0;0;0;0;0;0;0;0;1000;1000;1024;1024;1024;930;1024;1024;1024;1;3;0;1300;15;9;0;0;0;0;0;0;0; 
1036;1039;2019/07/17 13:12:36;0;-1;-1;-1;461.583;398.667;119;0;0;0;0;0;0;0;0;0;0;0;0;0;0;612;359;10.5074;607.637;361.329;0;87;1;-0.897017;-1.54156;-1.41567;-0.897958;-1.5187;-1.391;0.338607;-0.461507;-0.332846;-0.867552;-0.573873;-1.40016;0;0;0;0;0;0;0;0;0;0;1000;1000;1024;1024;1024;930;1024;1024;1024;1;3;0;1300;15;9;0;0;0;0;0;0;0; 
1037;1040;2019/07/17 13:12:36;0;-1;-1;-1;461.583;398.667;120;0;0;0;0;0;0;0;0;0;0;0;0;0;0;610.4;358.8;10.5048;606.234;360.997;0;88;1;-0.889638;-1.54114;-1.41652;-0.895462;-1.52543;-1.39865;0.299088;-0.455232;-0.355854;-1.0228;-0.33585;-1.21193;0;0;0;0;0;0;0;0;0;0;1000;1000;1024;1024;1024;930;1024;1024;1024;1;3;0;1300;15;9;0;0;0;0;0;0;0; 
1038;1041;2019/07/17 13:12:36;0;-1;-1;-1;461.583;398.667;121;0;0;0;0;0;0;0;0;0;0;0;0;0;0;610;357.429;10.4615;605.189;360.298;0;89;1;-0.891413;-1.54196;-1.42584;-0.894247;-1.53039;-1.40681;0.263781;-0.427806;-0.369261;-1.2235;-0.0314682;-1.06512;0;0;0;0;0;0;0;0;0;0;1000;1000;1024;1024;1024;930;1024;1024;1024;1;3;0;1300;15;9;0;0;0;0;0;0;0; 
1039;1042;2019/07/17 13:12:36;0;-1;-1;-1;461.583;398.667;122;0;0;0;0;0;0;0;0;0;0;0;0;0;0;609;357;10.5;604.211;359.636;0;90;1;-0.883389;-1.53457;-1.42168;-0.89099;-1.53165;-1.41127;0.232572;-0.390354;-0.373663;-1.36757;0.400085;-0.835514;0;0;0;0;0;0;0;0;0;0;1000;1000;1024;1024;1024;930;1024;1024;1024;1;3;0;1300;15;9;0;0;0;0;0;0;0; 
1040;1043;2019/07/17 13:12:36;0;-1;-1;-1;461.583;398.667;123;0;0;0;0;0;0;0;0;0;0;0;0;0;0;608;356.571;10.4349;603.279;359.002;0;91;1;-0.884121;-1.54241;-1.43164;-0.888929;-1.53488;-1.41738;0.181851;-0.376858;-0.405962;-1.68472;0.604733;-0.90459;0;0;0;0;0;0;0;0;0;0;1000;1000;1024;1024;1024;930;1024;1024;1024;1;3;0;1300;15;9;0;0;0;0;0;0;0; 
1041;1044;2019/07/17 13:12:36;0;-1;-1;-1;461.583;398.667;124;0;0;0;0;0;0;0;0;0;0;0;0;0;0;606.25;355.75;10.4837;602.139;358.266;0;92;1;-0.871669;-1.5319;-1.42703;-0.883751;-1.53398;-1.42027;0.167445;-0.326271;-0.402701;-1.84234;0.890121;-0.92019;0;0;0;0;0;0;0;0;0;0;1000;1000;1024;1024;1024;930;1024;1024;1024;1;3;0;1300;15;9;0;0;0;0;0;0;0; 
1042;1045;2019/07/17 13:12:36;0;-1;-1;-1;461.583;398.667;125;0;0;0;0;0;0;0;0;0;0;0;0;0;0;605.667;354.333;10.3386;601.218;357.267;0;93;1;-0.881088;-1.5476;-1.45067;-0.882952;-1.53807;-1.42939;0.160382;-0.273098;-0.394931;-1.81701;1.28634;-0.800007;0;0;0;0;0;0;0;0;0;0;1000;1000;1024;1024;1024;930;1024;1024;1024;1;3;0;1300;15;9;0;0;0;0;0;0;0; 
1043;1046;2019/07/17 13:12:36;0;-1;-1;-1;461.583;398.667;126;0;0;0;0;0;0;0;0;0;0;0;0;0;0;603.429;354;10.3404;599.925;356.426;0;94;1;-0.87014;-1.54597;-1.45127;-0.879108;-1.54044;-1.43596;0.161524;-0.223783;-0.385907;-1.63946;1.69591;-0.6;0;0;0;0;0;0;0;0;0;0;1000;1000;1024;1024;1024;930;1024;1024;1024;1;3;0;1300;15;9;0;0;0;0;0;0;0; 
1044;1047;2019/07/17 13:12:36;0;-1;-1;-1;461.583;398.667;127;0;0;0;0;0;0;0;0;0;0;0;0;0;0;602.571;352;10.3421;598.803;355.17;0;95;1;-0.865856;-1.53752;-1.45613;-0.875133;-1.53956;-1.44201;0.173233;-0.170889;-0.372087;-1.3452;2.04334;-0.371284;0;0;0;0;0;0;0;0;0;0;1000;1000;1024;1024;1024;930;1024;1024;1024;1;3;0;1300;15;9;0;0;0;0;0;0;0; 
1045;1048;2019/07/17 13:12:36;0;-1;-1;-1;461.583;398.667;128;0;0;0;0;0;0;0;0;0;0;0;0;0;0;600;351.429;10.2694;597.255;354.07;0;96;1;-0.859495;-1.54605;-1.46791;-0.870441;-1.54151;-1.44978;0.185984;-0.141911;-0.377004;-0.993135;2.21796;-0.236109;0;0;0;0;0;0;0;0;0;0;1000;1000;1024;1024;1024;930;1024;1024;1024;1;3;0;1300;15;9;0;0;0;0;0;0;0; 
1046;1049;2019/07/17 13:12:36;0;-1;-1;-1;461.583;398.667;129;0;0;0;0;0;0;0;0;0;0;0;0;0;0;598.25;350.25;10.1892;595.659;352.894;0;97;1;-0.857692;-1.55332;-1.48252;-0.866617;-1.54505;-1.4596;0.200678;-0.125777;-0.394769;-0.520713;2.33326;-0.0969731;0;0;0;0;0;0;0;0;0;0;1000;1000;1024;1024;1024;930;1024;1024;1024;1;3;0;1300;15;9;0;0;0;0;0;0;0; 
1047;1050;2019/07/17 13:12:36;0;-1;-1;-1;461.583;398.667;130;0;0;0;0;0;0;0;0;0;0;0;0;0;0;598;349.429;10.1274;594.506;351.777;0;98;1;-0.861691;-1.55936;-1.49369;-0.865139;-1.54934;-1.46983;0.194719;-0.136796;-0.434713;-0.203528;2.15647;-0.185997;0;0;0;0;0;0;0;0;0;0;1000;1000;1024;1024;1024;930;1024;1024;1024;1;3;0;1300;15;9;0;0;0;0;0;0;0; 
1048;1051;2019/07/17 13:12:36;0;-1;-1;-1;461.583;398.667;131;0;0;0;0;0;0;0;0;0;0;0;0;0;0;595.6;349.2;9.97843;592.988;350.896;0;99;1;-0.862553;-1.58167;-1.5166;-0.864363;-1.55904;-1.48386;0.191051;-0.165819;-0.478295;0.000335857;1.72222;-0.444441;0;0;0;0;0;0;0;0;0;0;1000;1000;1024;1024;1024;930;1024;1024;1024;1;3;0;1300;15;9;0;0;0;0;0;0;0; 
1049;1052;2019/07/17 13:12:36;0;-1;-1;-1;-1;-1;132;0;0;0;0;0;0;0;0;0;0;0;0;0;0;595;348;10.1173;591.779;349.877;0;100;1;-0.847757;-1.55494;-1.49891;-0.859381;-1.55781;-1.48837;0.193395;-0.168848;-0.496263;0.127451;1.25267;-0.707279;0;0;0;0;0;0;0;0;0;0;1000;1000;1024;1024;1024;930;1024;1024;1024;1;3;0;1300;15;9;0;0;0;0;0;0;0; 
1050;1053;2019/07/17 13:12:36;0;-1;-1;-1;-1;-1;133;0;0;0;0;0;0;0;0;0;0;0;0;0;0;592.8;348.4;10.0309;590.281;349.27;0;101;1;-0.844112;-1.57001;-1.51076;-0.8548;-1.56147;-1.49509;0.197217;-0.188785;-0.509704;0.17223;0.680149;-0.973826;0;0;0;0;0;0;0;0;0;0;1000;1000;1024;1024;1024;930;1024;1024;1024;1;3;0;1300;15;9;0;0;0;0;0;0;0; 
1051;1054;2019/07/17 13:12:36;0;-1;-1;-1;-1;-1;134;0;0;0;0;0;0;0;0;0;0;0;0;0;0;591.429;348;9.96021;588.838;348.709;0;102;1;-0.843232;-1.57946;-1.52255;-0.85133;-1.56687;-1.50333;0.194637;-0.214518;-0.519631;0.137887;0.11819;-1.15376;0;0;0;0;0;0;0;0;0;0;1000;1000;1024;1024;1024;930;1024;1024;1024;1;3;0;1300;15;9;0;0;0;0;0;0;0; 
1052;1055;2019/07/17 13:12:36;0;-1;-1;-1;-1;-1;135;0;0;0;0;0;0;0;0;0;0;0;0;0;0;589;349;9.99906;587.096;348.628;0;103;1;-0.827837;-1.57756;-1.514;-0.844282;-1.57007;-1.50653;0.205958;-0.228613;-0.499152;0.103814;-0.339676;-1.10903;0;0;0;0;0;0;0;0;0;0;1000;1000;1024;1024;1024;930;1024;1024;1024;1;3;0;1300;15;9;0;0;0;0;0;0;0; 
1053;1056;2019/07/17 13:12:36;0;-1;-1;-1;-1;-1;136;0;0;0;0;0;0;0;0;0;0;0;0;0;0;587;349;9.87294;585.274;348.577;0;104;1;-0.828304;-1.59771;-1.53334;-0.839489;-1.57836;-1.51457;0.22599;-0.253035;-0.478135;0.187141;-0.66791;-0.838788;0;0;0;0;0;0;0;0;0;0;1000;1000;1024;1024;1024;930;1024;1024;1024;1;3;0;1300;15;9;0;0;0;0;0;0;0; 
1054;1057;2019/07/17 13:12:36;0;-1;-1;-1;-1;-1;137;0;0;0;0;0;0;0;0;0;0;0;0;0;0;585.6;349.2;9.97609;583.586;348.611;0;105;1;-0.812736;-1.58204;-1.51695;-0.831463;-1.57947;-1.51529;0.266956;-0.233371;-0.412357;0.41535;-0.67046;-0.240004;0;0;0;0;0;0;0;0;0;0;1000;1000;1024;1024;1024;930;1024;1024;1024;1;3;0;1300;15;9;0;0;0;0;0;0;0; 
1055;1058;2019/07/17 13:12:36;0;-1;-1;-1;-1;-1;138;0;0;0;0;0;0;0;0;0;0;0;0;0;0;584;351;9.99067;581.93;349.217;0;106;1;-0.803559;-1.58736;-1.50999;-0.823092;-1.58184;-1.5137;0.305068;-0.23595;-0.348518;0.695088;-0.670192;0.445896;0;0;0;0;0;0;0;0;0;0;1000;1000;1024;1024;1024;930;1024;1024;1024;1;3;0;1300;15;9;0;0;0;0;0;0;0; 
1056;1059;2019/07/17 13:12:36;0;-1;-1;-1;-1;-1;139;0;0;0;0;0;0;0;0;0;0;0;0;0;0;582;351;10.0619;580.17;349.663;0;107;1;-0.787955;-1.57613;-1.49931;-0.812551;-1.58012;-1.50938;0.351732;-0.216048;-0.266159;1.03398;-0.510968;1.23994;0;0;0;0;0;0;0;0;0;0;1000;1000;1024;1024;1024;930;1024;1024;1024;1;3;0;1300;15;9;0;0;0;0;0;0;0; 
1057;1060;2019/07/17 13:12:36;0;462.256;381.763;8.60968;462.256;382.05;0;1;1;-0.226847;-1.99336;-1.65801;-0.226847;-1.99336;-1.65801;0;0;0;0;0;0;580;352;9.91303;578.335;350.311;0;108;1;-0.789717;-1.60407;-1.51916;-0.805701;-1.58731;-1.51231;0.393223;-0.211246;-0.195569;1.41328;-0.293516;2.03784;1;-0.226847;-1.99336;-1.5;0;0;0;-4.31009;-41.2546;-4.31009;1000;1000;1024;1024;1024;930;1024;1024;1024;1;3;0;1300;15;9;17.6989;0;0;0;-0.453694;-2.59137;-2.55; 
1058;1061;2019/07/17 13:12:36;0;462.077;380.872;8.66267;462.239;382.23;0;2;1;-0.224429;-1.97681;-1.65057;-0.226122;-1.98839;-1.65578;0;0;0;0;0;0;577;353;9.99492;576.125;351.103;0;109;1;-0.76827;-1.59517;-1.50407;-0.794471;-1.58967;-1.50984;0.434813;-0.204973;-0.130568;1.76172;-0.0817246;2.69435;1;-0.226122;-1.98839;-1.5;0;0;0;-4.29631;-41.1518;-4.29631;1000;1000;1024;1024;1024;930;1024;1024;1024;1;3;0;1300;15;9;0.0166965;0;0;0;-0.452243;-2.58491;-2.55; 
1059;1062;2019/07/17 13:12:36;0;461.885;380.173;8.66788;462.182;382.187;0;3;1;-0.223188;-1.97221;-1.65171;-0.225242;-1.98354;-1.65456;0;0;0;0;0;0;576;353;9.97803;574.283;351.681;0;110;1;-0.764569;-1.59787;-1.50662;-0.785501;-1.59213;-1.50887;0.476444;-0.17793;-0.0555982;2.05702;0.250833;3.30367;1;-0.225242;-1.98354;-1.5;0;0;0;-4.27959;-41.0513;-4.27959;1000;1000;1024;1024;1024;930;1024;1024;1024;1;3;0;1300;15;9;0.0166978;0;0;0;-0.450484;-2.5786;-2.55; 
1060;1063;2019/07/17 13:12:36;0;461.931;379.827;8.67241;462.13;381.983;0;4;1;-0.223336;-1.96949;-1.6519;-0.22467;-1.97932;-1.65376;0;0;0;0;0;0;574;354;9.94945;572.389;352.419;0;111;1;-0.756734;-1.60671;-1.5083;-0.776871;-1.5965;-1.5087;0.503836;-0.174779;-0.0070713;2.18;0.384441;3.60038;1;-0.22467;-1.97932;-1.5;0;0;0;-4.26873;-40.9641;-4.26873;1000;1000;1024;1024;1024;930;1024;1024;1024;1;3;0;1300;15;9;0.0166965;0;0;0;-0.44934;-2.57312;-2.55; 
1061;1064;2019/07/17 13:12:36;0;461.9;378.85;8.66599;462.075;381.525;0;5;1;-0.223325;-1.96617;-1.65609;-0.224267;-1.97538;-1.65446;0;0;0;0;0;0;573;355;9.84832;570.776;353.273;0;112;1;-0.759438;-1.62752;-1.52111;-0.771641;-1.60581;-1.51242;0.507727;-0.200576;0.000840532;2.11716;0.371902;3.55511;1;-0.224267;-1.97538;-1.5;0;0;0;-4.26106;-40.8824;-4.26106;1000;1000;1024;1024;1024;930;1024;1024;1024;1;3;0;1300;15;9;0.0166978;0;0;0;-0.448533;-2.56799;-2.55; 
1062;1065;2019/07/17 13:12:36;0;461.641;378.35;8.66569;461.964;380.997;0;6;1;-0.221841;-1.96379;-1.65767;-0.223539;-1.9719;-1.65542;0;0;0;0;0;0;571;355;9.96452;569.048;353.891;0;113;1;-0.740567;-1.60854;-1.50337;-0.762319;-1.60663;-1.50971;0.505196;-0.226157;-0.000806969;1.88303;0.182777;3.19254;1;-0.223539;-1.9719;-1.5;0;0;0;-4.24724;-40.8105;-4.24724;1000;1000;1024;1024;1024;930;1024;1024;1024;1;3;0;1300;15;9;0.0166965;0;0;0;-0.447078;-2.56347;-2.55; 
1063;1066;2019/07/17 13:12:36;0;461.931;377.827;8.69128;461.954;380.431;0;7;1;-0.222851;-1.95546;-1.65438;-0.223333;-1.96697;-1.65511;0;0;0;0;0;0;569;357;9.90921;567.237;354.973;0;114;1;-0.734629;-1.62607;-1.50644;-0.754012;-1.61246;-1.50873;0.509494;-0.236111;0.0138272;1.59405;0.0103896;2.75158;1;-0.223333;-1.96697;-1.5;0;0;0;-4.24332;-40.7084;-4.24332;1000;1000;1024;1024;1024;930;1024;1024;1024;1;3;0;1300;15;9;0.0166978;0;0;0;-0.446665;-2.55706;-2.55; 
1064;1067;2019/07/17 13:12:36;0;461.822;377.689;8.67787;461.917;379.952;0;8;1;-0.222572;-1.95781;-1.65735;-0.223104;-1.96422;-1.65578;0.0330951;0.254582;0.0173342;0.13214;1.01648;0.0692112;567;357;9.88744;565.364;355.754;0;115;1;-0.726153;-1.62965;-1.50976;-0.745654;-1.61761;-1.50904;0.500608;-0.253259;0.0115038;1.21913;-0.186557;2.2182;1;-0.223104;-1.96422;-1.5;0;0;0;-3.92458;-36.5985;-3.92458;1000;1000;1024;1024;1024;930;1024;1024;1024;1;3;0;1300;15;9;0.0166965;0;0;0;-0.446209;-2.55349;-2.55; 
1065;1068;2019/07/17 13:12:36;0;461.567;376.775;8.77628;461.818;379.332;0;9;1;-0.218623;-1.93144;-1.64151;-0.22176;-1.95439;-1.6515;0.0337589;0.269144;0.0225997;0.214075;1.68451;0.131762;564.667;357.333;9.90832;563.341;356.42;0;116;1;-0.712872;-1.62764;-1.50569;-0.73582;-1.62062;-1.50803;0.498726;-0.265731;0.0102607;0.820445;-0.462496;1.59387;1;-0.22176;-1.95439;-1.5;0;0;0;-3.89273;-36.1632;-3.89273;1000;1000;1024;1024;1024;930;1024;1024;1024;1;3;0;1300;15;9;0.0166978;0;0;0;-0.44352;-2.5407;-2.55; 
1066;1069;2019/07/17 13:12:36;0;461.212;376.234;8.75914;461.645;378.712;0;10;1;-0.217031;-1.9326;-1.64635;-0.220341;-1.94785;-1.64996;0.0375393;0.287142;0.0287405;0.27833;2.15719;0.193811;563;357;9.93747;561.423;356.789;0;117;1;-0.702411;-1.62144;-1.50216;-0.725797;-1.62087;-1.50627;0.503157;-0.256722;0.0158614;0.489559;-0.604672;1.04789;1;-0.220341;-1.94785;-1.5;0;0;0;-3.82986;-35.7414;-3.82986;1000;1000;1024;1024;1024;930;1024;1024;1024;1;3;0;1300;15;9;0.0166965;0;0;0;-0.440683;-2.53221;-2.55; 
1067;1070;2019/07/17 13:12:36;0;461.224;375.872;8.81294;461.52;378.143;0;11;1;-0.215772;-1.91907;-1.63738;-0.218971;-1.93922;-1.64618;0.0436693;0.316663;0.0502792;0.341359;2.55867;0.317039;560;357;9.95974;559.154;357.049;0;118;1;-0.685811;-1.61782;-1.4988;-0.713801;-1.61995;-1.50403;0.532831;-0.210514;0.043033;0.393968;-0.402485;0.797194;1;-0.218971;-1.93922;-1.5;0;0;0;-3.74558;-35.0927;-3.74558;1000;1000;1024;1024;1024;930;1024;1024;1024;1;3;0;1300;15;9;0.0166978;0;0;0;-0.437941;-2.52098;-2.55; 
1068;1071;2019/07/17 13:12:36;0;461.162;375.559;8.72458;461.41;377.627;0;12;1;-0.217605;-1.93698;-1.65492;-0.218561;-1.93855;-1.6488;0.0460778;0.323182;0.0565911;0.388792;2.82558;0.416177;557;357;9.84257;556.633;357.228;0;119;1;-0.678765;-1.63708;-1.51664;-0.70329;-1.62509;-1.50781;0.555381;-0.200029;0.0333862;0.436754;-0.137169;0.614839;1;-0.218561;-1.93855;-1.5;0;0;0;-3.71492;-34.9751;-3.71492;1000;1000;1024;1024;1024;930;1024;1024;1024;1;3;0;1300;15;9;0.0166968;0;0;0;-0.437122;-2.52011;-2.55; 
1069;1072;2019/07/17 13:12:36;0;461.025;374.475;8.81401;461.289;376.927;0;13;1;-0.214621;-1.91212;-1.64136;-0.217379;-1.93062;-1.64657;0.051419;0.339052;0.0680358;0.438578;3.0491;0.521356;555.333;355.333;9.84032;554.354;356.818;0;120;1;-0.670469;-1.63027;-1.52145;-0.693444;-1.62664;-1.5119;0.575058;-0.176662;0.00734817;0.523828;0.155061;0.343035;1;-0.217379;-1.93062;-1.5;0;0;0;-3.64172;-34.5584;-3.64172;1000;1000;1024;1024;1024;930;1024;1024;1024;1;3;0;1300;15;9;0.0166975;0;0;0;-0.434758;-2.5098;-2.55; 
1070;1073;2019/07/17 13:12:36;0;461.167;373.944;8.9321;461.242;376.251;0;14;1;-0.212575;-1.88432;-1.62123;-0.215938;-1.91673;-1.63897;0.059467;0.393052;0.107946;0.368443;2.38233;0.674602;553.6;354.8;9.90126;552.231;356.343;0;121;1;-0.657607;-1.61796;-1.51351;-0.682693;-1.62404;-1.51239;0.59642;-0.131646;-0.00896049;0.696845;0.578599;0.124113;1;-0.215938;-1.91673;-1.5;0;0;0;-3.53788;-33.4112;-3.53788;1000;1000;1024;1024;1024;930;1024;1024;1024;1;3;0;1300;15;9;0.0166968;0;0;0;-0.431875;-2.49175;-2.55; 
1071;1074;2019/07/17 13:12:36;0;460.974;373.86;8.85649;461.151;375.722;0;15;1;-0.213302;-1.9;-1.63532;-0.215147;-1.91171;-1.63788;0.0620847;0.406226;0.119169;0.334164;1.97674;0.790338;551;355;9.97661;549.945;356.054;0;122;1;-0.639636;-1.60659;-1.50155;-0.669776;-1.6188;-1.50913;0.621545;-0.0717274;-0.00977423;0.908483;1.12176;-0.00552564;1;-0.215147;-1.91171;-1.5;0;0;0;-3.49799;-33.0976;-3.49799;1000;1000;1024;1024;1024;930;1024;1024;1024;1;3;0;1300;15;9;0.0166975;0;0;0;-0.430294;-2.48522;-2.55; 
1072;1075;2019/07/17 13:12:36;0;461;373.657;8.842;461.092;375.269;0;16;1;-0.2138;-1.90215;-1.63861;-0.214743;-1.90884;-1.6381;0.0596038;0.399491;0.118861;0.288596;1.63462;0.83403;549.429;352;9.80289;547.87;354.882;0;123;1;-0.642972;-1.62209;-1.53623;-0.661735;-1.61979;-1.51726;0.628708;-0.0387337;-0.0497509;1.04637;1.54341;-0.265285;1;-0.214743;-1.90884;-1.5;0;0;0;-3.51388;-33.1455;-3.51388;1000;1000;1024;1024;1024;930;1024;1024;1024;1;3;0;1300;15;9;0.0166968;0;0;0;-0.429486;-2.48149;-2.55; 
1073;1076;2019/07/17 13:12:36;0;461.023;372.939;9.02467;461.056;374.717;0;17;1;-0.209602;-1.86027;-1.60754;-0.213201;-1.89427;-1.62893;0.0587996;0.419149;0.14022;0.233569;1.38997;0.859529;547;351;9.87412;545.675;353.709;0;124;1;-0.626061;-1.6061;-1.52781;-0.651033;-1.61568;-1.52043;0.627841;-0.00619253;-0.0953236;1.00717;1.74184;-0.711587;1;-0.213201;-1.89427;-1.5;0;0;0;-3.49222;-32.531;-3.49222;1000;1000;1024;1024;1024;930;1024;1024;1024;1;3;0;1300;15;9;0.0166975;0;0;0;-0.426401;-2.46255;-2.55; 
1074;1077;2019/07/17 13:12:36;0;460.776;372.128;8.96073;460.957;374.064;0;18;1;-0.209721;-1.86971;-1.62139;-0.212157;-1.8869;-1.62667;0.0608493;0.457682;0.172517;0.19912;1.37101;0.978579;545;350;9.98847;543.53;352.537;0;125;1;-0.608902;-1.58347;-1.51296;-0.638393;-1.60602;-1.51819;0.635819;0.0724263;-0.0986175;0.925466;2.13294;-0.954003;1;-0.212157;-1.8869;-1.5;0;0;0;-3.45291;-31.7651;-3.45291;1000;1000;1024;1024;1024;930;1024;1024;1024;1;3;0;1300;15;9;0.0166968;0;0;0;-0.424314;-2.45297;-2.55; 
1075;1078;2019/07/17 13:12:36;0;460.86;372;8.97901;460.909;373.543;0;19;1;-0.209758;-1.8653;-1.61847;-0.211437;-1.88042;-1.62421;0.0602329;0.475021;0.192805;0.154664;1.3655;1.08532;543.667;347.667;9.9884;541.635;350.942;0;126;1;-0.602245;-1.57358;-1.51913;-0.627549;-1.59629;-1.51847;0.644591;0.16466;-0.0853829;0.832904;2.64256;-0.942649;1;-0.211437;-1.88042;-1.5;0;0;0;-3.44509;-31.3549;-3.44509;1000;1000;1024;1024;1024;930;1024;1024;1024;1;3;0;1300;15;9;0.0166975;0;0;0;-0.422874;-2.44455;-2.55; 
1076;1079;2019/07/17 13:12:36;0;460.838;371.721;8.95377;460.868;373.073;0;20;1;-0.210227;-1.86924;-1.62385;-0.211074;-1.87707;-1.6241;0.0555575;0.443369;0.175048;0.0771886;1.0202;0.919115;542.333;345.667;9.91507;539.921;349.151;0;127;1;-0.599989;-1.57668;-1.53568;-0.619281;-1.5904;-1.52363;0.63994;0.233086;-0.0961386;0.673504;3.0418;-0.913665;1;-0.211074;-1.87707;-1.5;0;0;0;-3.48261;-31.7894;-3.48261;1000;1000;1024;1024;1024;930;1024;1024;1024;1;3;0;1300;15;9;0.0166968;0;0;0;-0.422149;-2.44019;-2.55; 
1077;1080;2019/07/17 13:12:36;0;460.657;371.521;9.00888;460.784;372.666;0;21;1;-0.207942;-1.85687;-1.6145;-0.210134;-1.87101;-1.62122;0.0533478;0.428539;0.171521;0.0114291;0.701211;0.760498;540.333;343.667;9.94703;538.125;347.219;0;128;1;-0.588028;-1.56309;-1.53605;-0.609905;-1.58221;-1.52736;0.623009;0.285954;-0.130444;0.409948;3.25319;-1.03;1;-0.210134;-1.87101;-1.5;0;0;0;-3.48575;-31.9;-3.48575;1000;1000;1024;1024;1024;930;1024;1024;1024;1;3;0;1300;15;9;0.0166978;0;0;0;-0.420269;-2.43231;-2.55; 
1078;1081;2019/07/17 13:12:36;0;460.422;370.338;8.93811;460.652;372.004;0;22;1;-0.208274;-1.86596;-1.63078;-0.209576;-1.86949;-1.62409;0.0526376;0.414239;0.158837;-0.0209567;0.479611;0.615914;539.667;341.667;10.002;536.696;345.19;0;129;1;-0.581469;-1.54602;-1.53287;-0.601374;-1.57135;-1.52901;0.614806;0.364958;-0.125184;0.190461;3.56373;-0.919179;1;-0.0715197;-0.326988;0.00162601;-0.138057;-1.5425;-1.62571;-6.69947;-0.172676;-6.69947;1000;1065;816;1147;1024;930;1024;1024;1024;1;3;0;1300;15;9;0.0166965;0;0;0;-0.143039;-0.425085;0.00276423; 
1079;1082;2019/07/17 13:12:36;0;460.314;370.078;9.02764;460.523;371.439;0;23;1;-0.20561;-1.84624;-1.61536;-0.208387;-1.86252;-1.62147;0.0508045;0.375336;0.125078;-0.0444966;0.112834;0.30909;538.571;338;9.93586;535.394;342.561;0;130;1;-0.579841;-1.54068;-1.55281;-0.594914;-1.56215;-1.53615;0.592946;0.432698;-0.137893;-0.0250497;3.89059;-0.721476;1;0.371454;-0.321831;-0.0686613;-0.579841;-1.54068;-1.55281;6.28597;-0.685268;6.28597;1000;1066;1210;1072;1024;930;1024;1024;1024;1;3;0;1300;15;9;0.0166978;0;0;0;0.742908;-0.41838;-0.116724; 
1080;1083;2019/07/17 13:12:36;0;460;369.714;9.0965;460.333;370.914;0;24;1;-0.202333;-1.83056;-1.60419;-0.20657;-1.85293;-1.61629;0.0527881;0.36085;0.1165;-0.058884;-0.318926;-0.0382086;537;337;10.0178;534.032;340.351;0;131;1;-0.567271;-1.52385;-1.54274;-0.586621;-1.55066;-1.53813;0.562478;0.480635;-0.162353;-0.307859;3.96421;-0.687364;1;0.3607;-0.329076;-0.0735455;-0.567271;-1.52385;-1.54274;6.33902;-1.06582;6.33902;1000;1077;1220;1063;1024;930;1024;1024;1024;1;3;0;1300;15;9;0.0166965;0;0;0;0.721401;-0.427799;-0.125027; 
1081;1084;2019/07/17 13:12:36;0;460;369.447;9.08116;460.195;370.447;0;25;1;-0.202675;-1.83241;-1.60767;-0.205402;-1.84677;-1.6137;0.0557711;0.350866;0.111846;-0.0531452;-0.687074;-0.346172;536;334.571;10.154;532.808;337.994;0;132;1;-0.554747;-1.49328;-1.52835;-0.577059;-1.53345;-1.53519;0.539077;0.539281;-0.164189;-0.605999;3.87427;-0.727064;1;0.349345;-0.353494;-0.0853523;-0.554747;-1.49328;-1.52835;6.09841;-1.73013;6.09841;1000;1087;1222;1042;1024;930;1024;1024;1024;1;3;0;1300;15;9;0.0166978;0;0;0;0.698691;-0.459543;-0.145099; 
1082;1085;2019/07/17 13:12:36;0;459.918;368.857;9.09228;460.071;369.925;0;26;1;-0.201979;-1.82742;-1.60742;-0.204375;-1.84097;-1.61182;0.0602119;0.35466;0.116156;-0.013303;-0.766435;-0.442846;536;331.429;10.0006;532.003;335.306;0;133;1;-0.563254;-1.50286;-1.56007;-0.572918;-1.52427;-1.54266;0.508561;0.587612;-0.174471;-0.888155;3.74008;-0.748997;1;0.35888;-0.338104;-0.0517452;-0.563254;-1.50286;-1.56007;6.77962;-1.3512;6.77962;1000;1094;1252;1070;1024;930;1024;1024;1024;1;3;0;1300;15;9;0.0166965;0;0;0;0.717759;-0.439535;-0.0879668; 
1083;1086;2019/07/17 13:12:36;0;459.469;368.122;9.09625;459.843;369.317;0;27;1;-0.199428;-1.8232;-1.60885;-0.202891;-1.83564;-1.61093;0.0650498;0.354022;0.110806;0.0387413;-0.757392;-0.50813;535;329;10.0738;531.179;332.61;0;134;1;-0.55421;-1.48174;-1.5551;-0.567305;-1.51151;-1.54639;0.475225;0.634847;-0.180669;-1.12295;3.63707;-0.649933;1;0.35132;-0.353902;-0.0558286;-0.55421;-1.48174;-1.5551;6.86102;-1.68832;6.86102;1000;1101;1263;1060;1024;930;1024;1024;1024;1;3;0;1300;15;9;0.0166978;0;0;0;0.702639;-0.460072;-0.0949086; 
1084;1087;2019/07/17 13:12:37;0;459.429;367.878;9.06102;459.665;368.8;0;28;1;-0.199978;-1.82914;-1.61581;-0.202017;-1.83369;-1.61239;0.0692125;0.355367;0.113185;0.089424;-0.689496;-0.487156;535.667;327.667;10.1234;530.873;330.26;0;135;1;-0.55478;-1.46889;-1.55095;-0.563548;-1.49873;-1.54776;0.436165;0.670895;-0.18324;-1.38703;3.40376;-0.621761;1;0.352763;-0.364797;-0.0614454;-0.55478;-1.46889;-1.55095;7.18361;-1.89239;7.18361;1000;1109;1282;1056;1024;930;1024;1024;1024;1;3;0;1300;15;9;0.0166965;0;0;0;0.705526;-0.474236;-0.104457; 
1085;1088;2019/07/17 13:12:37;0;459.149;367.702;9.1253;459.451;368.371;0;29;1;-0.19704;-1.81544;-1.60494;-0.200524;-1.82822;-1.61016;0.0729208;0.350173;0.113088;0.14196;-0.514166;-0.340164;535.429;324;9.98641;530.65;327.422;0;136;1;-0.561201;-1.47349;-1.5819;-0.562844;-1.49115;-1.558;0.389746;0.686017;-0.19718;-1.64353;3.05368;-0.609769;1;0.360677;-0.354727;-0.0282528;-0.561201;-1.47349;-1.5819;7.99382;-1.76668;7.99382;1000;1117;1316;1092;1024;930;1024;1024;1024;1;3;0;1300;15;9;0.0166978;0;0;0;0.721355;-0.461145;-0.0480298; 
1086;1089;2019/07/17 13:12:37;0;459.156;367.289;9.14212;459.299;367.933;0;30;1;-0.196714;-1.81019;-1.60318;-0.199381;-1.82281;-1.60806;0.0724582;0.330377;0.100688;0.163713;-0.430172;-0.267228;534.571;322;10.0642;530.289;324.764;0;137;1;-0.552612;-1.45367;-1.57491;-0.559774;-1.47991;-1.56307;0.34104;0.694108;-0.217905;-1.87026;2.68454;-0.587663;1;0.353231;-0.369133;-0.0331525;-0.552612;-1.45367;-1.57491;8.18057;-2.37997;8.18057;1000;1126;1329;1091;1024;930;1024;1024;1024;1;3;0;1300;15;9;0.0166965;0;0;0;0.706462;-0.479872;-0.0563592; 
1087;1090;2019/07/17 13:12:37;0;459.149;365.957;9.18358;459.188;367.202;0;31;1;-0.19579;-1.79587;-1.59976;-0.198304;-1.81473;-1.60557;0.0718155;0.326177;0.0928768;0.162289;-0.356678;-0.236077;535.778;318.667;10.082;530.483;321.815;0;138;1;-0.557607;-1.4371;-1.58085;-0.559124;-1.46707;-1.5684;0.276232;0.681504;-0.26334;-2.17162;2.17858;-0.748481;1;0.359304;-0.377626;-0.0247266;-0.557607;-1.4371;-1.58085;8.92953;-2.62261;8.92953;1000;1139;1360;1114;1024;930;1024;1024;1024;1;3;0;1300;15;9;0.0166978;0;0;0;0.718608;-0.490914;-0.0420353; 
1088;1091;2019/07/17 13:12:37;0;459.149;365.957;9.13376;459.111;366.674;0;32;1;-0.196858;-1.80567;-1.60849;-0.19787;-1.81201;-1.60645;0.0690616;0.311326;0.0771715;0.132708;-0.387031;-0.2973;537.2;316.4;9.97986;531.144;318.998;0;139;1;-0.570427;-1.44219;-1.60302;-0.562515;-1.4596;-1.57879;0.207273;0.667104;-0.30226;-2.50592;1.62453;-0.95931;1;0.372557;-0.36982;-0.00343001;-0.570427;-1.44219;-1.60302;9.85066;-2.69748;9.85066;1000;1152;1397;1139;1024;930;1024;1024;1024;1;3;0;1300;15;9;0.0166968;0;0;0;0.745115;-0.480766;-0.00583102; 
1089;1092;2019/07/17 13:12:37;0;458.889;365.422;9.16946;458.975;366.128;0;33;1;-0.194676;-1.79617;-1.60376;-0.196912;-1.80726;-1.60564;0.0653089;0.30011;0.0674023;0.0806593;-0.447473;-0.351679;537.75;313.75;10.1344;531.864;316.16;0;140;1;-0.564436;-1.40912;-1.58546;-0.563091;-1.44446;-1.58079;0.141189;0.667987;-0.318707;-2.83725;1.10704;-1.12673;1;0.367524;-0.39814;-0.0201795;-0.564436;-1.40912;-1.58546;10.1972;-3.46215;10.1972;1000;1166;1416;1132;1024;930;1024;1024;1024;1;3;0;1300;15;9;0.0166975;0;0;0;0.735048;-0.517582;-0.0343052; 
1090;1093;2019/07/17 13:12:37;0;458.93;364.419;9.21586;458.893;365.422;0;34;1;-0.19392;-1.78251;-1.59856;-0.196014;-1.79983;-1.60352;0.0631522;0.315246;0.0758789;0.0241986;-0.428674;-0.35996;540;310.571;10.0549;533.164;313.14;0;141;1;-0.580064;-1.40686;-1.60633;-0.568183;-1.43318;-1.58845;0.0662061;0.662498;-0.353706;-3.17948;0.630696;-1.35665;1;0.38405;-0.392969;0.00281179;-0.580064;-1.40686;-1.60633;11.3532;-3.11417;11.3532;1000;1177;1459;1169;1024;930;1024;1024;1024;1;3;0;1300;15;9;0.0166968;0;0;0;0.7681;-0.51086;0.00478004; 
1091;1094;2019/07/17 13:12:37;0;459;364;9.25667;458.857;364.783;0;35;1;-0.193441;-1.77273;-1.5927;-0.195242;-1.7917;-1.60027;0.0589793;0.334932;0.0849883;-0.0411458;-0.318058;-0.328173;540;308.571;10.0926;534.162;310.367;0;142;1;-0.577898;-1.39321;-1.60555;-0.571098;-1.42119;-1.59358;0.00676871;0.676846;-0.354291;-3.4368;0.341799;-1.44129;1;0.382656;-0.398489;0.00528193;-0.577898;-1.39321;-1.60555;11.8218;-2.91501;11.8218;1000;1181;1479;1178;1024;930;1024;1024;1024;1;3;0;1300;15;9;0.0166975;0;0;0;0.765312;-0.518036;0.00897927; 
1092;1095;2019/07/17 13:12:37;0;459.273;363.182;9.28496;458.921;364.069;0;36;1;-0.194318;-1.7636;-1.59017;-0.194965;-1.78327;-1.59724;0.0530197;0.358814;0.0941917;-0.1023;-0.0772916;-0.222843;542.25;305.75;10.0834;535.655;307.516;0;143;1;-0.589559;-1.38263;-1.61439;-0.576636;-1.40962;-1.59983;-0.0632629;0.68675;-0.359315;-3.67634;0.175702;-1.42938;1;0.394594;-0.400644;0.0171499;-0.589559;-1.38263;-1.61439;12.7019;-2.57941;12.7019;1000;1187;1511;1193;1024;930;1024;1024;1024;1;3;0;1300;15;9;0.0166968;0;0;0;0.789188;-0.520837;0.0291549; 
1093;1096;2019/07/17 13:12:37;0;459.234;362.213;9.30887;458.957;363.253;0;37;1;-0.193611;-1.75466;-1.58883;-0.194559;-1.77469;-1.59472;0.0467644;0.375156;0.0998452;-0.161403;0.149185;-0.105883;544;303.5;10.0389;537.342;304.792;0;144;1;-0.600874;-1.37927;-1.62747;-0.583908;-1.40052;-1.60812;-0.13691;0.677774;-0.37415;-3.85535;0.0905271;-1.30005;1;0.406316;-0.39542;0.0327457;-0.600874;-1.37927;-1.62747;13.6459;-2.21113;13.6459;1000;1192;1543;1210;1024;930;1024;1024;1024;1;3;0;1300;15;9;0.0166975;0;0;0;0.812631;-0.514046;0.0556677; 
1094;1097;2019/07/17 13:12:37;0;459.783;361.652;9.25986;459.16;362.493;0;38;1;-0.197592;-1.76138;-1.59884;-0.195469;-1.7707;-1.59596;0.0376463;0.390051;0.101795;-0.222275;0.403842;0.0347863;545;300.4;10.0733;538.927;301.892;0;145;1;-0.603773;-1.36151;-1.63001;-0.589867;-1.38881;-1.61469;-0.191355;0.689307;-0.367818;-3.90481;0.142966;-1.04179;1;0.408305;-0.409183;0.0340573;-0.603773;-1.36151;-1.63001;13.9892;-2.25884;13.9892;1000;1193;1553;1204;1024;930;1024;1024;1024;1;3;0;1300;15;9;0.0166968;0;0;0;0.816609;-0.531938;0.0578973; 
1095;1098;2019/07/17 13:12:37;0;460.222;360.4;9.24445;459.449;361.556;0;39;1;-0.200294;-1.75858;-1.60507;-0.196916;-1.76706;-1.59869;0.0225698;0.394524;0.0888273;-0.304012;0.619276;0.106416;546.667;298.667;10.0521;540.644;299.303;0;146;1;-0.613319;-1.35707;-1.63799;-0.596903;-1.37929;-1.62168;-0.249812;0.67377;-0.383942;-3.90403;0.10887;-0.885536;1;0.416402;-0.409986;0.0393007;-0.613319;-1.35707;-1.63799;14.5797;-2.20424;14.5797;1000;1196;1568;1205;1024;930;1024;1024;1024;1;3;0;1300;15;9;0.0166975;0;0;0;0.832805;-0.532981;0.0668112; 
1096;1099;2019/07/17 13:12:37;0;461.064;359.702;9.33267;459.927;360.666;0;40;1;-0.202901;-1.73879;-1.59187;-0.198712;-1.75858;-1.59665;0.00277185;0.401432;0.080731;-0.423491;0.715681;0.0832229;547.333;296.222;10.2238;542.134;296.715;0;147;1;-0.606277;-1.32416;-1.6168;-0.599715;-1.36275;-1.62021;-0.275784;0.685449;-0.357181;-3.70788;0.156961;-0.545198;1;0.407565;-0.434414;0.0201526;-0.606277;-1.32416;-1.6168;14.3611;-2.59984;14.3611;1000;1194;1552;1174;1024;930;1024;1024;1024;1;3;0;1300;15;9;0.0166968;0;0;0;0.81513;-0.564738;0.0342594; 
1097;1100;2019/07/17 13:12:37;0;461.391;358.217;9.32597;460.379;359.559;0;41;1;-0.204799;-1.73329;-1.59721;-0.200538;-1.75099;-1.59682;-0.019445;0.403137;0.0622178;-0.566701;0.701278;-0.0408317;548;293.429;10.0563;543.449;294.002;0;148;1;-0.619681;-1.33444;-1.65104;-0.605705;-1.35426;-1.62946;-0.303415;0.678051;-0.357329;-3.46114;0.0989813;-0.339228;1;0.419143;-0.416548;0.0542278;-0.619681;-1.33444;-1.65104;14.7527;-2.20295;14.7527;1000;1191;1552;1183;1024;930;1024;1024;1024;1;3;0;1300;15;9;0.0168647;0;0;0;0.838286;-0.541513;0.0921873; 
1098;1101;2019/07/17 13:12:37;0;462.714;357.143;9.33239;461.128;358.433;0;42;1;-0.211732;-1.72722;-1.59915;-0.203896;-1.74386;-1.59752;-0.0472671;0.39898;0.0362416;-0.739774;0.580871;-0.255494;549;292;10.118;544.752;291.67;0;149;1;-0.620834;-1.32032;-1.6447;-0.610243;-1.34408;-1.63403;-0.316009;0.668081;-0.35075;-3.08414;-0.0150265;-0.169398;1;0.416938;-0.423536;0.0471811;-0.620834;-1.32032;-1.6447;14.5037;-2.41375;14.5037;1000;1186;1528;1158;1024;930;1024;1024;1024;1;3;0;1300;15;9;0.0166968;0;0;0;0.833875;-0.550597;0.0802079; 
1099;1102;2019/07/17 13:12:37;0;464;356;9.34597;462.079;357.268;0;43;1;-0.218289;-1.71953;-1.60005;-0.208214;-1.73656;-1.59828;-0.0827904;0.391365;0.00756947;-0.96028;0.413133;-0.521115;550;289.429;9.9618;546.035;289.233;0;150;1;-0.635578;-1.33009;-1.67729;-0.617844;-1.33988;-1.64701;-0.324875;0.642528;-0.36548;-2.59972;-0.149505;-0.0670818;1;0.427364;-0.406469;0.0790163;-0.635578;-1.33009;-1.67729;14.5493;-2.18175;14.5493;1000;1180;1508;1167;1024;930;1024;1024;1024;1;3;0;1300;15;9;0.016698;0;0;0;0.854728;-0.52841;0.134328; 
1100;1103;2019/07/17 13:12:37;0;465.067;354.4;9.39779;463.106;355.932;0;44;1;-0.222749;-1.70283;-1.59571;-0.212574;-1.72644;-1.59751;-0.117858;0.411215;-0.00164464;-1.19602;0.332242;-0.724987;550.333;286.333;10.0344;547.088;286.555;0;151;1;-0.632639;-1.3074;-1.67329;-0.622282;-1.33014;-1.6549;-0.324132;0.619397;-0.379564;-2.08908;-0.368365;-0.0870659;1;0.420065;-0.419039;0.0757856;-0.632639;-1.3074;-1.67329;14.0055;-2.12589;14.0055;1000;1167;1469;1162;1024;930;1024;1024;1024;1;3;0;1300;15;9;0.016697;0;0;0;0.840129;-0.544751;0.128836; 
1101;1104;2019/07/17 13:12:37;0;466.651;352.698;9.34843;464.351;354.44;0;45;1;-0.232383;-1.70411;-1.60894;-0.218517;-1.71974;-1.60094;-0.156815;0.435341;-0.00993908;-1.43265;0.362046;-0.82868;551.667;284.333;9.96394;548.29;284.053;0;152;1;-0.643788;-1.30814;-1.69041;-0.628734;-1.32354;-1.66555;-0.321358;0.593872;-0.402613;-1.53863;-0.539495;-0.126663;1;0.425271;-0.411604;0.0894735;-0.643788;-1.30814;-1.69041;13.7089;-1.58791;13.7089;1000;1151;1437;1171;1024;930;1024;1024;1024;1;3;0;1300;15;9;0.0166978;0;0;0;0.850542;-0.535085;0.152105; 
1102;1105;2019/07/17 13:12:37;0;468.178;351.467;9.42443;465.733;352.987;0;46;1;-0.238592;-1.68483;-1.59941;-0.224539;-1.70927;-1.60048;-0.197039;0.457751;-0.0212412;-1.65605;0.44172;-0.903674;552;281.429;9.86197;549.278;281.392;0;153;1;-0.652132;-1.30919;-1.71565;-0.635753;-1.31923;-1.68058;-0.336463;0.529797;-0.482193;-1.16505;-0.944128;-0.574294;1;0.427592;-0.400083;0.115176;-0.652132;-1.30919;-1.71565;13.5795;-0.992726;13.5795;1000;1138;1415;1224;1024;930;1024;1024;1024;1;3;0;1300;15;9;0.016697;0;0;0;0.855185;-0.520108;0.1958; 
1103;1106;2019/07/17 13:12:37;0;470.043;349.87;9.45977;467.322;351.448;0;47;1;-0.247542;-1.67139;-1.59788;-0.23144;-1.6979;-1.5997;-0.241606;0.486611;-0.0242612;-1.88065;0.59832;-0.887488;552.571;278;9.86551;550.185;278.449;0;154;1;-0.654788;-1.29399;-1.7242;-0.641464;-1.31166;-1.69367;-0.34465;0.487965;-0.545659;-0.863664;-1.32542;-1.09651;1;0.423348;-0.403913;0.1245;-0.654788;-1.29399;-1.7242;13.0992;-0.612529;13.0992;1000;1123;1385;1265;1024;930;1024;1024;1024;1;3;0;1300;15;9;0.016698;0;0;0;0.846695;-0.525087;0.211649; 
1104;1107;2019/07/17 13:12:37;0;472.043;347.87;9.43443;469.101;349.719;0;48;1;-0.258785;-1.66689;-1.60776;-0.239643;-1.6886;-1.60212;-0.287692;0.5126;-0.0329347;-2.08833;0.812641;-0.808692;553;277;9.87967;550.985;276.079;0;155;1;-0.656014;-1.28785;-1.7244;-0.645829;-1.30452;-1.70289;-0.348869;0.450738;-0.602299;-0.649397;-1.66302;-1.66224;1;0.41637;-0.400752;0.122277;-0.656014;-1.28785;-1.7244;12.526;-0.133383;12.526;1000;1107;1355;1295;1024;930;1024;1024;1024;1;3;0;1300;15;9;0.0166968;0;0;0;0.832741;-0.520978;0.207872; 
1105;1108;2019/07/17 13:12:37;0;474;346;9.42913;471.001;347.896;0;49;1;-0.269284;-1.65943;-1.61389;-0.248536;-1.67985;-1.60565;-0.333608;0.53399;-0.0492083;-2.25443;1.05704;-0.711911;554;274;9.96317;551.889;273.488;0;156;1;-0.655524;-1.2643;-1.71788;-0.648737;-1.29245;-1.70738;-0.332667;0.459822;-0.602428;-0.420749;-1.72729;-1.94339;1;0.406988;-0.415552;0.11223;-0.655524;-1.2643;-1.71788;11.6395;-0.0991559;11.6395;1000;1093;1317;1294;1024;930;1024;1024;1024;1;3;0;1300;15;9;0.016698;0;0;0;0.813976;-0.540218;0.190791; 
1106;1109;2019/07/17 13:12:37;0;476.727;343.955;9.41468;473.232;345.951;0;50;1;-0.284153;-1.65277;-1.6221;-0.259221;-1.67173;-1.61058;-0.38641;0.538859;-0.0817412;-2.4249;1.14386;-0.746946;555;272;10.0215;552.865;271.056;0;157;1;-0.656686;-1.24848;-1.71314;-0.651122;-1.27926;-1.70911;-0.314746;0.479037;-0.577917;-0.214974;-1.59678;-1.95799;1;0.397465;-0.423247;0.102552;-0.656686;-1.24848;-1.71314;10.6816;-0.180892;10.6816;1000;1079;1277;1270;1024;930;1024;1024;1024;1;3;0;1300;15;9;0.016697;0;0;0;0.79493;-0.550221;0.174339; 
1107;1110;2019/07/17 13:12:37;0;478.844;341.867;9.4438;475.505;343.907;0;51;1;-0.294463;-1.63831;-1.62292;-0.269794;-1.6617;-1.61429;-0.436578;0.55506;-0.102345;-2.57194;1.16431;-0.817114;555.667;269.667;9.89208;553.785;268.635;0;158;1;-0.668643;-1.25482;-1.74177;-0.656378;-1.27193;-1.71891;-0.29922;0.493483;-0.559797;-0.0405943;-1.35888;-1.80237;1;0.398849;-0.406877;0.127488;-0.668643;-1.25482;-1.74177;10.1595;0.41583;10.1595;1000;1071;1251;1274;1024;930;1024;1024;1024;1;3;0;1300;15;9;0.0166978;0;0;0;0.797698;-0.52894;0.21673; 
1108;1111;2019/07/17 13:12:37;0;481.556;339.511;9.38883;477.995;341.707;0;52;1;-0.310596;-1.63727;-1.63904;-0.282034;-1.65437;-1.62171;-0.491507;0.55223;-0.146186;-2.71888;1.07581;-0.989134;556;267;9.90579;554.557;266.117;0;159;1;-0.669396;-1.24168;-1.74646;-0.660283;-1.26285;-1.72717;-0.277472;0.521191;-0.521907;0.211174;-0.84969;-1.23999;1;0.387361;-0.412691;0.124747;-0.669396;-1.24168;-1.74646;9.08075;0.250448;9.08075;1000;1057;1207;1227;1024;930;1024;1024;1024;1;3;0;1300;15;9;0.016697;0;0;0;0.774723;-0.536498;0.21207; 
1109;1112;2019/07/17 13:12:37;0;484.304;337.391;9.36544;480.652;339.472;0;53;1;-0.326018;-1.63177;-1.6491;-0.29523;-1.64759;-1.62993;-0.549596;0.532227;-0.208403;-2.86104;0.827616;-1.3287;556;265.429;9.96004;555.114;263.878;0;160;1;-0.66575;-1.22823;-1.74111;-0.661923;-1.25247;-1.73135;-0.248172;0.549051;-0.463615;0.511905;-0.265918;-0.41642;1;0.37052;-0.419358;0.111177;-0.66575;-1.22823;-1.74111;7.79277;-0.205985;7.79277;1000;1042;1155;1150;1024;930;1024;1024;1024;1;3;0;1300;15;9;0.016698;0;0;0;0.741041;-0.545166;0.189001; 
1110;1113;2019/07/17 13:12:37;0;487.217;334.783;9.32374;483.477;337.058;0;54;1;-0.343067;-1.62721;-1.66385;-0.309581;-1.64148;-1.6401;-0.608994;0.507486;-0.276708;-2.99948;0.476154;-1.77053;556;263;9.83195;555.513;261.569;0;161;1;-0.674423;-1.23377;-1.7703;-0.665673;-1.24686;-1.74304;-0.228136;0.559644;-0.43848;0.789186;0.275269;0.404213;1;0.364843;-0.407709;0.130195;-0.674423;-1.23377;-1.7703;6.90946;-0.358759;6.90946;1000;1033;1116;1102;1024;930;1024;1024;1024;1;3;0;1300;15;9;0.0166968;0;0;0;0.729685;-0.530022;0.221331; 
1111;1114;2019/07/17 13:12:37;0;489.922;332.431;9.40562;486.354;334.599;0;55;1;-0.354426;-1.60245;-1.65595;-0.323034;-1.62977;-1.64486;-0.662846;0.504442;-0.322572;-3.11423;0.167719;-2.15377;556;262;9.85258;555.797;259.665;0;162;1;-0.673012;-1.22689;-1.76927;-0.667875;-1.24087;-1.75091;-0.213291;0.541747;-0.436859;0.950138;0.492258;0.903586;1;0.349977;-0.402885;0.12441;-0.673012;-1.22689;-1.76927;5.97214;-0.307385;5.97214;1000;1024;1080;1064;1024;930;1024;1024;1024;1;3;0;1300;15;9;0.016698;0;0;0;0.699954;-0.52375;0.211497; 
1112;1115;2019/07/17 13:12:37;0;493.608;330.196;9.45352;489.578;332.148;0;56;1;-0.372088;-1.58432;-1.6538;-0.33775;-1.61613;-1.64754;-0.711252;0.524625;-0.341095;-3.16553;0.0438005;-2.32778;555.667;259.667;9.80598;555.891;257.63;0;163;1;-0.674514;-1.22263;-1.78395;-0.669866;-1.2354;-1.76082;-0.202815;0.500177;-0.468573;1.01698;0.379759;0.978724;1;0.336763;-0.393501;0.136409;-0.674514;-1.22263;-1.78395;5.09286;0.208143;5.09286;1000;1015;1050;1073;1024;930;1024;1024;1024;1;3;0;1300;15;9;0.016697;0;0;0;0.673526;-0.511551;0.231895; 
1113;1116;2019/07/17 13:12:37;0;497.08;327.52;9.41439;492.982;329.564;0;57;1;-0.392038;-1.57886;-1.66816;-0.354037;-1.60495;-1.65373;-0.763108;0.541354;-0.362134;-3.20305;-0.0284414;-2.43392;555.333;257.333;9.83888;555.847;255.5;0;164;1;-0.670567;-1.2085;-1.78424;-0.670077;-1.22733;-1.76784;-0.176383;0.478185;-0.476523;1.10063;0.166776;0.919714;1;0.31653;-0.396454;0.130508;-0.670567;-1.2085;-1.78424;3.7635;0.413348;3.7635;1000;1010;1007;1063;1024;930;1024;1024;1024;1;3;0;1300;15;9;0.0166978;0;0;0;0.633061;-0.51539;0.221864; 
1114;1117;2019/07/17 13:12:37;0;499.92;324.56;9.34165;496.31;326.796;0;58;1;-0.410262;-1.57773;-1.68951;-0.370904;-1.59678;-1.66446;-0.812694;0.554735;-0.387965;-3.20423;-0.00706148;-2.4257;554.571;256;9.7964;555.566;253.62;0;165;1;-0.669594;-1.20797;-1.79556;-0.669932;-1.22152;-1.77616;-0.144353;0.451942;-0.481493;1.19187;-0.176419;0.713188;1;0.29869;-0.388813;0.131099;-0.669594;-1.20797;-1.79556;2.51219;0.784499;2.51219;1000;1015;967;1063;1024;930;1024;1024;1024;1;3;0;1300;15;9;0.016697;0;0;0;0.59738;-0.505458;0.222868; 
1115;1118;2019/07/17 13:12:37;0;503.462;322.231;9.28429;499.802;324.098;0;59;1;-0.431831;-1.57685;-1.70656;-0.389182;-1.5908;-1.67709;-0.86274;0.559574;-0.421082;-3.17282;0.104952;-2.30458;554;254;9.73928;555.175;251.709;0;166;1;-0.670594;-1.20636;-1.8115;-0.67013;-1.21697;-1.78676;-0.11938;0.412891;-0.510124;1.22934;-0.649489;0.242218;1;0.281411;-0.384448;0.134415;-0.670594;-1.20636;-1.8115;1.28864;0.951889;1.28864;1000;1025;930;1082;1024;930;1024;1024;1024;1;3;0;1300;15;9;0.016698;0;0;0;0.562823;-0.499782;0.228505; 
1116;1119;2019/07/17 13:12:37;0;506.824;319.569;9.1906;503.352;321.349;0;60;1;-0.454487;-1.58065;-1.73159;-0.408774;-1.58776;-1.69344;-0.91369;0.550232;-0.465601;-3.12025;0.233642;-2.13694;554;253;9.75988;554.887;250.093;0;167;1;-0.669178;-1.19947;-1.81038;-0.669845;-1.21172;-1.79385;-0.088283;0.388027;-0.508944;1.29599;-1.0749;-0.136005;1;0.260404;-0.388289;0.116941;-0.669178;-1.19947;-1.81038;-0.140746;0.723662;-0.140746;1000;1040;887;1070;1024;930;1024;1024;1024;1;3;0;1300;15;9;0.0166968;0;0;0;0.520809;-0.504776;0.198799; 
1117;1120;2019/07/17 13:12:37;0;510.113;316.151;9.29022;506.916;318.323;0;61;1;-0.467282;-1.54811;-1.72272;-0.426326;-1.57586;-1.70222;-0.960626;0.545374;-0.508397;-3.06109;0.30361;-2.0241;554;251;9.63853;554.674;248.373;0;168;1;-0.677603;-1.20578;-1.83864;-0.672172;-1.20994;-1.80729;-0.0701281;0.356303;-0.530472;1.34919;-1.38534;-0.455367;1;0.251277;-0.370085;0.136421;-0.677603;-1.20578;-1.83864;-0.818614;1.02306;-0.818614;1000;1043;867;1103;1024;930;1024;1024;1024;1;3;0;1300;15;9;0.016698;0;0;0;0.502554;-0.481111;0.231916; 
1118;1121;2019/07/17 13:12:37;0;513.404;313.684;9.2462;510.487;315.404;0;62;1;-0.487264;-1.54418;-1.73795;-0.444608;-1.56636;-1.71294;-1.00302;0.525966;-0.566168;-3.00161;0.187521;-2.11311;553;249;9.68854;554.198;246.577;0;169;1;-0.668955;-1.19081;-1.8346;-0.671207;-1.2042;-1.81548;-0.0474302;0.338344;-0.53652;1.42991;-1.47735;-0.54451;1;0.224348;-0.37555;0.121653;-0.668955;-1.19081;-1.8346;-2.28296;0.600998;-2.28296;1000;1063;822;1077;1024;930;1024;1024;1024;1;3;0;1300;15;9;0.0166968;0;0;0;0.448695;-0.488215;0.20681; 
1119;1122;2019/07/17 13:12:37;0;516.7;310.667;9.23472;514.061;312.389;0;63;1;-0.505683;-1.53225;-1.74873;-0.46293;-1.55613;-1.72368;-1.03659;0.510522;-0.61899;-2.89289;-0.0105907;-2.29341;553;247;9.74767;553.85;244.724;0;170;1;-0.664897;-1.17489;-1.82887;-0.669314;-1.19541;-1.8195;-0.0254134;0.330455;-0.528145;1.46071;-1.47624;-0.532813;1;0.201967;-0.381236;0.105197;-0.664897;-1.17489;-1.82887;-3.49632;0.237447;-3.49632;1000;1079;788;1042;1024;930;1024;1024;1024;1;3;0;1300;15;9;0.016698;0;0;0;0.403934;-0.495607;0.178834; 
1120;1123;2019/07/17 13:12:37;0;520.5;308;9.20361;517.792;309.419;0;64;1;-0.527995;-1.52516;-1.76228;-0.482449;-1.54684;-1.73526;-1.06732;0.505744;-0.654059;-2.75237;-0.201962;-2.43847;554;245;9.64881;553.916;242.83;0;171;1;-0.676881;-1.17815;-1.85308;-0.671584;-1.19023;-1.82957;-0.0218453;0.32321;-0.530144;1.36555;-1.39973;-0.513932;1;0.194432;-0.368689;0.117821;-0.676881;-1.17815;-1.85308;-4.0526;0.421045;-4.0526;1000;1082;779;1040;1024;930;1024;1024;1024;1;3;0;1300;15;9;0.016697;0;0;0;0.388864;-0.479296;0.200295; 
1121;1124;2019/07/17 13:12:37;0;523.472;304.415;9.17877;521.372;306.192;0;65;1;-0.545579;-1.51274;-1.77734;-0.501388;-1.53661;-1.74788;-1.08839;0.519837;-0.675084;-2.55239;-0.279833;-2.47723;554;243;9.51236;553.963;240.906;0;172;1;-0.686591;-1.18614;-1.8852;-0.676086;-1.189;-1.84626;-0.0368868;0.305597;-0.555639;1.1487;-1.26822;-0.490083;1;0.185203;-0.350468;0.137319;-0.686591;-1.18614;-1.8852;-4.30824;1.02253;-4.30824;1000;1076;786;1059;1024;930;1024;1024;1024;1;3;0;1300;15;9;0.016698;0;0;0;0.370406;-0.455608;0.233443; 
1122;1125;2019/07/17 13:12:37;0;527;301.821;9.1565;525.013;303.098;0;66;1;-0.566134;-1.50442;-1.78913;-0.520812;-1.52695;-1.76026;-1.10037;0.554689;-0.671826;-2.27679;-0.150105;-2.30973;554;241;9.52215;553.996;238.96;0;173;1;-0.685884;-1.17602;-1.8888;-0.679026;-1.18511;-1.85902;-0.0587887;0.289615;-0.593597;0.806978;-1.15386;-0.632036;1;0.165073;-0.35093;0.128542;-0.685884;-1.17602;-1.8888;-4.88075;1.56781;-4.88075;1000;1069;789;1073;1024;930;1024;1024;1024;1;3;0;1300;15;9;0.0166968;0;0;0;0.330145;-0.456209;0.218521; 
1123;1126;2019/07/17 13:12:37;0;530.444;299;9.15905;528.67;300.03;0;67;1;-0.584742;-1.49094;-1.79675;-0.539991;-1.51615;-1.7712;-1.11405;0.571239;-0.678517;-1.97864;0.0132085;-2.06507;554;239;9.50974;554.019;236.998;0;174;1;-0.68678;-1.16864;-1.89681;-0.681352;-1.18017;-1.87036;-0.0719242;0.292628;-0.607973;0.477016;-0.946546;-0.688653;1;0.146789;-0.347505;0.125602;-0.68678;-1.16864;-1.89681;-5.46154;1.90216;-5.46154;1000;1064;791;1085;1024;930;1024;1024;1024;1;3;0;1300;15;9;0.016698;0;0;0;0.293577;-0.451756;0.213523; 
1124;1127;2019/07/17 13:12:37;0;533.286;295.893;9.08457;532.142;296.892;0;68;1;-0.605143;-1.48868;-1.8205;-0.559537;-1.50791;-1.78599;-1.1273;0.576122;-0.698777;-1.6834;0.20818;-1.76851;554;237;9.51605;554.034;235.025;0;175;1;-0.686324;-1.15896;-1.90109;-0.682844;-1.17381;-1.87958;-0.0896143;0.296921;-0.6207;0.117784;-0.733316;-0.74929;1;0.126788;-0.348943;0.115096;-0.686324;-1.15896;-1.90109;-6.12318;1.95013;-6.12318;1000;1062;792;1081;1024;930;1024;1024;1024;1;3;0;1300;15;9;0.0166968;0;0;0;0.253575;-0.453626;0.195664; 
1125;1128;2019/07/17 13:12:37;0;536.151;293.132;9.06254;535.485;293.817;0;69;1;-0.62239;-1.47939;-1.83295;-0.578393;-1.49935;-1.80008;-1.13739;0.572361;-0.724321;-1.41249;0.371813;-1.48166;555;235;9.44062;554.364;233.043;0;176;1;-0.697094;-1.15925;-1.92186;-0.687119;-1.16944;-1.89226;-0.124856;0.28183;-0.662944;-0.326366;-0.634131;-0.987777;1;0.118701;-0.340102;0.121783;-0.697094;-1.15925;-1.92186;-6.11335;2.07323;-6.11335;1000;1051;815;1110;1024;930;1024;1024;1024;1;3;0;1300;15;9;0.016698;0;0;0;0.237403;-0.442133;0.207032; 
1126;1129;2019/07/17 13:12:37;0;539.153;289.966;9.04365;538.775;290.661;0;70;1;-0.640252;-1.46765;-1.84601;-0.59695;-1.48984;-1.81386;-1.1396;0.570987;-0.748427;-1.13608;0.483582;-1.26578;554;234;9.49549;554.283;231.374;0;177;1;-0.68781;-1.14809;-1.91353;-0.687326;-1.16303;-1.89864;-0.137765;0.277677;-0.673547;-0.658643;-0.562274;-1.16522;1;0.09086;-0.341752;0.099674;-0.68781;-1.14809;-1.91353;-6.96975;2.0172;-6.96975;1000;1053;807;1100;1024;930;1024;1024;1024;1;3;0;1300;15;9;0.016697;0;0;0;0.18172;-0.444278;0.169446; 
1127;1130;2019/07/17 13:12:37;0;541.69;286.862;9.01728;541.876;287.468;0;71;1;-0.656164;-1.45735;-1.86048;-0.614714;-1.48009;-1.82785;-1.13623;0.56823;-0.768332;-0.872662;0.483366;-1.13178;554;231.429;9.42441;554.222;229.43;0;178;1;-0.692998;-1.14519;-1.93516;-0.689028;-1.15768;-1.9096;-0.134329;0.291665;-0.657014;-0.784238;-0.39299;-1.10389;1;0.0782835;-0.334908;0.107312;-0.692998;-1.14519;-1.93516;-7.38088;2.11497;-7.38088;1000;1052;807;1101;1024;930;1024;1024;1024;1;3;0;1300;15;9;0.0166978;0;0;0;0.156567;-0.43538;0.18243; 
1128;1131;2019/07/17 13:12:37;0;544.351;284.035;9.02934;544.877;284.339;0;72;1;-0.669994;-1.44214;-1.86625;-0.631298;-1.46871;-1.83937;-1.12288;0.573477;-0.776866;-0.613466;0.365032;-1.09846;554.5;230;9.47479;554.337;227.652;0;179;1;-0.691946;-1.13271;-1.92884;-0.689903;-1.15019;-1.91537;-0.124027;0.314417;-0.619193;-0.731015;-0.136765;-0.764528;1;0.0606478;-0.336;0.089475;-0.691946;-1.13271;-1.92884;-7.94139;2.1759;-7.94139;1000;1057;797;1066;1024;930;1024;1024;1024;1;3;0;1300;15;9;0.016697;0;0;0;0.121296;-0.436799;0.152108; 
1129;1132;2019/07/17 13:12:37;0;546.964;281.25;8.98333;547.789;281.272;0;73;1;-0.687943;-1.43639;-1.88398;-0.648292;-1.45901;-1.85275;-1.10614;0.572206;-0.791712;-0.336489;0.222883;-1.11103;554.333;228.333;9.44768;554.365;225.917;0;180;1;-0.693052;-1.12848;-1.93903;-0.690848;-1.14368;-1.92247;-0.112329;0.334345;-0.579578;-0.599932;0.0845001;-0.345347;1;0.0447599;-0.330529;0.0862764;-0.693052;-1.12848;-1.93903;-8.49765;2.26891;-8.49765;1000;1061;784;1035;1024;930;1024;1024;1024;1;3;0;1300;15;9;0.016698;0;0;0;0.0895197;-0.429687;0.14667; 
1130;1133;2019/07/17 13:12:37;0;549.071;278.071;8.91952;550.473;278.126;0;74;1;-0.704653;-1.43157;-1.90685;-0.6652;-1.45078;-1.86898;-1.08556;0.571412;-0.806378;-0.0352353;0.114926;-1.09623;555;227;9.44667;554.597;224.32;0;181;1;-0.696647;-1.12262;-1.94296;-0.692588;-1.13736;-1.92862;-0.106302;0.346119;-0.543538;-0.426586;0.247129;0.100871;1;0.0314473;-0.328155;0.0739735;-0.696647;-1.12262;-1.94296;-8.85213;2.30538;-8.85213;1000;1063;779;993;1024;930;1024;1024;1024;1;3;0;1300;15;9;0.0166968;0;0;0;0.0628946;-0.426602;0.125755; 
1131;1134;2019/07/17 13:12:37;0;550.945;275.382;8.93009;552.917;275.081;0;75;1;-0.71429;-1.41711;-1.91254;-0.679927;-1.44068;-1.88205;-1.05673;0.577101;-0.811097;0.300886;0.0878796;-1.00421;554;225;9.33788;554.445;222.609;0;182;1;-0.69942;-1.12663;-1.97124;-0.694637;-1.13414;-1.9414;-0.0938003;0.348599;-0.522318;-0.131958;0.414861;0.621991;1;0.0194932;-0.31405;0.0891912;-0.69942;-1.12663;-1.97124;-9.06313;2.68787;-9.06313;1000;1062;774;995;1024;930;1024;1024;1024;1;3;0;1300;15;9;0.016698;0;0;0;0.0389863;-0.408265;0.151625; 
1132;1135;2019/07/17 13:12:37;0;553.556;272.074;8.96914;555.42;271.915;0;76;1;-0.725702;-1.39532;-1.91393;-0.69366;-1.42707;-1.89161;-1.02017;0.596871;-0.797104;0.657369;0.156076;-0.796877;554.4;223.2;9.28139;554.461;220.879;0;183;1;-0.705827;-1.12527;-1.98835;-0.697994;-1.13148;-1.95549;-0.0988744;0.335138;-0.540339;0.0760998;0.478338;0.905046;1;0.0121678;-0.301802;0.0967352;-0.705827;-1.12527;-1.98835;-8.92453;3.25609;-8.92453;1000;1053;782;1016;1024;930;1024;1024;1024;1;3;0;1300;15;9;0.016697;0;0;0;0.0243356;-0.392343;0.16445; 
1133;1136;2019/07/17 13:12:37;0;554.945;269.382;8.91985;557.577;268.857;0;77;1;-0.737487;-1.39024;-1.93246;-0.706808;-1.41602;-1.90387;-0.979802;0.613937;-0.781792;1.01901;0.276142;-0.531869;554;223;9.21711;554.344;219.646;0;184;1;-0.708584;-1.1322;-2.00279;-0.701171;-1.1317;-1.96968;-0.10781;0.304824;-0.564074;0.15154;0.339542;0.914102;1;0.00177664;-0.283824;0.0989201;-0.708584;-1.1322;-2.00279;-8.86258;3.89986;-8.86258;1000;1042;793;1035;1024;930;1024;1024;1024;1;3;0;1300;15;9;0.0166978;0;0;0;0.00355327;-0.368971;0.168164; 
1134;1137;2019/07/17 13:12:37;0;557.382;266.364;8.88874;559.816;265.777;0;78;1;-0.753745;-1.38072;-1.94818;-0.720889;-1.40543;-1.91716;-0.945589;0.621003;-0.779677;1.31927;0.355443;-0.330341;554;220.5;9.1751;554.257;218.038;0;185;1;-0.711828;-1.12584;-2.01914;-0.704369;-1.12994;-1.98452;-0.122441;0.263744;-0.61451;0.0972585;0.00140439;0.567159;1;-0.0090608;-0.279595;0.101979;-0.711828;-1.12584;-2.01914;-8.88399;4.09988;-8.88399;1000;1036;803;1068;1024;930;1024;1024;1024;1;3;0;1300;15;9;0.016697;0;0;0;-0.0181216;-0.363473;0.173364; 
1135;1138;2019/07/17 13:12:37;0;558.981;263.585;8.91541;561.849;262.759;0;79;1;-0.760443;-1.36338;-1.95057;-0.732755;-1.39282;-1.92718;-0.904589;0.636899;-0.764981;1.59628;0.471561;-0.0914762;553;219;9.02905;553.874;216.476;0;186;1;-0.717816;-1.13701;-2.05618;-0.708403;-1.13206;-2.00602;-0.143555;0.204629;-0.702276;-0.0663188;-0.517064;-0.149591;1;-0.0149388;-0.255808;0.128999;-0.717816;-1.13701;-2.05618;-8.47245;4.84523;-8.47245;1000;1019;828;1162;1024;930;1024;1024;1024;1;3;0;1300;15;9;0.016698;0;0;0;-0.0298775;-0.33255;0.219297; 
1136;1139;2019/07/17 13:12:37;0;560.528;260.491;8.85464;563.715;259.685;0;80;1;-0.774381;-1.35794;-1.97316;-0.745243;-1.38235;-1.94098;-0.862339;0.655346;-0.746437;1.84903;0.618058;0.184438;553.6;217.2;8.99286;553.788;214.852;0;187;1;-0.724034;-1.13311;-2.06973;-0.713092;-1.13237;-2.02513;-0.168001;0.142692;-0.806714;-0.286132;-1.12245;-1.14052;1;-0.0212085;-0.249248;0.128755;-0.724034;-1.13311;-2.06973;-8.14791;5.27467;-8.14791;1000;1006;852;1229;1024;930;1024;1024;1024;1;3;0;1300;15;9;0.0166968;0;0;0;-0.042417;-0.324022;0.218883; 
1137;1140;2019/07/17 13:12:37;0;561.396;257.774;8.85453;565.245;256.694;0;81;1;-0.779281;-1.34495;-1.98128;-0.755454;-1.37113;-1.95307;-0.81896;0.670889;-0.731414;2.05877;0.7453;0.428811;552.4;214.8;8.94865;553.342;212.99;0;188;1;-0.72092;-1.12734;-2.08703;-0.715441;-1.13086;-2.0437;-0.18386;0.0987055;-0.892461;-0.531255;-1.6712;-2.16215;1;-0.0345342;-0.243793;0.13396;-0.72092;-1.12734;-2.08703;-8.02619;5.63502;-8.02619;1000;1024;868;1304;1024;930;1024;1024;1024;1;3;0;1300;15;9;0.016698;0;0;0;-0.0690683;-0.31693;0.227732; 
1138;1141;2019/07/17 13:12:37;0;562.815;255.296;8.91886;566.706;253.84;0;82;1;-0.781597;-1.32348;-1.97431;-0.763297;-1.35684;-1.95944;-0.769417;0.682957;-0.709654;2.23644;0.790893;0.606446;552;213;8.91008;552.892;211.147;0;189;1;-0.7218;-1.12366;-2.10139;-0.717348;-1.1287;-2.061;-0.18759;0.0703146;-0.956773;-0.672959;-2.06006;-2.95996;1;-0.0414969;-0.233177;0.141947;-0.7218;-1.12366;-2.10139;-7.71133;6.04683;-7.71133;1000;1043;887;1377;1024;930;1024;1024;1024;1;3;0;1300;15;9;0.016697;0;0;0;-0.0829939;-0.30313;0.241309; 
1139;1142;2019/07/17 13:12:37;0;564;252.235;8.85785;568.046;250.901;0;83;1;-0.793657;-1.31796;-1.99701;-0.772405;-1.34517;-1.97071;-0.723559;0.692653;-0.692677;2.36496;0.788823;0.719675;552;211;8.89631;552.566;209.255;0;190;1;-0.722917;-1.11587;-2.11056;-0.719019;-1.12485;-2.07587;-0.183813;0.0695059;-0.998064;-0.707226;-2.17558;-3.50874;1;-0.0494879;-0.229299;0.139852;-0.722917;-1.11587;-2.11056;-7.73162;6.28147;-7.73162;1000;1049;892;1404;1024;930;1024;1024;1024;1;3;0;1300;15;9;0.0166978;0;0;0;-0.0989758;-0.298089;0.237748; 
1140;1143;2019/07/17 13:12:37;0;564.981;249.585;8.87401;569.234;248.031;0;84;1;-0.797729;-1.3029;-2.00125;-0.780002;-1.33249;-1.97987;-0.670155;0.706818;-0.665999;2.5187;0.815926;0.885684;550.667;209.333;8.9012;551.907;207.432;0;191;1;-0.715046;-1.10733;-2.11434;-0.717827;-1.1196;-2.08741;-0.164022;0.0829953;-1.00967;-0.590356;-2.02701;-3.68296;1;-0.0649564;-0.225164;0.134466;-0.715046;-1.10733;-2.11434;-8.00148;6.59256;-8.00148;1000;1052;884;1423;1024;930;1024;1024;1024;1;3;0;1300;15;9;0.016697;0;0;0;-0.129913;-0.292713;0.228593; 
1141;1144;2019/07/17 13:12:37;0;565.407;246.667;8.85375;570.136;245.128;0;85;1;-0.801956;-1.29192;-2.01452;-0.786588;-1.32032;-1.99027;-0.617032;0.713553;-0.651477;2.65934;0.795611;0.984595;549;207;8.76716;550.9;205.447;0;192;1;-0.716492;-1.11298;-2.15368;-0.717427;-1.11761;-2.10729;-0.134442;0.107482;-1.01017;-0.317825;-1.60408;-3.43907;1;-0.0700964;-0.207337;0.163416;-0.716492;-1.11298;-2.15368;-7.9273;7.0687;-7.9273;1000;1057;882;1454;1024;930;1024;1024;1024;1;3;0;1300;15;9;0.016698;0;0;0;-0.140193;-0.269539;0.277807; 
1142;1145;2019/07/17 13:12:37;0;566.308;244.231;8.77997;570.984;242.355;0;86;1;-0.813813;-1.29102;-2.03876;-0.794756;-1.31153;-2.00482;-0.567909;0.710906;-0.645775;2.77117;0.6992;0.99267;547;205;8.91069;549.536;203.452;0;193;1;-0.693751;-1.08555;-2.12491;-0.710324;-1.10799;-2.11258;-0.069612;0.161836;-0.955248;0.202135;-0.886013;-2.65649;1;-0.101005;-0.225985;0.120093;-0.693751;-1.08555;-2.12491;-9.35685;6.64064;-9.35685;1000;1029;826;1361;1024;930;1024;1024;1024;1;3;0;1300;15;9;0.0166968;0;0;0;-0.202009;-0.29378;0.204158; 
1143;1146;2019/07/17 13:12:37;0;567.077;241.692;8.77934;571.754;239.644;0;87;1;-0.818243;-1.27886;-2.04653;-0.801802;-1.30173;-2.01733;-0.525797;0.703647;-0.644048;2.83321;0.550312;0.944427;546.667;203.333;8.62702;548.446;201.555;0;194;1;-0.714635;-1.11305;-2.19987;-0.711617;-1.10951;-2.13877;-0.0265015;0.182356;-0.952717;0.749555;-0.197624;-1.83447;1;-0.0871671;-0.188676;0.182541;-0.714635;-1.11305;-2.19987;-8.77623;7.29723;-8.77623;1000;1040;828;1409;1024;930;1024;1024;1024;1;3;0;1300;15;9;0.016698;0;0;0;-0.174334;-0.245278;0.31032; 
1144;1147;2019/07/17 13:12:38;0;566.816;238.939;8.77412;572.141;236.91;0;88;1;-0.817247;-1.26633;-2.05602;-0.806436;-1.29111;-2.02894;-0.487716;0.684623;-0.663911;2.82467;0.33684;0.749295;544.4;201.2;8.68784;546.941;199.581;0;195;1;-0.696613;-1.09486;-2.19094;-0.707116;-1.10511;-2.15442;0.0249537;0.20359;-0.9446;1.29834;0.413546;-1.05208;1;-0.109822;-0.19625;0.162007;-0.696613;-1.09486;-2.19094;-9.715;6.8376;-9.715;1000;1026;783;1351;1024;930;1024;1024;1024;1;3;0;1300;15;9;0.016697;0;0;0;-0.219645;-0.255126;0.275412; 
1145;1148;2019/07/17 13:12:38;0;567.347;236.245;8.78069;572.505;234.179;0;89;1;-0.819651;-1.25238;-2.06257;-0.8104;-1.27949;-2.03903;-0.444333;0.673026;-0.671103;2.80966;0.123738;0.535714;543.333;199.333;8.7538;545.519;197.637;0;196;1;-0.685284;-1.07757;-2.18006;-0.700566;-1.09685;-2.16211;0.0886475;0.233954;-0.911076;1.86684;0.904708;-0.283938;1;-0.125117;-0.201916;0.14103;-0.685284;-1.07757;-2.18006;-10.5062;6.53571;-10.5062;1000;1028;741;1291;1024;930;1024;1024;1024;1;3;0;1300;15;9;0.0166978;0;0;0;-0.250234;-0.262491;0.239752; 
1146;1149;2019/07/17 13:12:38;0;567.5;233.375;8.72838;572.735;231.395;0;90;1;-0.825439;-1.24596;-2.0836;-0.814912;-1.26943;-2.0524;-0.405984;0.655602;-0.692227;2.74055;-0.130246;0.216709;541.333;198.667;8.66675;543.863;196.096;0;197;1;-0.680651;-1.08514;-2.20398;-0.694592;-1.09334;-2.17467;0.145959;0.245212;-0.895036;2.35774;1.1905;0.287319;1;-0.134261;-0.184293;0.151582;-0.680651;-1.08514;-2.20398;-11.1273;6.62307;-11.1273;1000;1041;704;1262;1024;930;1024;1024;1024;1;3;0;1300;15;9;0.016697;0;0;0;-0.268522;-0.23958;0.257689; 
1147;1150;2019/07/17 13:12:38;0;567.489;230.809;8.73792;572.818;228.669;0;91;1;-0.824478;-1.23215;-2.08907;-0.817782;-1.25825;-2.0634;-0.368135;0.641202;-0.707325;2.63809;-0.367024;-0.0929586;539.333;196.667;8.64103;542.039;194.424;0;198;1;-0.671127;-1.07856;-2.21664;-0.687552;-1.0889;-2.18726;0.206852;0.261745;-0.856304;2.7773;1.33021;0.786711;1;-0.146654;-0.179686;0.153242;-0.671127;-1.07856;-2.21664;-11.7208;6.48916;-11.7208;1000;1055;670;1228;1024;930;1024;1024;1024;1;3;0;1300;15;9;0.016698;0;0;0;-0.293309;-0.233591;0.260512; 
1148;1151;2019/07/17 13:12:38;0;567.348;228.13;8.64584;572.757;225.95;0;92;1;-0.832441;-1.23215;-2.11948;-0.822179;-1.25042;-2.08022;-0.330375;0.628726;-0.725469;2.53125;-0.548331;-0.373967;539;195;8.59848;540.627;192.761;0;199;1;-0.672514;-1.07569;-2.23272;-0.683041;-1.08494;-2.2009;0.233042;0.249089;-0.866414;2.87477;1.1465;0.826708;1;-0.149665;-0.174731;0.152497;-0.672514;-1.07569;-2.23272;-11.8314;6.39308;-11.8314;1000;1060;659;1208;1024;930;1024;1024;1024;1;3;0;1300;15;9;0.0166968;0;0;0;-0.299331;-0.227151;0.259245; 
1149;1152;2019/07/17 13:12:38;0;567.067;225.333;8.62218;572.549;223.199;0;93;1;-0.833098;-1.22179;-2.13385;-0.825455;-1.24183;-2.09631;-0.292665;0.616406;-0.750622;2.44957;-0.677325;-0.649897;536;193;8.71431;538.666;190.998;0;200;1;-0.646397;-1.05166;-2.20909;-0.672048;-1.07496;-2.20336;0.297812;0.287415;-0.777737;3.01972;1.10736;1.19465;1;-0.179058;-0.190163;0.112784;-0.646397;-1.05166;-2.20909;-13.0495;5.87756;-13.0495;1000;1079;615;1114;1024;930;1024;1024;1024;1;3;0;1300;15;9;0.016698;0;0;0;-0.358116;-0.247212;0.191732; 
1150;1153;2019/07/17 13:12:38;0;566.739;222.609;8.64151;572.224;220.447;0;94;1;-0.829343;-1.20569;-2.13738;-0.826621;-1.23099;-2.10863;-0.256195;0.609889;-0.768572;2.39414;-0.704783;-0.807818;535;192;8.60385;536.948;189.483;0;201;1;-0.648896;-1.06024;-2.24052;-0.665102;-1.07054;-2.21451;0.346433;0.310486;-0.706544;3.09538;1.09121;1.66726;1;-0.177725;-0.170746;0.131886;-0.648896;-1.06024;-2.24052;-13.1562;6.17568;-13.1562;1000;1078;606;1101;1024;930;1024;1024;1024;1;3;0;1300;15;9;0.0166968;0;0;0;-0.355451;-0.22197;0.224207; 
1151;1154;2019/07/17 13:12:38;0;566.048;219.857;8.59909;571.702;217.688;0;95;1;-0.829422;-1.19808;-2.15636;-0.827462;-1.22112;-2.12295;-0.221837;0.599;-0.796231;2.32484;-0.71843;-0.984286;533;191;8.57519;535.088;188.145;0;202;1;-0.639426;-1.05884;-2.25108;-0.657399;-1.06703;-2.22548;0.380208;0.305352;-0.676929;3.02133;0.939792;1.93522;1;-0.188035;-0.162273;0.128128;-0.639426;-1.05884;-2.25108;-13.5577;6.17769;-13.5577;1000;1082;593;1067;1024;930;1024;1024;1024;1;3;0;1300;15;9;0.016698;0;0;0;-0.37607;-0.210955;0.217818; 
1152;1155;2019/07/17 13:12:38;0;565.5;217.091;8.58048;571.085;214.918;0;96;1;-0.828036;-1.18702;-2.16954;-0.827634;-1.21089;-2.13693;-0.183896;0.593137;-0.81524;2.28163;-0.680464;-1.08172;531.6;188.8;8.61045;533.321;186.554;0;203;1;-0.628694;-1.04368;-2.2486;-0.648788;-1.06003;-2.23241;0.411003;0.316208;-0.6367;2.87102;0.847335;2.19257;1;-0.19894;-0.167207;0.111668;-0.628694;-1.04368;-2.2486;-13.8364;5.98223;-13.8364;1000;1084;587;1023;1024;930;1024;1024;1024;1;3;0;1300;15;9;0.016697;0;0;0;-0.397879;-0.217369;0.189836; 
1153;1156;2019/07/17 13:12:38;0;564.364;214.5;8.5522;570.216;212.196;0;97;1;-0.824144;-1.17811;-2.1847;-0.826587;-1.20106;-2.15126;-0.145494;0.584224;-0.839945;2.25791;-0.635771;-1.17854;530.667;187.333;8.55594;531.77;185.011;0;204;1;-0.627257;-1.04307;-2.26744;-0.642328;-1.05494;-2.24292;0.427164;0.325335;-0.60425;2.60224;0.762295;2.3219;1;-0.19933;-0.157988;0.116182;-0.627257;-1.04307;-2.26744;-13.6689;6.03114;-13.6689;1000;1079;597;1007;1024;930;1024;1024;1024;1;3;0;1300;15;9;0.0166978;0;0;0;-0.398661;-0.205384;0.197509; 
1154;1157;2019/07/17 13:12:38;0;563.905;211.619;8.5873;569.385;209.418;0;98;1;-0.818109;-1.15908;-2.18461;-0.824043;-1.18846;-2.16126;-0.094739;0.597892;-0.827544;2.29557;-0.504574;-1.11468;529;186;8.57071;530.146;183.546;0;205;1;-0.616472;-1.03468;-2.26763;-0.634571;-1.04886;-2.25034;0.449819;0.339244;-0.559931;2.42685;0.817333;2.61682;1;-0.207571;-0.153784;0.106369;-0.616472;-1.03468;-2.26763;-13.6952;6.33572;-13.6952;1000;1072;603;989;1024;930;1024;1024;1024;1;3;0;1300;15;9;0.016697;0;0;0;-0.415143;-0.19992;0.180828; 
1155;1158;2019/07/17 13:12:38;0;562.4;208.933;8.60885;568.25;206.662;0;99;1;-0.807339;-1.14296;-2.18737;-0.819032;-1.17481;-2.1691;-0.0311984;0.626298;-0.787137;2.42129;-0.263246;-0.814602;528;184;8.5494;528.682;181.924;0;206;1;-0.612172;-1.02735;-2.27945;-0.627852;-1.04241;-2.25907;0.44635;0.333503;-0.558402;2.04917;0.674414;2.44582;1;-0.20686;-0.147467;0.110358;-0.612172;-1.02735;-2.27945;-13.011;6.9187;-13.011;1000;1053;638;1023;1024;930;1024;1024;1024;1;3;0;1300;15;9;0.016698;0;0;0;-0.41372;-0.191707;0.187609; 
1156;1159;2019/07/17 13:12:38;0;561.378;206;8.55928;567.055;203.842;0;100;1;-0.806055;-1.13506;-2.20907;-0.815139;-1.16289;-2.18109;0.0271268;0.647674;-0.761576;2.58399;-0.00708345;-0.460828;526;183;8.55615;527.018;180.507;0;207;1;-0.600025;-1.02158;-2.28074;-0.619504;-1.03616;-2.26557;0.449868;0.337374;-0.538923;1.64248;0.512003;2.13674;1;-0.215114;-0.141304;0.0996478;-0.600025;-1.02158;-2.28074;-12.8792;7.38655;-12.8792;1000;1039;659;1027;1024;930;1024;1024;1024;1;3;0;1300;15;9;0.0166968;0;0;0;-0.430228;-0.183695;0.169401; 
1157;1160;2019/07/17 13:12:38;0;559.778;203.156;8.52308;565.633;201.011;0;101;1;-0.800111;-1.12574;-2.22725;-0.81063;-1.15175;-2.19494;0.0835016;0.66568;-0.744457;2.76994;0.262075;-0.0697049;525;181;8.50272;525.53;178.923;0;208;1;-0.597927;-1.01804;-2.30127;-0.613031;-1.03072;-2.27628;0.447131;0.347441;-0.526259;1.25278;0.47531;1.88383;1;-0.212703;-0.133706;0.106334;-0.597927;-1.01804;-2.30127;-12.2829;7.83044;-12.2829;1000;1020;695;1053;1024;930;1024;1024;1024;1;3;0;1300;15;9;0.0166626;0;0;0;-0.425406;-0.173818;0.180767; 
1158;1161;2019/07/17 13:12:38;0;558.045;200.636;8.51761;564.013;198.264;0;102;1;-0.790476;-1.11394;-2.23648;-0.804584;-1.1404;-2.2074;0.142163;0.680936;-0.728139;2.96428;0.507922;0.306065;523;181;8.52663;523.849;177.847;0;209;1;-0.584546;-1.01518;-2.29482;-0.604485;-1.02606;-2.28184;0.445225;0.344122;-0.513171;0.888354;0.396677;1.62368;1;-0.220038;-0.125218;0.0874186;-0.584546;-1.01518;-2.29482;-12.0395;8.24898;-12.0395;1000;1005;719;1055;1024;930;1024;1024;1024;1;3;0;1300;15;9;0.016697;0;0;0;-0.440076;-0.162784;0.148612; 
1159;1162;2019/07/17 13:12:38;0;556.255;197.787;8.5189;562.232;195.479;0;103;1;-0.779871;-1.0996;-2.24495;-0.79717;-1.12816;-2.21866;0.202792;0.699711;-0.706107;3.16966;0.766018;0.7182;522;180;8.56409;522.349;176.824;0;210;1;-0.576163;-1.0058;-2.28786;-0.595989;-1.01998;-2.28365;0.452219;0.346093;-0.470555;0.63308;0.320915;1.50819;1;-0.221007;-0.122364;0.0691922;-0.576163;-1.0058;-2.28786;-11.654;8.60695;-11.654;1000;991;744;1049;1024;930;1024;1024;1024;1;3;0;1300;15;9;0.0166978;0;0;0;-0.442015;-0.159074;0.117627; 
1160;1163;2019/07/17 13:12:38;0;554.34;195.234;8.5062;560.301;192.762;0;104;1;-0.769802;-1.08852;-2.25622;-0.78896;-1.11627;-2.22993;0.261803;0.70818;-0.697921;3.32586;0.900113;0.948648;522;179;8.51031;521.303;175.839;0;211;1;-0.579803;-1.00717;-2.30541;-0.591133;-1.01614;-2.29017;0.444826;0.338348;-0.441454;0.359908;0.188969;1.37812;1;-0.209156;-0.109096;0.0754802;-0.579803;-1.00717;-2.30541;-10.8102;9.01639;-10.8102;1000;972;782;1064;1024;930;1024;1024;1024;1;3;0;1300;15;9;0.016697;0;0;0;-0.418313;-0.141824;0.128316; 
1161;1164;2019/07/17 13:12:38;0;552.087;192.652;8.49704;558.157;190.084;0;105;1;-0.757398;-1.07682;-2.26666;-0.779491;-1.10443;-2.24095;0.315013;0.706012;-0.705741;3.37832;0.858453;0.894293;520;178;8.5091;519.947;174.879;0;212;1;-0.568157;-1.00234;-2.30884;-0.58424;-1.012;-2.29577;0.441082;0.32446;-0.411464;0.194907;0.0772623;1.41374;1;-0.211334;-0.102096;0.0678885;-0.568157;-1.00234;-2.30884;-10.4064;9.12673;-10.4064;1000;965;801;1044;1024;930;1024;1024;1024;1;3;0;1300;15;9;0.0166978;0;0;0;-0.422667;-0.132725;0.11541; 
1162;1165;2019/07/17 13:12:38;0;550.042;190.125;8.48565;555.931;187.453;0;106;1;-0.746387;-1.06565;-2.27755;-0.76956;-1.0928;-2.25193;0.371055;0.703556;-0.706392;3.40067;0.738266;0.756986;519;177;8.53683;518.687;173.936;0;213;1;-0.560467;-0.994119;-2.30443;-0.577108;-1.00664;-2.29837;0.433979;0.312601;-0.377878;0.0534826;-0.0525868;1.49146;1;-0.209093;-0.0986794;0.0524962;-0.560467;-0.994119;-2.30443;-9.84266;9.15834;-9.84266;1000;958;823;1011;1024;930;1024;1024;1024;1;3;0;1300;15;9;0.016697;0;0;0;-0.418187;-0.128283;0.0892435; 
1163;1166;2019/07/17 13:12:38;0;547.667;187.333;8.49059;553.544;184.771;0;107;1;-0.731995;-1.0511;-2.28489;-0.75829;-1.08029;-2.26182;0.43161;0.70744;-0.690879;3.43029;0.609694;0.668112;518;175;8.52457;517.496;172.686;0;214;1;-0.555419;-0.985608;-2.31392;-0.570601;-1.00033;-2.30303;0.429793;0.308926;-0.33355;-0.0371371;-0.185331;1.66429;1;-0.202872;-0.0946805;0.0521038;-0.555419;-0.985608;-2.31392;-9.11919;9.30293;-9.11919;1000;948;848;999;1024;930;1024;1024;1024;1;3;0;1300;15;9;0.0166978;0;0;0;-0.405743;-0.123085;0.0885764; 
1164;1167;2019/07/17 13:12:38;0;545.689;184.756;8.47509;551.172;182.121;0;108;1;-0.721689;-1.04013;-2.29709;-0.74731;-1.06824;-2.2724;0.487645;0.712581;-0.674063;3.43758;0.492168;0.616778;516;175;8.67414;516.038;171.849;0;215;1;-0.534336;-0.968613;-2.27402;-0.559722;-0.990813;-2.29433;0.436601;0.326094;-0.25;-0.056714;-0.183179;2.04932;1;-0.212974;-0.0996289;0.00162292;-0.534336;-0.968613;-2.27402;-8.85188;9.28237;-8.85188;1000;949;857;904;1024;930;1024;1024;1024;1;3;0;1300;15;9;0.0166968;0;0;0;-0.425948;-0.129518;0.00275896; 
1165;1168;2019/07/17 13:12:38;0;542.756;181.867;8.43245;548.512;179.394;0;109;1;-0.707979;-1.03088;-2.31774;-0.735511;-1.05703;-2.286;0.538774;0.711544;-0.673291;3.40402;0.342548;0.501093;516;174;8.49991;515.024;170.993;0;216;1;-0.545289;-0.983482;-2.32374;-0.555392;-0.988613;-2.30315;0.424049;0.320902;-0.227886;-0.146501;-0.210489;2.19848;1;-0.190222;-0.0735499;0.0377357;-0.545289;-0.983482;-2.32374;-7.99342;9.8056;-7.99342;1000;936;883;932;1024;930;1024;1024;1024;1;3;0;1300;15;9;0.016698;0;0;0;-0.380444;-0.0956148;0.0641507; 
1166;1169;2019/07/17 13:12:38;0;540.279;179.628;8.47909;545.793;176.82;0;110;1;-0.689511;-1.01402;-2.31195;-0.721711;-1.04413;-2.29378;0.591768;0.714963;-0.658927;3.35987;0.232609;0.456345;513.333;173.333;8.48564;513.482;170.227;0;217;1;-0.530524;-0.981807;-2.32972;-0.547932;-0.986572;-2.31112;0.426917;0.310596;-0.220365;-0.159406;-0.237098;2.20182;1;-0.191187;-0.0623209;0.0359306;-0.530524;-0.981807;-2.32972;-7.61974;10.0924;-7.61974;1000;929;892;943;1024;930;1024;1024;1024;1;3;0;1300;15;9;0.0166968;0;0;0;-0.382373;-0.0810172;0.0610821; 
1167;1170;2019/07/17 13:12:38;0;537.488;177.116;8.42654;542.937;174.269;0;111;1;-0.677285;-1.00771;-2.33422;-0.708383;-1.0332;-2.30592;0.638973;0.713379;-0.654749;3.30939;0.168978;0.477403;513;172;8.41594;512.303;169.312;0;218;1;-0.532942;-0.983227;-2.35319;-0.543435;-0.985568;-2.32374;0.419072;0.291887;-0.243884;-0.183522;-0.27231;1.99018;1;-0.175441;-0.0499774;0.047271;-0.532942;-0.983227;-2.35319;-6.81747;10.3227;-6.81747;1000;919;914;966;1024;930;1024;1024;1024;1;3;0;1300;15;9;0.016698;0;0;0;-0.350883;-0.0649706;0.0803607; 
1168;1171;2019/07/17 13:12:38;0;534.591;175;8.4531;539.952;171.861;0;112;1;-0.658053;-0.993942;-2.33349;-0.693284;-1.02143;-2.31419;0.687929;0.712998;-0.641429;3.25082;0.139089;0.545819;511;172;8.47779;510.855;168.714;0;219;1;-0.517282;-0.976053;-2.33602;-0.535589;-0.982714;-2.32742;0.417216;0.270643;-0.262338;-0.177043;-0.330911;1.65542;1;-0.176003;-0.0453724;0.0218306;-0.517282;-0.976053;-2.33602;-6.4259;10.4119;-6.4259;1000;920;923;957;1024;930;1024;1024;1024;1;3;0;1300;15;9;0.0166968;0;0;0;-0.352005;-0.0589842;0.0371119; 
1169;1172;2019/07/17 13:12:38;0;531.714;172.81;8.41549;536.885;169.532;0;113;1;-0.643937;-0.987355;-2.35078;-0.67848;-1.0112;-2.32516;0.731415;0.703629;-0.637779;3.14752;0.0682402;0.539501;509.333;170.667;8.46814;509.318;167.919;0;220;1;-0.50805;-0.970495;-2.34283;-0.527327;-0.979048;-2.33205;0.423107;0.247345;-0.273234;-0.132921;-0.444415;1.23407;1;-0.17043;-0.0407099;0.0176666;-0.50805;-0.970495;-2.34283;-5.95636;10.3593;-5.95636;1000;919;931;960;1024;930;1024;1024;1024;1;3;0;1300;15;9;0.016698;0;0;0;-0.34086;-0.0529228;0.0300332; 
1170;1173;2019/07/17 13:12:38;0;528.133;170.756;8.4148;533.54;167.304;0;114;1;-0.622755;-0.977094;-2.3574;-0.661763;-1.00097;-2.33484;0.780413;0.690767;-0.631958;3.05744;-0.046152;0.491813;528.133;170.756;8.4148;514.249;167.433;0;221;1;-0.622755;-0.977094;-2.3574;-0.555956;-0.978462;-2.33965;0.268901;0.19772;-0.344897;-0.749321;-0.779201;0.361557;1;-0.0390076;-0.0238771;0.0225677;-0.622755;-0.977094;-2.3574; -nan;10.5029; -nan;1000;600;-2147482624;-2147482624;1024;930;1024;1024;1024;1;3;0;1300;15;9;0.0166968;0;0;0;-0.0780152;-0.0310403;0.0383652; 
1171;1174;2019/07/17 13:12:38;0;525.581;168.698;8.41042;530.326;165.147;0;115;1;-0.607939;-0.967236;-2.36508;-0.645615;-0.990851;-2.34391;0.827172;0.678702;-0.610389;2.98595;-0.158819;0.546234;506.667;169.333;8.4293;511.02;166.688;0;222;1;-0.494605;-0.968265;-2.3578;-0.537551;-0.975403;-2.3451;0.232574;0.171378;-0.374405;-1.21408;-1.06451;-0.368064;1;-0.15101;-0.0225857;0.0138872;-0.494605;-0.968265;-2.3578;-2.90854;10.3375;-2.90854;1000;895;1048;1038;1024;930;1024;1024;1024;1;3;0;1300;15;9;0.016698;0;0;0;-0.30202;-0.0293615;0.0236082; 
1172;1175;2019/07/17 13:12:38;0;522.045;166.636;8.40922;526.898;163.041;0;116;1;-0.587043;-0.956988;-2.37188;-0.628044;-0.980692;-2.3523;0.870287;0.660504;-0.599872;2.90361;-0.31273;0.56353;522.045;166.636;8.40922;513.622;165.347;0;223;1;-0.587043;-0.956988;-2.37188;-0.552398;-0.969878;-2.35313;0.12171;0.169477;-0.392375;-1.94703;-1.20215;-0.907614;1;-0.0410006;-0.0237036;0.0195794;-0.587043;-0.956988;-2.37188; -nan;10.0246; -nan;1000;600;-2147482624;-2147482624;1024;930;1024;1024;1024;1;3;0;1300;15;9;0.0166968;0;0;0;-0.0820012;-0.0308147;0.033285; 
1173;1176;2019/07/17 13:12:38;0;519.381;164.667;8.33622;523.599;160.998;0;117;1;-0.576235;-0.955358;-2.39888;-0.612501;-0.973092;-2.36627;0.905;0.636312;-0.600919;2.80433;-0.495341;0.553045;519.381;164.667;8.33622;514.697;163.804;0;224;1;-0.576235;-0.955358;-2.39888;-0.559549;-0.965522;-2.36686;0.00868666;0.181723;-0.407568;-2.80674;-1.16114;-1.1981;1;-0.0362665;-0.0177341;0.0326049;-0.576235;-0.955358;-2.39888; -nan;9.76307; -nan;1000;600;-2147482624;-2147482624;1024;930;1024;1024;1024;1;3;0;1300;15;9;0.016698;0;0;0;-0.072533;-0.0230543;0.0554284; 
1174;1177;2019/07/17 13:12:38;0;515.714;162.81;8.30547;520.078;159.038;0;118;1;-0.556338;-0.949421;-2.41366;-0.595652;-0.965991;-2.38049;0.932815;0.603122;-0.625274;2.66035;-0.735909;0.396328;515.714;162.81;8.30547;514.34;162.152;0;225;1;-0.556338;-0.949421;-2.41366;-0.558586;-0.960692;-2.3809;-0.0866075;0.196958;-0.458036;-3.69563;-0.990878;-1.50021;1;-0.0393138;-0.0165694;0.0331671;-0.556338;-0.949421;-2.41366; -nan;9.25878; -nan;1000;600;-2147482624;-2147482624;1024;930;1024;1024;1024;1;3;0;1300;15;9;0.0166968;0;0;0;-0.0786276;-0.0215402;0.0563841; 
1175;1178;2019/07/17 13:12:38;0;512.304;160.957;8.33283;516.482;157.137;0;119;1;-0.534092;-0.936882;-2.41159;-0.577184;-0.957258;-2.38982;0.964133;0.577265;-0.633314;2.52539;-0.946081;0.255624;512.304;160.957;8.33283;513.023;160.421;0;226;1;-0.534092;-0.936882;-2.41159;-0.551238;-0.953549;-2.39011;-0.14743;0.219983;-0.50663;-4.49532;-0.703775;-1.83199;1;-0.0430925;-0.0203761;0.0217721;-0.534092;-0.936882;-2.41159; -nan;8.76835; -nan;1000;600;-2147482624;-2147482624;1024;930;1024;1024;1024;1;3;0;1300;15;9;0.016698;0;0;0;-0.0861851;-0.0264889;0.0370126; 
1176;1179;2019/07/17 13:12:38;0;509.422;159.333;8.30257;513.006;155.351;0;120;1;-0.518716;-0.932013;-2.42553;-0.559644;-0.949684;-2.40053;0.98621;0.551132;-0.6423;2.33692;-1.12517;0.11208;509.422;159.333;8.30257;511.178;158.709;0;227;1;-0.518716;-0.932013;-2.42553;-0.541481;-0.947088;-2.40073;-0.0306664;0.257254;-0.54785;-3.89326;-0.184569;-1.90951;1;-0.0409276;-0.0176715;0.0250001;-0.518716;-0.932013;-2.42553; -nan;8.40829; -nan;1000;600;-2147482624;-2147482624;1024;930;1024;1024;1024;1;3;0;1300;15;9;0.0166968;0;0;0;-0.0818553;-0.022973;0.0425002; 
1177;1180;2019/07/17 13:12:38;0;505.818;158;8.16592;509.391;153.74;0;121;1;-0.505373;-0.940692;-2.47043;-0.543362;-0.946987;-2.4215;0.999991;0.505815;-0.695184;2.09216;-1.36539;-0.271309;505.818;158;8.16592;508.722;157.102;0;228;1;-0.505373;-0.940692;-2.47043;-0.530649;-0.945169;-2.42164;0.00915678;0.275064;-0.63433;-3.22798;0.303238;-2.18349;1;-0.0379893;-0.00629485;0.0489264;-0.505373;-0.940692;-2.47043; -nan;7.9223; -nan;1000;600;-2147482624;-2147482624;1024;930;1024;1024;1024;1;3;0;1300;15;9;0.016698;0;0;0;-0.0759786;-0.0081833;0.0831748; 
1178;1181;2019/07/17 13:12:38;0;502.571;156.857;8.14395;505.793;152.315;0;122;1;-0.486843;-0.937284;-2.48079;-0.526407;-0.944076;-2.43929;1.0058;0.449687;-0.764428;1.79636;-1.66096;-0.819808;502.571;156.857;8.14395;505.939;155.633;0;229;1;-0.486843;-0.937284;-2.48079;-0.517507;-0.942804;-2.43939;0.144802;0.273138;-0.724985;-1.84459;0.595825;-2.63809;1;-0.0395635;-0.00679189;0.0415034;-0.486843;-0.937284;-2.48079; -nan;7.01845; -nan;1000;600;-2147482624;-2147482624;1024;930;1024;1024;1024;1;3;0;1300;15;9;0.0166968;0;0;0;-0.079127;-0.00882946;0.0705558; 
1179;1182;2019/07/17 13:12:38;0;499.571;156;8.16174;502.291;151.115;0;123;1;-0.46744;-0.930791;-2.47815;-0.508717;-0.94009;-2.45095;1.01786;0.401576;-0.796735;1.52842;-1.9338;-1.27372;499.571;156;8.16174;503.001;154.356;0;230;1;-0.46744;-0.930791;-2.47815;-0.502487;-0.9392;-2.45102;0.31471;0.268978;-0.771017;0.115087;0.705875;-3.03397;1;-0.0412764;-0.0092991;0.027205;-0.46744;-0.930791;-2.47815; -nan;6.20064; -nan;1000;600;-2147482624;-2147482624;1024;930;1024;1024;1024;1;3;0;1300;15;9;0.016698;0;0;0;-0.0825527;-0.0120888;0.0462485; 
1180;1183;2019/07/17 13:12:38;0;496.372;155.488;8.19656;498.799;150.186;0;124;1;-0.445977;-0.924192;-2.46927;-0.489895;-0.935321;-2.45645;1.03297;0.3634;-0.78131;1.31695;-2.11742;-1.38723;496.372;155.488;8.19656;499.892;153.328;0;231;1;-0.445977;-0.924192;-2.46927;-0.485534;-0.934698;-2.45649;0.480496;0.265173;-0.764443;2.33329;0.695884;-3.04376;1;-0.0439177;-0.0111287;0.0128257;-0.445977;-0.924192;-2.46927; -nan;5.55501; -nan;1000;600;-2147482624;-2147482624;1024;930;1024;1024;1024;1;3;0;1300;15;9;0.0166968;0;0;0;-0.0878353;-0.0144673;0.0218037; 
1181;1184;2019/07/17 13:12:38;0;493.07;154.14;8.14919;495.285;149.184;0;125;1;-0.428349;-0.922552;-2.48799;-0.471431;-0.93149;-2.46591;1.04202;0.320923;-0.772582;1.10115;-2.29394;-1.38839;493.07;154.14;8.14919;496.628;152.214;0;232;1;-0.428349;-0.922552;-2.48799;-0.468378;-0.931054;-2.46594;0.619124;0.248919;-0.761455;4.46055;0.533062;-2.84368;1;-0.0430824;-0.00893843;0.0220802;-0.428349;-0.922552;-2.48799; -nan;4.92411; -nan;1000;600;-2147482624;-2147482624;1024;930;1024;1024;1024;1;3;0;1300;15;9;0.016698;0;0;0;-0.0861648;-0.01162;0.0375363; 
1182;1185;2019/07/17 13:12:38;0;489.581;154.186;8.14542;491.7;148.571;0;126;1;-0.407177;-0.92322;-2.48899;-0.452155;-0.929009;-2.47283;1.05438;0.275104;-0.752212;0.932889;-2.47846;-1.27188;489.581;154.186;8.14542;493.198;151.481;0;233;1;-0.407177;-0.92322;-2.48899;-0.450018;-0.928704;-2.47286;0.736654;0.222753;-0.74483;5.73996;0.182091;-2.49268;1;-0.0449781;-0.00578886;0.0161562;-0.407177;-0.92322;-2.48899; -nan;4.25984; -nan;1000;600;-2147482624;-2147482624;1024;930;1024;1024;1024;1;3;0;1300;15;9;0.0166968;0;0;0;-0.0899562;-0.00752552;0.0274655; 
1183;1186;2019/07/17 13:12:38;0;486;153.561;8.10185;488.036;148.024;0;127;1;-0.387308;-0.924916;-2.50441;-0.432701;-0.927781;-2.4823;1.07447;0.241743;-0.694091;0.8571;-2.54144;-0.758765;486;153.561;8.10185;489.621;150.81;0;234;1;-0.387308;-0.924916;-2.50441;-0.431205;-0.927567;-2.48232;0.839035;0.20393;-0.689165;6.75739;-0.174756;-1.71454;1;-0.0453926;-0.00286531;0.0221016;-0.387308;-0.924916;-2.50441; -nan;3.78925; -nan;1000;600;-2147482624;-2147482624;1024;930;1024;1024;1024;1;3;0;1300;15;9;0.016698;0;0;0;-0.0907851;-0.00372491;0.0375728; 
1184;1187;2019/07/17 13:12:38;0;482.8;153.6;8.03519;484.441;147.734;0;128;1;-0.370649;-0.932795;-2.52505;-0.414085;-0.929285;-2.49513;1.09315;0.204099;-0.639407;0.863007;-2.50542;0.0439139;482.8;153.6;8.03519;486.065;150.395;0;235;1;-0.370649;-0.932795;-2.52505;-0.413038;-0.929136;-2.49514;0.920528;0.176929;-0.636104;7.15162;-0.488983;-0.673854;1;-0.0434364;0.00350964;0.0299253;-0.370649;-0.932795;-2.52505; -nan;3.32189; -nan;1000;600;-2147482624;-2147482624;1024;930;1024;1024;1024;1;3;0;1300;15;9;0.0166968;0;0;0;-0.0868728;0.00456253;0.0508731; 
1185;1188;2019/07/17 13:12:38;0;479;154;8.04317;480.708;147.741;0;129;1;-0.346706;-0.933977;-2.52124;-0.393872;-0.930693;-2.50296;1.11443;0.15998;-0.591322;0.903384;-2.46787;0.846497;479;154;8.04317;482.335;150.278;0;236;1;-0.346706;-0.933977;-2.52124;-0.393139;-0.930588;-2.50297;0.988906;0.14054;-0.589095;6.9828;-0.806196;0.322035;1;-0.0471652;0.00328445;0.0182784;-0.346706;-0.933977;-2.52124; -nan;2.61486; -nan;1000;600;-2147482624;-2147482624;1024;930;1024;1024;1024;1;3;0;1300;15;9;0.016698;0;0;0;-0.0943304;0.00426979;0.0310732; 
1186;1189;2019/07/17 13:12:38;0;475.07;154.14;8.07302;476.836;147.878;0;130;1;-0.321131;-0.931256;-2.51146;-0.372049;-0.930862;-2.50551;1.13918;0.113792;-0.550705;0.966085;-2.47733;1.42864;475.07;154.14;8.07302;478.444;150.294;0;237;1;-0.321131;-0.931256;-2.51146;-0.371536;-0.930788;-2.50552;1.0485;0.0999317;-0.549195;6.4575;-1.14347;1.05263;1;-0.0509183;0.000393808;0.00594854;-0.321131;-0.931256;-2.51146; -nan;1.81972; -nan;1000;600;-2147482624;-2147482624;1024;930;1024;1024;1024;1;3;0;1300;15;9;0.0166968;0;0;0;-0.101837;0.00051195;0.0101125; 
1187;1190;2019/07/17 13:12:38;0;471.277;155.319;8.00175;472.911;148.436;0;131;1;-0.300337;-0.945797;-2.52995;-0.350536;-0.935342;-2.51284;1.16621;0.0528947;-0.517818;1.07548;-2.55655;1.87437;471.277;155.319;8.00175;474.482;150.734;0;238;1;-0.300337;-0.945797;-2.52995;-0.350177;-0.935291;-2.51285;1.10104;0.0430415;-0.51679;5.7986;-1.50808;1.60843;1;-0.0501987;0.0104544;0.0171027;-0.300337;-0.945797;-2.52995; -nan;1.05845; -nan;1000;600;-2147482624;-2147482624;1024;930;1024;1024;1024;1;3;0;1300;15;9;0.016698;0;0;0;-0.100397;0.0135907;0.0290746; 
1188;1191;2019/07/17 13:12:38;0;467.348;156.826;7.92366;468.907;149.401;0;132;1;-0.278555;-0.963175;-2.54986;-0.328941;-0.943692;-2.52395;1.19168;-0.0268872;-0.514785;1.19345;-2.73969;2.0726;488;159;7.97024;477.02;152.278;0;239;1;-0.406226;-0.969103;-2.52777;-0.366991;-0.945435;-2.51732;0.992117;-0.0409751;-0.487623;4.49913;-1.95782;1.99199;1;0.0772841;0.025411;0.00382519;-0.406226;-0.969103;-2.52777;8.97489;0.097862;8.97489;1000;1045;1175;1051;1024;930;1024;1024;1024;1;3;0;1300;15;9;0.0166968;0;0;0;0.154568;0.0330343;0.00650282; 
1189;1192;2019/07/17 13:12:38;0;463.478;158;7.82376;464.869;150.549;0;133;1;-0.257432;-0.981831;-2.57847;-0.307489;-0.955134;-2.54031;1.21494;-0.125343;-0.54045;1.27693;-3.10947;1.857;487;158;8.04741;478.617;153.126;0;240;1;-0.396129;-0.954544;-2.50681;-0.375733;-0.948167;-2.51417;0.816751;-0.106834;-0.419736;2.61051;-2.41546;2.27093;1;0.0886405;-0.000589371;-0.0334966;-0.396129;-0.954544;-2.50681;10.4554;-2.00765;10.4554;1000;1102;1279;959;1024;930;1024;1024;1024;1;3;0;1300;15;9;0.016698;0;0;0;0.177281;-0.000766182;-0.0569443; 
1190;1193;2019/07/17 13:12:38;0;459.8;159.8;7.80017;460.87;152.025;0;134;1;-0.23468;-0.994578;-2.58019;-0.285646;-0.966967;-2.55227;1.24178;-0.225658;-0.552411;1.35961;-3.58157;1.46155;485;158;7.98026;479.206;153.783;0;241;1;-0.386957;-0.962577;-2.5279;-0.3791;-0.95249;-2.51829;0.625554;-0.157347;-0.344268;0.388578;-2.78392;2.52775;1;0.101311;-0.00439;-0.0243647;-0.386957;-0.962577;-2.5279;13.0668;-3.68332;13.0668;1000;1169;1428;944;1024;930;1024;1024;1024;1;3;0;1300;15;9;0.0166968;0;0;0;0.202622;-0.005707;-0.04142; 
1191;1194;2019/07/17 13:12:38;0;455.769;162.115;7.8218;456.79;153.897;0;135;1;-0.208316;-1.00437;-2.56524;-0.262447;-0.978188;-2.55616;1.26981;-0.325026;-0.543852;1.43614;-4.08542;1.06646;483;159;7.91057;479.057;154.617;0;242;1;-0.377749;-0.976412;-2.54684;-0.378695;-0.959667;-2.52685;0.433001;-0.210509;-0.301921;-1.98638;-3.07197;2.66323;1;0.115303;-0.00177562;-0.00932264;-0.377749;-0.976412;-2.54684;15.7323;-5.21116;15.7323;1000;1239;1581;959;1024;930;1024;1024;1024;1;3;0;1300;15;9;0.016698;0;0;0;0.230605;-0.00230831;-0.0158485; 
1192;1195;2019/07/17 13:12:38;0;452.784;164.627;7.74389;452.989;156.114;0;136;1;-0.191178;-1.02822;-2.5825;-0.241066;-0.993197;-2.56406;1.28486;-0.443901;-0.56009;1.44334;-4.67795;0.602403;482;158;8.12331;478.69;154.939;0;243;1;-0.361714;-0.945626;-2.48339;-0.373601;-0.955455;-2.51381;0.251559;-0.224789;-0.214278;-4.37371;-3.13967;2.93514;1;0.120648;-0.0475708;-0.0806766;-0.361714;-0.945626;-2.48339;16.6544;-8.05143;16.6544;1000;1304;1682;833;1024;930;1024;1024;1024;1;3;0;1300;15;9;0.0166968;0;0;0;0.241296;-0.0618421;-0.13715; 
1193;1196;2019/07/17 13:12:38;0;448.039;167.333;7.7156;448.83;158.636;0;137;1;-0.161191;-1.04685;-2.58273;-0.217103;-1.00929;-2.56966;1.30367;-0.5616;-0.562924;1.41486;-5.26026;0.181347;480;159;8.23994;477.843;155.524;0;244;1;-0.344482;-0.937383;-2.44504;-0.364865;-0.950033;-2.49318;0.0922889;-0.193734;-0.0500507;-6.65179;-2.82916;3.62461;1;0.127379;-0.0719095;-0.124628;-0.344482;-0.937383;-2.44504;18.0409;-10.4289;18.0409;1000;1367;1792;735;1024;930;1024;1024;1024;1;3;0;1300;15;9;0.016698;0;0;0;0.254758;-0.0934824;-0.211868; 
1194;1197;2019/07/17 13:12:38;0;444;170.583;7.75273;444.641;161.547;0;138;1;-0.13442;-1.0596;-2.55931;-0.192299;-1.02438;-2.56656;1.32777;-0.659135;-0.507876;1.39231;-5.68053;0.136393;478;159;8.1804;476.646;155.979;0;245;1;-0.33479;-0.944205;-2.46283;-0.355843;-0.948285;-2.48408;0.0998859;-0.12762;0.102719;-7.55343;-2.04344;4.53179;1;0.142491;-0.080178;-0.103725;-0.33479;-0.944205;-2.46283;18.9308;-12.1528;18.9308;1000;1405;1846;716;1024;930;1024;1024;1024;1;3;0;1300;15;9;0.0166968;0;0;0;0.284983;-0.104231;-0.176333; 
1195;1198;2019/07/17 13:12:38;0;439.915;173.66;7.64185;440.418;164.677;0;139;1;-0.109696;-1.09202;-2.58583;-0.167518;-1.04468;-2.57234;1.35553;-0.752994;-0.432627;1.39671;-5.91433;0.512336;476;160;8.22297;475.195;156.656;0;246;1;-0.32092;-0.944471;-2.44688;-0.345366;-0.94714;-2.47292;0.181175;-0.0724717;0.226339;-7.06969;-1.08887;5.29862;1;0.153403;-0.100205;-0.12546;-0.32092;-0.944471;-2.44688;18.1838;-14.0615;18.1838;1000;1413;1810;672;1024;930;1024;1024;1024;1;3;0;1300;15;9;0.016698;0;0;0;0.306805;-0.130266;-0.213283; 
1196;1199;2019/07/17 13:12:38;0;436;177;7.69907;436.227;168.042;0;140;1;-0.0835071;-1.10229;-2.55518;-0.142315;-1.06196;-2.56719;1.38559;-0.831075;-0.319152;1.41222;-5.96585;1.23873;474;161;8.20566;473.561;157.492;0;247;1;-0.309435;-0.951626;-2.44883;-0.334587;-0.948486;-2.46569;0.28643;-0.027495;0.345818;-5.59581;-0.134868;5.93444;1;0.16712;-0.110335;-0.118364;-0.309435;-0.951626;-2.44883;18.033;-15.5142;18.033;1000;1412;1763;690;1024;930;1024;1024;1024;1;3;0;1300;15;9;0.0166968;0;0;0;0.334241;-0.143435;-0.201218; 
1197;1200;2019/07/17 13:12:38;0;431.773;180.227;7.67471;431.963;171.535;0;141;1;-0.0562871;-1.12361;-2.5522;-0.116506;-1.08045;-2.56269;1.41405;-0.906965;-0.217572;1.42326;-5.90301;2.04597;472;161;8.27925;471.792;158.122;0;248;1;-0.29463;-0.943167;-2.42706;-0.3226;-0.94689;-2.4541;0.395826;0.0345149;0.497971;-3.50592;0.897371;6.75434;1;0.178124;-0.137287;-0.135633;-0.29463;-0.943167;-2.42706;17.2496;-17.2802;17.2496;1000;1401;1679;666;1024;930;1024;1024;1024;1;3;0;1300;15;9;0.016698;0;0;0;0.356248;-0.178473;-0.230577; 
1198;1201;2019/07/17 13:12:38;0;427.767;183.349;7.68316;427.72;175.079;0;142;1;-0.0302122;-1.13959;-2.53869;-0.0906181;-1.09819;-2.55549;1.44912;-0.963399;-0.0963138;1.50981;-5.616;3.0793;470;162;8.01271;469.929;158.919;0;249;1;-0.291976;-0.979829;-2.50451;-0.313413;-0.956772;-2.46922;0.477805;0.0154498;0.476825;-1.20023;1.49761;6.81193;1;0.201358;-0.118365;-0.0509863;-0.291976;-0.979829;-2.50451;17.8888;-17.787;17.8888;1000;1389;1631;799;1024;930;1024;1024;1024;1;3;0;1300;15;9;0.0166968;0;0;0;0.402716;-0.153874;-0.0866767; 
1199;1202;2019/07/17 13:12:38;0;423.854;186.878;7.71314;423.523;178.783;0;143;1;-0.00477469;-1.15454;-2.51676;-0.0648651;-1.1151;-2.54387;1.47732;-1.00049;0.0451955;1.5992;-5.12195;4.27562;469;163;8.07323;468.315;159.834;0;250;1;-0.283606;-0.977732;-2.48247;-0.304471;-0.96306;-2.4732;0.527816;-0.0427418;0.36589;1.01876;1.50142;5.74786;1;0.218741;-0.137366;-0.0614042;-0.283606;-0.977732;-2.48247;17.9644;-18.7707;17.9644;1000;1375;1570;915;1024;930;1024;1024;1024;1;3;0;1300;15;9;0.016698;0;0;0;0.437483;-0.178576;-0.104387; 
1200;1203;2019/07/17 13:12:38;0;420.476;189.667;7.74918;419.534;182.359;0;144;1;0.0169963;-1.16442;-2.49556;-0.0403067;-1.12989;-2.52938;1.49325;-1.02157;0.17556;1.6202;-4.52025;5.29412;466;164;8.25572;466.247;160.834;0;251;1;-0.259204;-0.961252;-2.4244;-0.290891;-0.962517;-2.45856;0.576019;-0.0824713;0.321426;2.51228;1.08112;4.32194;1;0.218898;-0.168643;-0.10498;-0.259204;-0.961252;-2.4244;17.3685;-19.7536;17.3685;1000;1360;1508;990;1024;930;1024;1024;1024;1;3;0;1300;15;9;0.0166968;0;0;0;0.437796;-0.219235;-0.178466; 
1201;1204;2019/07/17 13:12:38;0;417.179;192.974;7.77368;415.724;186.001;0;145;1;0.0381046;-1.17878;-2.47648;-0.0167833;-1.14456;-2.51351;1.49779;-1.01175;0.34022;1.54012;-3.74528;6.26222;465;165;8.07557;464.487;161.891;0;252;1;-0.258808;-0.987942;-2.47522;-0.281266;-0.970145;-2.46356;0.60154;-0.141332;0.230234;3.18574;0.373736;2.60871;1;0.242025;-0.156617;-0.0382915;-0.258808;-0.987942;-2.47522;17.9078;-19.3484;17.9078;1000;1349;1501;1180;1024;930;1024;1024;1024;1;3;0;1300;15;9;0.0166978;0;0;0;0.484049;-0.203602;-0.0650955; 
1202;1205;2019/07/17 13:12:38;0;413.949;195.692;7.86299;412.065;189.496;0;146;1;0.0581746;-1.18003;-2.43924;0.00570408;-1.1552;-2.49123;1.48966;-0.979333;0.507417;1.3396;-2.83912;7.05757;462;166;8.11359;462.314;162.988;0;253;1;-0.239144;-0.988534;-2.46037;-0.268629;-0.975662;-2.4626;0.624267;-0.193302;0.150477;3.2603;-0.437765;0.785302;1;0.244849;-0.166668;-0.0308599;-0.239144;-0.988534;-2.46037;17.6569;-19.0403;17.6569;1000;1334;1486;1326;1024;930;1024;1024;1024;1;3;0;1300;15;9;0.016697;0;0;0;0.489697;-0.216668;-0.0524619; 
1203;1206;2019/07/17 13:12:38;0;411;199;7.83452;408.609;193.066;0;147;1;0.0771671;-1.20221;-2.43698;0.027143;-1.1693;-2.47495;1.46735;-0.942351;0.654767;1.01655;-1.84476;7.71753;459;167;8.02525;459.843;164.112;0;254;1;-0.223123;-1.0047;-2.48417;-0.254978;-0.984372;-2.46907;0.644551;-0.265632;0.030517;2.94926;-1.46104;-1.3952;1;0.250266;-0.164609;0.00921464;-0.223123;-1.0047;-2.48417;17.2933;-18.409;17.2933;1000;1318;1474;1499;1024;930;1024;1024;1024;1;3;0;1300;15;9;0.0166978;0;0;0;0.500533;-0.213991;0.0156649; 
1204;1207;2019/07/17 13:12:39;0;408.222;201.333;7.88716;405.354;196.374;0;148;1;0.0942262;-1.20672;-2.41292;0.047268;-1.18053;-2.45634;1.43095;-0.894151;0.788729;0.537346;-0.830372;8.16422;458;167;8.18485;457.795;164.933;0;255;1;-0.212676;-0.985105;-2.43573;-0.242287;-0.984592;-2.45907;0.670709;-0.270453;0.0588505;2.53975;-2.01813;-2.50594;1;0.259944;-0.195425;-0.0206134;-0.212676;-0.985105;-2.43573;16.7739;-18.2794;16.7739;1000;1315;1457;1548;1024;930;1024;1024;1024;1;3;0;1300;15;9;0.016697;0;0;0;0.519888;-0.254052;-0.0350428; 
1205;1208;2019/07/17 13:12:39;0;405.829;204.857;7.86192;402.368;199.866;0;149;1;0.109721;-1.22959;-2.40885;0.066004;-1.19525;-2.44209;1.38109;-0.856498;0.879599;-0.0618009;0.0766927;8.23006;455.333;167.333;8.22968;455.524;165.638;0;256;1;-0.195348;-0.981454;-2.42139;-0.228206;-0.98365;-2.44777;0.706925;-0.244482;0.136842;2.23897;-2.01636;-2.41807;1;0.261352;-0.213792;-0.0207021;-0.195348;-0.981454;-2.42139;15.79;-18.0601;15.79;1000;1307;1418;1549;1024;930;1024;1024;1024;1;3;0;1300;15;9;0.0166978;0;0;0;0.522705;-0.27793;-0.0351936; 
1206;1209;2019/07/17 13:12:39;0;404;207;7.92559;399.758;203.045;0;150;1;0.120353;-1.23116;-2.38237;0.0823085;-1.20602;-2.42418;1.31822;-0.81785;0.9478;-0.735916;0.8594;8.02135;453;168;8.19285;453.199;166.365;0;257;1;-0.182015;-0.989314;-2.43013;-0.214348;-0.985349;-2.44248;0.729761;-0.237849;0.146309;1.95722;-1.83018;-2.15002;1;0.264324;-0.216707;0.00595665;-0.182015;-0.989314;-2.43013;15.0303;-17.5051;15.0303;1000;1306;1384;1578;1024;930;1024;1024;1024;1;3;0;1300;15;9;0.016697;0;0;0;0.528647;-0.28172;0.0101263; 
1207;1210;2019/07/17 13:12:39;0;402.171;209.486;7.97746;397.42;206.103;0;151;1;0.131008;-1.23636;-2.35866;0.0969184;-1.21512;-2.40452;1.24491;-0.772445;1.00384;-1.45122;1.4711;7.46243;451;167;8.17379;450.942;166.573;0;258;1;-0.17023;-0.986437;-2.43902;-0.201113;-0.985676;-2.44144;0.757879;-0.204718;0.176082;1.79854;-1.35119;-1.50622;1;0.267148;-0.228685;0.034502;-0.17023;-0.986437;-2.43902;13.9997;-17.0302;13.9997;1000;1298;1336;1578;1024;930;1024;1024;1024;1;3;0;1300;15;9;0.0166978;0;0;0;0.534296;-0.297291;0.0586535; 
1208;1211;2019/07/17 13:12:39;0;400.686;212.4;7.95645;395.388;209.204;0;152;1;0.140672;-1.25514;-2.35524;0.110044;-1.22713;-2.38974;1.16354;-0.750649;1.00753;-2.17284;1.79573;6.47427;449;166;8.21611;448.737;166.405;0;259;1;-0.157206;-0.976199;-2.42967;-0.187941;-0.982833;-2.43791;0.776888;-0.151462;0.204231;1.68848;-0.643662;-0.689113;1;0.267251;-0.25093;0.0399323;-0.157206;-0.976199;-2.42967;12.844;-17.1436;12.844;1000;1279;1283;1522;1024;930;1024;1024;1024;1;3;0;1300;15;9;0.016697;0;0;0;0.534501;-0.326208;0.0678848; 
1209;1212;2019/07/17 13:12:39;0;399.333;214.889;7.92435;393.618;212.198;0;153;1;0.149757;-1.27353;-2.3565;0.121958;-1.24105;-2.37977;1.07669;-0.73685;0.984581;-2.86346;1.89794;5.20141;446;166;8.31262;446.251;166.283;0;260;1;-0.137372;-0.964866;-2.40146;-0.17277;-0.977443;-2.42698;0.794357;-0.0632119;0.290611;1.61121;0.421992;0.624996;1;0.259331;-0.276184;0.0216973;-0.137372;-0.964866;-2.40146;11.4699;-17.4466;11.4699;1000;1243;1223;1404;1024;930;1024;1024;1024;1;3;0;1300;15;9;0.0166978;0;0;0;0.518661;-0.35904;0.0368854; 
1210;1213;2019/07/17 13:12:39;0;398.176;217.176;7.98732;392.098;215.045;0;154;1;0.155804;-1.27563;-2.33037;0.132112;-1.25142;-2.36495;0.984773;-0.725171;0.955664;-3.49951;1.81345;3.78737;445;165;8.28911;444.201;165.875;0;261;1;-0.131742;-0.962492;-2.41145;-0.160462;-0.972957;-2.42232;0.803313;0.00852463;0.321095;1.49617;1.36705;1.42204;1;0.263854;-0.288933;0.0465071;-0.131742;-0.962492;-2.41145;10.5241;-17.5245;10.5241;1000;1229;1179;1351;1024;930;1024;1024;1024;1;3;0;1300;15;9;0.016697;0;0;0;0.527708;-0.375612;0.0790621; 
1211;1214;2019/07/17 13:12:39;0;397.484;219.613;7.96988;390.906;217.831;0;155;1;0.160481;-1.29137;-2.32741;0.140623;-1.26341;-2.35369;0.888794;-0.707253;0.926386;-4.06528;1.68396;2.45923;443;164;8.2467;442.149;165.26;0;262;1;-0.120318;-0.962303;-2.42705;-0.148419;-0.969761;-2.42374;0.800548;0.0605703;0.28859;1.27151;2.0382;1.4591;1;0.260941;-0.301106;0.0733633;-0.120318;-0.962303;-2.42705;9.40173;-17.4911;9.40173;1000;1225;1135;1331;1024;930;1024;1024;1024;1;3;0;1300;15;9;0.0166978;0;0;0;0.521881;-0.391437;0.124718; 
1212;1215;2019/07/17 13:12:39;0;396.71;221.613;7.97029;389.922;220.43;0;156;1;0.16532;-1.30194;-2.32068;0.148032;-1.27497;-2.34378;0.79569;-0.699633;0.876815;-4.52546;1.48238;1.19212;442;163;8.30834;440.417;164.496;0;263;1;-0.113419;-0.950064;-2.41222;-0.137919;-0.963852;-2.42028;0.785485;0.122174;0.261768;0.985388;2.66036;1.33645;1;0.261451;-0.324904;0.0684321;-0.113419;-0.950064;-2.41222;8.5325;-17.8624;8.5325;1000;1217;1104;1288;1024;930;1024;1024;1024;1;3;0;1300;15;9;0.016697;0;0;0;0.522902;-0.422375;0.116335; 
1213;1216;2019/07/17 13:12:39;0;396.074;223.185;7.99329;389.13;222.754;0;157;1;0.168813;-1.30653;-2.30882;0.154266;-1.28443;-2.33329;0.706386;-0.696524;0.810485;-4.86542;1.19256;-0.0567244;442;161;8.31138;439.235;163.307;0;264;1;-0.113378;-0.939521;-2.41768;-0.130556;-0.956553;-2.4195;0.752997;0.189582;0.24466;0.571741;3.17051;1.07567;1;0.267644;-0.344914;0.0843849;-0.113378;-0.939521;-2.41768;8.0246;-18.227;8.0246;1000;1215;1091;1260;1024;930;1024;1024;1024;1;3;0;1300;15;9;0.0166978;0;0;0;0.535288;-0.448388;0.143454; 
1214;1217;2019/07/17 13:12:39;0;395.429;224.857;8.02999;388.47;224.908;0;158;1;0.172052;-1.30938;-2.29278;0.159602;-1.29192;-2.32114;0.6217;-0.676596;0.760187;-5.08266;1.01121;-1.02162;441.333;159.333;8.13533;438.239;161.916;0;265;1;-0.111742;-0.951173;-2.4754;-0.124912;-0.954939;-2.43627;0.703449;0.22512;0.153341;0.0498278;3.40587;0.44222;1;0.271344;-0.340744;0.15426;-0.111742;-0.951173;-2.4754;7.66587;-17.8235;7.66587;1000;1233;1090;1315;1024;930;1024;1024;1024;1;3;0;1300;15;9;0.016697;0;0;0;0.542688;-0.442968;0.262243; 
