ID;RS_ID;insect_log;imLx_drone;imLy_drone;disparity_drone;imLx_pred_drone;imLy_pred_drone;n_frames_lost_drone;n_frames_tracking_drone;foundL_drone;posX_drone;posY_drone;posZ_drone;sposX_drone;sposY_drone;sposZ_drone;svelX_drone;svelY_drone;svelZ_drone;saccX_drone;saccY_drone;saccZ_drone;imLx_insect;imLy_insect;disparity_insect;imLx_pred_insect;imLy_pred_insect;n_frames_lost_insect;n_frames_tracking_insect;foundL_insect;posX_insect;posY_insect;posZ_insect;sposX_insect;sposY_insect;sposZ_insect;svelX_insect;svelY_insect;svelZ_insect;saccX_insect;saccY_insect;saccZ_insect;valid;posErrX;posErrY;posErrZ;velX;velY;velZ;accX;accY;accZ;hoverthrottle;autoThrottle;autoRoll;autoPitch;autoYaw;joyThrottle;joyRoll;joyPitch;joyYaw;joyArmSwitch;joyModeSwitch;joyTakeoffSwitch;dt;dx;dy;dz;velx_sp;vely_sp;velz_sp;Unnamed: 73;time
557.0;558.0;0.0;-1.0;-1.0;-1.0;-1.0;-1.0;100.0;0.0;0.0;0.0;0.0;0.0;0.0;0.0;0.0;0.0;0.0;0.0;0.0;0.0;0.0;482.727;7.81818;10.8777;482.727;7.81818;0.0;1.0;1.0;-0.273459;-0.168466;-2.21541;-0.273459;-0.168466;-2.21541;0.0;0.0;0.0;0.0;0.0;0.0;0.0;0.0;0.0;0.0;0.0;0.0;0.0;0.0;0.0;0.0;675.0;228.0;1024.0;1024.0;1024.0;863.0;1024.0;1024.0;1024.0;1.0;3.0;0.0;0.0;0.0;0.0;0.0;0.0;0.0;0.0;;1970-01-01 00:00:00.000
558.0;559.0;0.0;-1.0;-1.0;-1.0;-1.0;-1.0;101.0;0.0;0.0;0.0;0.0;0.0;0.0;0.0;0.0;0.0;0.0;0.0;0.0;0.0;0.0;478.222;14.6667;11.0189;482.31800000000004;8.44077;0.0;2.0;1.0;-0.249554;-0.19228499999999998;-2.17008;-0.266287;-0.175612;-2.20181;0.0;0.0;0.0;0.0;0.0;0.0;0.0;0.249554;0.44228500000000004;1.5;-0.249554;-0.44228500000000004;-2.17008;4.7415199999999995;9.15354;4.7415199999999995;675.0;650.0;1097.0;1088.0;1024.0;863.0;1024.0;1024.0;1024.0;1.0;3.0;0.0;0.0;0.0;0.0;0.0;0.49910699999999997;0.574971;2.55;;1970-01-01 00:00:00.011
559.0;560.0;0.0;-1.0;-1.0;-1.0;-1.0;-1.0;102.0;0.0;0.0;0.0;0.0;0.0;0.0;0.0;0.0;0.0;0.0;0.0;0.0;0.0;0.0;474.0;25.0;10.7644;480.981;11.1024;0.0;3.0;1.0;-0.235881;-0.23695500000000003;-2.19522;-0.25716500000000003;-0.19401500000000002;-2.19983;0.0;0.0;0.0;0.0;0.0;0.0;0.0;0.235881;0.486955;1.5;-0.235881;-0.486955;-2.19522;4.481730000000001;10.078;4.481730000000001;675.0;650.0;1097.0;1093.0;1024.0;863.0;1024.0;1024.0;1024.0;1.0;3.0;0.0;0.0;0.0;0.0;0.0;0.471761;0.633041;2.55;;1970-01-01 00:00:00.022
559.0;560.0;0.0;-1.0;-1.0;-1.0;-1.0;-1.0;102.0;0.0;0.0;0.0;0.0;0.0;0.0;0.0;0.0;0.0;0.0;0.0;0.0;0.0;0.0;474.0;25.0;10.7644;480.981;11.1024;0.0;3.0;1.0;-0.235881;-0.23695500000000003;-2.19522;-0.25716500000000003;-0.19401500000000002;-2.19983;0.0;0.0;0.0;0.0;0.0;0.0;0.0;0.235881;0.486955;1.5;-0.235881;-0.486955;-2.19522;4.481730000000001;10.078;4.481730000000001;675.0;650.0;1097.0;1093.0;1024.0;863.0;1024.0;1024.0;1024.0;1.0;3.0;0.0;0.0;0.0;0.0;0.0;0.471761;0.633041;2.55;;1970-01-01 00:00:00.033
560.0;561.0;0.0;-1.0;-1.0;-1.0;-1.0;-1.0;103.0;0.0;0.0;0.0;0.0;0.0;0.0;0.0;0.0;0.0;0.0;0.0;0.0;0.0;0.0;471.538;34.4615;10.5165;479.015;15.9636;0.0;4.0;1.0;-0.22976100000000002;-0.280145;-2.22244;-0.248944;-0.219854;-2.20661;0.0;0.0;0.0;0.0;0.0;0.0;0.0;0.22976100000000002;0.530145;1.5;-0.22976100000000002;-0.530145;-2.22244;4.365469999999999;10.9719;4.365469999999999;675.0;650.0;1099.0;1099.0;1024.0;863.0;1024.0;1024.0;1024.0;1.0;3.0;0.0;0.0;0.0;0.0;0.0;0.45952299999999996;0.689189;2.55;;1970-01-01 00:00:00.044
561.0;562.0;0.0;-1.0;-1.0;-1.0;-1.0;-1.0;104.0;0.0;0.0;0.0;0.0;0.0;0.0;0.0;0.0;0.0;0.0;0.0;0.0;0.0;0.0;469.86699999999996;40.6667;10.7017;476.836;21.8469;0.0;5.0;1.0;-0.217991;-0.299534;-2.16818;-0.23965799999999998;-0.243758;-2.19509;0.0;0.0;0.0;0.0;0.0;0.0;0.0;0.217991;0.549534;1.5;-0.217991;-0.549534;-2.16818;4.14182;11.3731;4.14182;675.0;650.0;1098.0;1092.0;1024.0;863.0;1024.0;1024.0;1024.0;1.0;3.0;0.0;0.0;0.0;0.0;0.0;0.43598100000000006;0.714394;2.55;;1970-01-01 00:00:00.055
561.0;562.0;0.0;-1.0;-1.0;-1.0;-1.0;-1.0;104.0;0.0;0.0;0.0;0.0;0.0;0.0;0.0;0.0;0.0;0.0;0.0;0.0;0.0;0.0;469.86699999999996;40.6667;10.7017;476.836;21.8469;0.0;5.0;1.0;-0.217991;-0.299534;-2.16818;-0.23965799999999998;-0.243758;-2.19509;0.0;0.0;0.0;0.0;0.0;0.0;0.0;0.217991;0.549534;1.5;-0.217991;-0.549534;-2.16818;4.14182;11.3731;4.14182;675.0;650.0;1098.0;1092.0;1024.0;863.0;1024.0;1024.0;1024.0;1.0;3.0;0.0;0.0;0.0;0.0;0.0;0.43598100000000006;0.714394;2.55;;1970-01-01 00:00:00.066
562.0;563.0;0.0;-1.0;-1.0;-1.0;-1.0;-1.0;105.0;0.0;0.0;0.0;0.0;0.0;0.0;0.0;0.0;0.0;0.0;0.0;0.0;0.0;0.0;467.778;47.3333;10.4874;474.506;28.3971;0.0;6.0;1.0;-0.21250500000000003;-0.33222199999999996;-2.19515;-0.231512;-0.27029699999999995;-2.1951;0.0;0.0;0.0;0.0;0.0;0.0;0.0;0.21250500000000003;0.582222;1.5;-0.21250500000000003;-0.582222;-2.19515;4.03759;12.0497;4.03759;675.0;650.0;1099.0;1098.0;1024.0;863.0;1024.0;1024.0;1024.0;1.0;3.0;0.0;0.0;0.0;0.0;0.0;0.425009;0.756889;2.55;;1970-01-01 00:00:00.077
563.0;564.0;0.0;-1.0;-1.0;-1.0;-1.0;-1.0;106.0;0.0;0.0;0.0;0.0;0.0;0.0;0.0;0.0;0.0;0.0;0.0;0.0;0.0;0.0;466.222;55.3333;10.5049;472.269;35.6509;0.0;7.0;1.0;-0.204763;-0.363502;-2.17075;-0.223487;-0.298259;-2.1878;0.0;0.0;0.0;0.0;0.0;0.0;0.0;0.204763;0.613502;1.5;-0.204763;-0.613502;-2.17075;3.8904900000000002;12.697000000000001;3.8904900000000002;675.0;650.0;1099.0;1096.0;1024.0;863.0;1024.0;1024.0;1024.0;1.0;3.0;0.0;0.0;0.0;0.0;0.0;0.409526;0.797552;2.55;;1970-01-01 00:00:00.088
563.0;564.0;0.0;-1.0;-1.0;-1.0;-1.0;-1.0;106.0;0.0;0.0;0.0;0.0;0.0;0.0;0.0;0.0;0.0;0.0;0.0;0.0;0.0;0.0;466.222;55.3333;10.5049;472.269;35.6509;0.0;7.0;1.0;-0.204763;-0.363502;-2.17075;-0.223487;-0.298259;-2.1878;0.0;0.0;0.0;0.0;0.0;0.0;0.0;0.204763;0.613502;1.5;-0.204763;-0.613502;-2.17075;3.8904900000000002;12.697000000000001;3.8904900000000002;675.0;650.0;1099.0;1096.0;1024.0;863.0;1024.0;1024.0;1024.0;1.0;3.0;0.0;0.0;0.0;0.0;0.0;0.409526;0.797552;2.55;;1970-01-01 00:00:00.099
564.0;565.0;0.0;-1.0;-1.0;-1.0;-1.0;-1.0;107.0;0.0;0.0;0.0;0.0;0.0;0.0;0.0;0.0;0.0;0.0;0.0;0.0;0.0;0.0;466.0;64.0;10.4926;470.50699999999995;43.5359;0.0;8.0;1.0;-0.20394600000000002;-0.398452;-2.15078;-0.217625;-0.328316;-2.1766900000000002;0.493546;-1.38695;0.26563400000000004;1.97045;-5.537319999999999;1.06053;0.0;0.20394600000000002;0.648452;1.5;-0.20394600000000002;-0.648452;-2.15078;-0.813715;13.4204;-0.813715;675.0;650.0;1101.0;1095.0;1024.0;863.0;1024.0;1024.0;1024.0;1.0;3.0;0.0;0.0;0.0;0.0;0.0;0.40789200000000003;0.842987;2.55;;1970-01-01 00:00:00.110
565.0;566.0;0.0;-1.0;-1.0;-1.0;-1.0;-1.0;108.0;0.0;0.0;0.0;0.0;0.0;0.0;0.0;0.0;0.0;0.0;0.0;0.0;0.0;0.0;465.0;69.0;10.4445;468.908;50.8348;0.0;9.0;1.0;-0.200107;-0.42029399999999995;-2.14762;-0.212369;-0.35591;-2.16797;0.474972;-1.47853;0.286584;3.07857;-9.22531;1.7804900000000001;0.0;0.00627938;0.670294;1.5;-0.00627938;-0.670294;-2.0433;-4.392930000000001;13.8724;-4.392930000000001;675.0;650.0;1070.0;1078.0;1024.0;863.0;1024.0;1024.0;1024.0;1.0;3.0;0.0;0.0;0.0;0.0;0.0;0.0125588;0.871382;2.55;;1970-01-01 00:00:00.121
565.0;566.0;0.0;-1.0;-1.0;-1.0;-1.0;-1.0;108.0;0.0;0.0;0.0;0.0;0.0;0.0;0.0;0.0;0.0;0.0;0.0;0.0;0.0;0.0;465.0;69.0;10.4445;468.908;50.8348;0.0;9.0;1.0;-0.200107;-0.42029399999999995;-2.14762;-0.212369;-0.35591;-2.16797;0.474972;-1.47853;0.286584;3.07857;-9.22531;1.7804900000000001;0.0;0.00627938;0.670294;1.5;-0.00627938;-0.670294;-2.0433;-4.392930000000001;13.8724;-4.392930000000001;675.0;650.0;1070.0;1078.0;1024.0;863.0;1024.0;1024.0;1024.0;1.0;3.0;0.0;0.0;0.0;0.0;0.0;0.0125588;0.871382;2.55;;1970-01-01 00:00:00.132
566.0;567.0;0.0;-1.0;-1.0;-1.0;-1.0;-1.0;109.0;0.0;0.0;0.0;0.0;0.0;0.0;0.0;0.0;0.0;0.0;0.0;0.0;0.0;0.0;465.75;74.25;10.3644;467.93199999999996;57.7366;0.0;10.0;1.0;-0.20526399999999997;-0.44471499999999997;-2.15042;-0.210238;-0.38255100000000003;-2.1627;0.43952299999999994;-1.5367;0.34726599999999996;3.6019900000000002;-11.6707;2.45479;0.0;0.0159887;0.694715;1.5;-0.0159887;-0.694715;-2.03621;-3.8716800000000005;14.3778;-3.8716800000000005;675.0;650.0;1073.0;1078.0;1024.0;863.0;1024.0;1024.0;1024.0;1.0;3.0;0.0;0.0;0.0;0.0;0.0;0.0319774;0.9031299999999999;2.55;;1970-01-01 00:00:00.143
567.0;568.0;0.0;-1.0;-1.0;-1.0;-1.0;-1.0;110.0;0.0;0.0;0.0;0.0;0.0;0.0;0.0;0.0;0.0;0.0;0.0;0.0;0.0;0.0;465.0;81.6;10.2652;466.99699999999996;64.9302;0.0;11.0;1.0;-0.203603;-0.478943;-2.1516900000000003;-0.208247;-0.411469;-2.1594;0.389125;-1.5916299999999999;0.350833;3.7148199999999996;-13.3572;2.8736200000000003;0.0;0.026222000000000002;0.728943;1.5;-0.026222000000000002;-0.728943;-2.01155;-3.19846;15.0862;-3.19846;675.0;650.0;1076.0;1076.0;1024.0;863.0;1024.0;1024.0;1024.0;1.0;3.0;0.0;0.0;0.0;0.0;0.0;0.0524441;0.947626;2.55;;1970-01-01 00:00:00.154
567.0;568.0;0.0;-1.0;-1.0;-1.0;-1.0;-1.0;110.0;0.0;0.0;0.0;0.0;0.0;0.0;0.0;0.0;0.0;0.0;0.0;0.0;0.0;0.0;465.0;81.6;10.2652;466.99699999999996;64.9302;0.0;11.0;1.0;-0.203603;-0.478943;-2.1516900000000003;-0.208247;-0.411469;-2.1594;0.389125;-1.5916299999999999;0.350833;3.7148199999999996;-13.3572;2.8736200000000003;0.0;0.026222000000000002;0.728943;1.5;-0.026222000000000002;-0.728943;-2.01155;-3.19846;15.0862;-3.19846;675.0;650.0;1076.0;1076.0;1024.0;863.0;1024.0;1024.0;1024.0;1.0;3.0;0.0;0.0;0.0;0.0;0.0;0.0524441;0.947626;2.55;;1970-01-01 00:00:00.165
568.0;569.0;0.0;-1.0;-1.0;-1.0;-1.0;-1.0;111.0;0.0;0.0;0.0;0.0;0.0;0.0;0.0;0.0;0.0;0.0;0.0;0.0;0.0;0.0;465.2;88.8;10.2082;466.366;72.2996;0.0;12.0;1.0;-0.205717;-0.511095;-2.14447;-0.207488;-0.44135699999999994;-2.15492;0.329393;-1.63795;0.37093200000000004;3.5440300000000002;-14.554;3.20516;0.0;0.0474714;0.761095;1.5;-0.0474714;-0.761095;-2.0018;-2.22728;15.7516;-2.22728;675.0;650.0;1081.0;1075.0;1024.0;863.0;1024.0;1024.0;1024.0;1.0;3.0;0.0;0.0;0.0;0.0;0.0;0.0949428;0.9894229999999999;2.55;;1970-01-01 00:00:00.176
569.0;570.0;0.0;-1.0;-1.0;-1.0;-1.0;-1.0;112.0;0.0;0.0;0.0;0.0;0.0;0.0;0.0;0.0;0.0;0.0;0.0;0.0;0.0;0.0;465.81800000000004;93.2727;10.2535;466.083;79.0151;0.0;13.0;1.0;-0.207817;-0.5270729999999999;-2.12312;-0.207587;-0.467071;-2.14538;0.26111999999999996;-1.65678;0.391908;3.1689700000000003;-15.3473;3.4878400000000003;0.0;0.072284;0.7770729999999999;1.5;-0.072284;-0.7770729999999999;-1.9705;-1.10724;16.0823;-1.10724;675.0;650.0;1086.0;1070.0;1024.0;863.0;1024.0;1024.0;1024.0;1.0;3.0;0.0;0.0;0.0;0.0;0.0;0.144568;1.01019;2.55;;1970-01-01 00:00:00.187
570.0;571.0;0.0;-1.0;-1.0;-1.0;-1.0;-1.0;113.0;0.0;0.0;0.0;0.0;0.0;0.0;0.0;0.0;0.0;0.0;0.0;0.0;0.0;0.0;465.0;98.0;10.1097;465.639;85.3221;0.0;14.0;1.0;-0.206734;-0.554111;-2.14056;-0.207331;-0.493183;-2.14394;0.197771;-1.65232;0.36592399999999997;0.7204689999999999;-10.2679;2.4931200000000002;0.0;0.098013;0.804111;1.5;-0.098013;-0.804111;-1.9773900000000002;-0.0165767;16.6419;-0.0165767;675.0;650.0;1093.0;1073.0;1024.0;863.0;1024.0;1024.0;1024.0;1.0;3.0;0.0;0.0;0.0;0.0;0.0;0.196026;1.04534;2.55;;1970-01-01 00:00:00.198
570.0;571.0;0.0;-1.0;-1.0;-1.0;-1.0;-1.0;113.0;0.0;0.0;0.0;0.0;0.0;0.0;0.0;0.0;0.0;0.0;0.0;0.0;0.0;0.0;465.0;98.0;10.1097;465.639;85.3221;0.0;14.0;1.0;-0.206734;-0.554111;-2.14056;-0.207331;-0.493183;-2.14394;0.197771;-1.65232;0.36592399999999997;0.7204689999999999;-10.2679;2.4931200000000002;0.0;0.098013;0.804111;1.5;-0.098013;-0.804111;-1.9773900000000002;-0.0165767;16.6419;-0.0165767;675.0;650.0;1093.0;1073.0;1024.0;863.0;1024.0;1024.0;1024.0;1.0;3.0;0.0;0.0;0.0;0.0;0.0;0.196026;1.04534;2.55;;1970-01-01 00:00:00.209
571.0;572.0;0.0;-1.0;-1.0;-1.0;-1.0;-1.0;114.0;0.0;0.0;0.0;0.0;0.0;0.0;0.0;0.0;0.0;0.0;0.0;0.0;0.0;0.0;464.333;103.667;10.1156;465.121;91.6042;0.0;15.0;1.0;-0.203325;-0.577203;-2.12405;-0.206129;-0.518389;-2.13797;0.143577;-1.64011;0.33934000000000003;-0.890854;-6.80588;1.7065099999999997;0.0;0.12041800000000001;0.827203;1.5;-0.12041800000000001;-0.827203;-1.97065;0.923952;17.1198;0.923952;675.0;650.0;1098.0;1072.0;1024.0;863.0;1024.0;1024.0;1024.0;1.0;3.0;0.0;0.0;0.0;0.0;0.0;0.240835;1.07536;2.55;;1970-01-01 00:00:00.220
572.0;573.0;0.0;-1.0;-1.0;-1.0;-1.0;-1.0;115.0;0.0;0.0;0.0;0.0;0.0;0.0;0.0;0.0;0.0;0.0;0.0;0.0;0.0;0.0;463.0;108.0;10.2413;464.35;97.4765;0.0;16.0;1.0;-0.194332;-0.587803;-2.08644;-0.20259000000000002;-0.5392140000000001;-2.1225099999999997;0.11668099999999999;-1.60956;0.364086;-1.8235;-4.37441;1.0910600000000001;0.0;0.133605;0.8378030000000001;1.5;-0.133605;-0.8378030000000001;-1.94291;1.43004;17.3392;1.43004;675.0;650.0;1101.0;1067.0;1024.0;863.0;1024.0;1024.0;1024.0;1.0;3.0;0.0;0.0;0.0;0.0;0.0;0.26721100000000003;1.08914;2.55;;1970-01-01 00:00:00.231
572.0;573.0;0.0;-1.0;-1.0;-1.0;-1.0;-1.0;115.0;0.0;0.0;0.0;0.0;0.0;0.0;0.0;0.0;0.0;0.0;0.0;0.0;0.0;0.0;463.0;108.0;10.2413;464.35;97.4765;0.0;16.0;1.0;-0.194332;-0.587803;-2.08644;-0.20259000000000002;-0.5392140000000001;-2.1225099999999997;0.11668099999999999;-1.60956;0.364086;-1.8235;-4.37441;1.0910600000000001;0.0;0.133605;0.8378030000000001;1.5;-0.133605;-0.8378030000000001;-1.94291;1.43004;17.3392;1.43004;675.0;650.0;1101.0;1067.0;1024.0;863.0;1024.0;1024.0;1024.0;1.0;3.0;0.0;0.0;0.0;0.0;0.0;0.26721100000000003;1.08914;2.55;;1970-01-01 00:00:00.242
573.0;574.0;0.0;-1.0;-1.0;-1.0;-1.0;-1.0;116.0;0.0;0.0;0.0;0.0;0.0;0.0;0.0;0.0;0.0;0.0;0.0;0.0;0.0;0.0;462.333;111.667;10.272;463.59;102.848;0.0;17.0;1.0;-0.19051400000000002;-0.600969;-2.07048;-0.198967;-0.55774;-2.1069;0.10705999999999999;-1.54974;0.42806099999999997;-2.22027;-2.45741;0.9629770000000001;0.0;0.14033299999999999;0.8509690000000001;1.5;-0.14033299999999999;-0.8509690000000001;-1.9139;1.64925;17.6117;1.64925;675.0;650.0;1103.0;1062.0;1024.0;863.0;1024.0;1024.0;1024.0;1.0;3.0;0.0;0.0;0.0;0.0;0.0;0.28066599999999997;1.10626;2.55;;1970-01-01 00:00:00.253
574.0;575.0;0.0;-1.0;-1.0;-1.0;-1.0;-1.0;117.0;0.0;0.0;0.0;0.0;0.0;0.0;0.0;0.0;0.0;0.0;0.0;0.0;0.0;0.0;462.0;113.429;10.3271;462.93800000000005;107.281;0.0;18.0;1.0;-0.187886;-0.604891;-2.05478;-0.195643;-0.571886;-2.09127;0.11152999999999999;-1.4509999999999998;0.510996;-2.20201;-0.728008;1.13701;0.0;0.140758;0.854891;1.5;-0.140758;-0.854891;-1.86635;1.61487;17.6928;1.61487;675.0;650.0;1104.0;1053.0;1024.0;863.0;1024.0;1024.0;1024.0;1.0;3.0;0.0;0.0;0.0;0.0;0.0;0.281516;1.1113600000000001;2.55;;1970-01-01 00:00:00.264
574.0;575.0;0.0;-1.0;-1.0;-1.0;-1.0;-1.0;117.0;0.0;0.0;0.0;0.0;0.0;0.0;0.0;0.0;0.0;0.0;0.0;0.0;0.0;0.0;462.0;113.429;10.3271;462.93800000000005;107.281;0.0;18.0;1.0;-0.187886;-0.604891;-2.05478;-0.195643;-0.571886;-2.09127;0.11152999999999999;-1.4509999999999998;0.510996;-2.20201;-0.728008;1.13701;0.0;0.140758;0.854891;1.5;-0.140758;-0.854891;-1.86635;1.61487;17.6928;1.61487;675.0;650.0;1104.0;1053.0;1024.0;863.0;1024.0;1024.0;1024.0;1.0;3.0;0.0;0.0;0.0;0.0;0.0;0.281516;1.1113600000000001;2.55;;1970-01-01 00:00:00.275
575.0;576.0;0.0;-1.0;-1.0;-1.0;-1.0;-1.0;118.0;0.0;0.0;0.0;0.0;0.0;0.0;0.0;0.0;0.0;0.0;0.0;0.0;0.0;0.0;460.0;116.571;10.4537;461.86400000000003;111.434;0.0;19.0;1.0;-0.176063;-0.6101300000000001;-2.02169;-0.189769;-0.583359;-2.07039;0.138058;-1.33489;0.605996;-1.81254;0.848366;1.53698;0.0;0.125815;0.86013;1.5;-0.125815;-0.86013;-1.7914700000000001;1.07894;17.8013;1.07894;675.0;650.0;1101.0;1038.0;1024.0;863.0;1024.0;1024.0;1024.0;1.0;3.0;0.0;0.0;0.0;0.0;0.0;0.251631;1.11817;2.55;;1970-01-01 00:00:00.286
576.0;577.0;0.0;-1.0;-1.0;-1.0;-1.0;-1.0;119.0;0.0;0.0;0.0;0.0;0.0;0.0;0.0;0.0;0.0;0.0;0.0;0.0;0.0;0.0;459.0;118.4;10.3121;460.782;114.98200000000001;0.0;20.0;1.0;-0.17364200000000002;-0.625921;-2.0446299999999997;-0.18493099999999998;-0.596128;-2.0626599999999997;0.172269;-1.21195;0.688088;-1.18934;2.26723;2.20847;0.0;0.10981600000000001;0.875921;1.5;-0.10981600000000001;-0.875921;-1.76447;0.449953;18.1281;0.449953;675.0;1820.0;1101.0;1038.0;1024.0;863.0;1024.0;1024.0;1024.0;1.0;3.0;0.0;0.0;0.0;0.0;0.0;0.219633;1.1387;2.55;;1970-01-01 00:00:00.297
576.0;577.0;0.0;-1.0;-1.0;-1.0;-1.0;-1.0;119.0;0.0;0.0;0.0;0.0;0.0;0.0;0.0;0.0;0.0;0.0;0.0;0.0;0.0;0.0;459.0;118.4;10.3121;460.782;114.98200000000001;0.0;20.0;1.0;-0.17364200000000002;-0.625921;-2.0446299999999997;-0.18493099999999998;-0.596128;-2.0626599999999997;0.172269;-1.21195;0.688088;-1.18934;2.26723;2.20847;0.0;0.10981600000000001;0.875921;1.5;-0.10981600000000001;-0.875921;-1.76447;0.449953;18.1281;0.449953;675.0;1820.0;1101.0;1038.0;1024.0;863.0;1024.0;1024.0;1024.0;1.0;3.0;0.0;0.0;0.0;0.0;0.0;0.219633;1.1387;2.55;;1970-01-01 00:00:00.308
577.0;578.0;0.0;-1.0;-1.0;-1.0;-1.0;-1.0;120.0;0.0;0.0;0.0;0.0;0.0;0.0;0.0;0.0;0.0;0.0;0.0;0.0;0.0;0.0;458.25;120.25;10.4589;459.769;118.09100000000001;0.0;21.0;1.0;-0.167626;-0.624528;-2.0111;-0.17974;-0.604648;-2.04719;0.208725;-1.0715700000000001;0.775281;-0.453495;3.6303099999999997;3.06563;0.0;0.08598380000000001;0.8745280000000001;1.5;-0.08598380000000001;-0.8745280000000001;-1.685;-0.349197;18.0992;-0.349197;675.0;1820.0;1101.0;1038.0;1024.0;863.0;1024.0;1024.0;1024.0;1.0;3.0;0.0;0.0;0.0;0.0;0.0;0.171967;1.13689;2.55;;1970-01-01 00:00:00.319
578.0;579.0;0.0;-1.0;-1.0;-1.0;-1.0;-1.0;121.0;0.0;0.0;0.0;0.0;0.0;0.0;0.0;0.0;0.0;0.0;0.0;0.0;0.0;0.0;458.0;123.0;10.4866;458.961;121.149;0.0;22.0;1.0;-0.165995;-0.633844;-1.9986599999999999;-0.175616;-0.613406;-2.0326299999999997;0.232931;-0.9391649999999999;0.8240149999999999;0.192047;4.85481;3.6757;0.0;0.0646721;0.8838440000000001;1.5;-0.0646721;-0.8838440000000001;-1.6223;-0.984075;18.292;-0.984075;675.0;1820.0;1101.0;1038.0;1024.0;863.0;1024.0;1024.0;1024.0;1.0;3.0;0.0;0.0;0.0;0.0;0.0;0.12934400000000001;1.149;2.55;;1970-01-01 00:00:00.330
578.0;579.0;0.0;-1.0;-1.0;-1.0;-1.0;-1.0;121.0;0.0;0.0;0.0;0.0;0.0;0.0;0.0;0.0;0.0;0.0;0.0;0.0;0.0;0.0;458.0;123.0;10.4866;458.961;121.149;0.0;22.0;1.0;-0.165995;-0.633844;-1.9986599999999999;-0.175616;-0.613406;-2.0326299999999997;0.232931;-0.9391649999999999;0.8240149999999999;0.192047;4.85481;3.6757;0.0;0.0646721;0.8838440000000001;1.5;-0.0646721;-0.8838440000000001;-1.6223;-0.984075;18.292;-0.984075;675.0;1820.0;1101.0;1038.0;1024.0;863.0;1024.0;1024.0;1024.0;1.0;3.0;0.0;0.0;0.0;0.0;0.0;0.12934400000000001;1.149;2.55;;1970-01-01 00:00:00.341
579.0;580.0;0.0;-1.0;-1.0;-1.0;-1.0;-1.0;122.0;0.0;0.0;0.0;0.0;0.0;0.0;0.0;0.0;0.0;0.0;0.0;0.0;0.0;0.0;456.57099999999997;124.0;10.5251;457.94199999999995;123.633;0.0;23.0;1.0;-0.158615;-0.635494;-1.98875;-0.170516;-0.620033;-2.01947;0.253354;-0.81221;0.8435030000000001;0.699325;5.8575800000000005;3.8641300000000003;0.0;0.0431436;0.885494;1.5;-0.0431436;-0.885494;-1.58026;-1.58714;18.3262;-1.58714;675.0;650.0;1024.0;1024.0;1024.0;863.0;1024.0;1024.0;1024.0;1.0;3.0;0.0;0.0;0.0;0.0;0.0;0.0862872;1.15114;2.55;;1970-01-01 00:00:00.352
580.0;581.0;0.0;-1.0;-1.0;-1.0;-1.0;-1.0;123.0;0.0;0.0;0.0;0.0;0.0;0.0;0.0;0.0;0.0;0.0;0.0;0.0;0.0;0.0;455.75;125.75;10.4798;456.95599999999996;125.92399999999999;0.0;24.0;1.0;-0.155389;-0.6452220000000001;-1.9928;-0.165978;-0.62759;-2.01147;0.270453;-0.70973;0.824707;1.0541200000000002;6.47415;3.571;0.0;0.027654599999999998;0.895222;1.5;-0.027654599999999998;-0.895222;-1.56752;-2.04387;18.5275;-2.04387;675.0;650.0;1024.0;1024.0;1024.0;863.0;1024.0;1024.0;1024.0;1.0;3.0;0.0;0.0;0.0;0.0;0.0;0.055309199999999996;1.1637899999999999;2.55;;1970-01-01 00:00:00.363
581.0;582.0;0.0;-1.0;-1.0;-1.0;-1.0;-1.0;124.0;0.0;0.0;0.0;0.0;0.0;0.0;0.0;0.0;0.0;0.0;0.0;0.0;0.0;0.0;456.0;127.429;10.4933;456.32599999999996;128.05200000000002;0.0;25.0;1.0;-0.156378;-0.6510779999999999;-1.98587;-0.163098;-0.634636;-2.00379;0.268759;-0.6305689999999999;0.760753;1.15431;6.69658;2.7604900000000003;0.0;0.0181497;0.901078;1.5;-0.0181497;-0.901078;-1.56437;-2.20837;18.6487;-2.20837;675.0;650.0;1024.0;1024.0;1024.0;863.0;1024.0;1024.0;1024.0;1.0;3.0;0.0;0.0;0.0;0.0;0.0;0.0362994;1.1714;2.55;;1970-01-01 00:00:00.374
581.0;582.0;0.0;-1.0;-1.0;-1.0;-1.0;-1.0;124.0;0.0;0.0;0.0;0.0;0.0;0.0;0.0;0.0;0.0;0.0;0.0;0.0;0.0;0.0;456.0;127.429;10.4933;456.32599999999996;128.05200000000002;0.0;25.0;1.0;-0.156378;-0.6510779999999999;-1.98587;-0.163098;-0.634636;-2.00379;0.268759;-0.6305689999999999;0.760753;1.15431;6.69658;2.7604900000000003;0.0;0.0181497;0.901078;1.5;-0.0181497;-0.901078;-1.56437;-2.20837;18.6487;-2.20837;675.0;650.0;1024.0;1024.0;1024.0;863.0;1024.0;1024.0;1024.0;1.0;3.0;0.0;0.0;0.0;0.0;0.0;0.0362994;1.1714;2.55;;1970-01-01 00:00:00.385
582.0;583.0;0.0;-1.0;-1.0;-1.0;-1.0;-1.0;125.0;0.0;0.0;0.0;0.0;0.0;0.0;0.0;0.0;0.0;0.0;0.0;0.0;0.0;0.0;455.667;128.333;10.46;455.776;129.819;0.0;26.0;1.0;-0.15528599999999998;-0.656767;-1.98984;-0.160754;-0.641275;-1.9996;0.257784;-0.558599;0.7082229999999999;1.03401;6.626539999999999;1.73668;0.0;0.0166385;0.906767;1.5;-0.0166385;-0.906767;-1.59738;-2.1328099999999997;18.7665;-2.1328099999999997;675.0;650.0;1024.0;1024.0;1024.0;863.0;1024.0;1024.0;1024.0;1.0;3.0;0.0;0.0;0.0;0.0;0.0;0.033277;1.1788;2.55;;1970-01-01 00:00:00.396
583.0;584.0;0.0;-1.0;-1.0;-1.0;-1.0;-1.0;126.0;0.0;0.0;0.0;0.0;0.0;0.0;0.0;0.0;0.0;0.0;0.0;0.0;0.0;0.0;454.57099999999997;130.0;10.5056;455.048;131.559;0.0;27.0;1.0;-0.149409;-0.6605449999999999;-1.9768700000000001;-0.157351;-0.6470560000000001;-1.99278;0.24406;-0.5044810000000001;0.6421720000000001;0.7614850000000001;6.24009;0.5105569999999999;0.0;0.0151673;0.910545;1.5;-0.0151673;-0.910545;-1.60806;-2.03039;18.8446;-2.03039;675.0;650.0;1024.0;1024.0;1024.0;863.0;1024.0;1024.0;1024.0;1.0;3.0;0.0;0.0;0.0;0.0;0.0;0.0303347;1.18371;2.55;;1970-01-01 00:00:00.407
583.0;584.0;0.0;-1.0;-1.0;-1.0;-1.0;-1.0;126.0;0.0;0.0;0.0;0.0;0.0;0.0;0.0;0.0;0.0;0.0;0.0;0.0;0.0;0.0;454.57099999999997;130.0;10.5056;455.048;131.559;0.0;27.0;1.0;-0.149409;-0.6605449999999999;-1.9768700000000001;-0.157351;-0.6470560000000001;-1.99278;0.24406;-0.5044810000000001;0.6421720000000001;0.7614850000000001;6.24009;0.5105569999999999;0.0;0.0151673;0.910545;1.5;-0.0151673;-0.910545;-1.60806;-2.03039;18.8446;-2.03039;675.0;650.0;1024.0;1024.0;1024.0;863.0;1024.0;1024.0;1024.0;1.0;3.0;0.0;0.0;0.0;0.0;0.0;0.0303347;1.18371;2.55;;1970-01-01 00:00:00.418
584.0;585.0;0.0;-1.0;-1.0;-1.0;-1.0;-1.0;127.0;0.0;0.0;0.0;0.0;0.0;0.0;0.0;0.0;0.0;0.0;0.0;0.0;0.0;0.0;454.0;130.571;10.4255;454.35400000000004;132.937;0.0;28.0;1.0;-0.147823;-0.667913;-1.9905700000000002;-0.15449200000000002;-0.653313;-1.9921200000000001;0.230776;-0.46202200000000004;0.547054;0.448284;5.64911;-0.799466;0.0;0.0195866;0.9179129999999999;1.5;-0.0195866;-0.9179129999999999;-1.65316;-1.8202200000000002;18.9971;-1.8202200000000002;675.0;650.0;1024.0;1024.0;1024.0;863.0;1024.0;1024.0;1024.0;1.0;3.0;0.0;0.0;0.0;0.0;0.0;0.0391732;1.19329;2.55;;1970-01-01 00:00:00.429
585.0;586.0;0.0;-1.0;-1.0;-1.0;-1.0;-1.0;128.0;0.0;0.0;0.0;0.0;0.0;0.0;0.0;0.0;0.0;0.0;0.0;0.0;0.0;0.0;454.0;131.429;10.4155;453.86400000000003;134.14;0.0;29.0;1.0;-0.147964;-0.671992;-1.99023;-0.152534;-0.658917;-1.99155;0.21026;-0.432461;0.43968100000000004;0.0969125;4.90565;-2.09199;0.0;0.0258671;0.921992;1.5;-0.0258671;-0.921992;-1.7008;-1.506;19.0815;-1.506;675.0;650.0;1024.0;1024.0;1024.0;863.0;1024.0;1024.0;1024.0;1.0;3.0;0.0;0.0;0.0;0.0;0.0;0.0517342;1.19859;2.55;;1970-01-01 00:00:00.440
585.0;586.0;0.0;-1.0;-1.0;-1.0;-1.0;-1.0;128.0;0.0;0.0;0.0;0.0;0.0;0.0;0.0;0.0;0.0;0.0;0.0;0.0;0.0;0.0;454.0;131.429;10.4155;453.86400000000003;134.14;0.0;29.0;1.0;-0.147964;-0.671992;-1.99023;-0.152534;-0.658917;-1.99155;0.21026;-0.432461;0.43968100000000004;0.0969125;4.90565;-2.09199;0.0;0.0258671;0.921992;1.5;-0.0258671;-0.921992;-1.7008;-1.506;19.0815;-1.506;675.0;650.0;1024.0;1024.0;1024.0;863.0;1024.0;1024.0;1024.0;1.0;3.0;0.0;0.0;0.0;0.0;0.0;0.0517342;1.19859;2.55;;1970-01-01 00:00:00.451
586.0;587.0;0.0;-1.0;-1.0;-1.0;-1.0;-1.0;129.0;0.0;0.0;0.0;0.0;0.0;0.0;0.0;0.0;0.0;0.0;0.0;0.0;0.0;0.0;453.0;133.0;10.4016;453.21;135.44;0.0;30.0;1.0;-0.14336500000000002;-0.6792060000000001;-1.98878;-0.149783;-0.665003;-1.99072;0.190816;-0.408856;0.346636;-0.259817;4.14467;-3.16395;0.0;0.0315581;0.929206;1.5;-0.0315581;-0.929206;-1.75498;-1.2131399999999999;19.2308;-1.2131399999999999;675.0;650.0;1024.0;1024.0;1024.0;863.0;1024.0;1024.0;1024.0;1.0;3.0;0.0;0.0;0.0;0.0;0.0;0.0631163;1.20797;2.55;;1970-01-01 00:00:00.462
587.0;588.0;0.0;-1.0;-1.0;-1.0;-1.0;-1.0;130.0;0.0;0.0;0.0;0.0;0.0;0.0;0.0;0.0;0.0;0.0;0.0;0.0;0.0;0.0;451.667;134.333;10.3421;452.332;136.735;0.0;31.0;1.0;-0.137757;-0.688503;-1.9967099999999998;-0.146175;-0.672053;-1.99252;0.182056;-0.394706;0.25298000000000004;-0.502065;3.4285099999999997;-3.9257199999999997;0.0;0.0356339;0.9385030000000001;1.5;-0.0356339;-0.9385030000000001;-1.81119;-1.05249;19.4233;-1.05249;675.0;650.0;1024.0;1024.0;1024.0;863.0;1024.0;1024.0;1024.0;1.0;3.0;0.0;0.0;0.0;0.0;0.0;0.0712678;1.22005;2.55;;1970-01-01 00:00:00.473
587.0;588.0;0.0;-1.0;-1.0;-1.0;-1.0;-1.0;130.0;0.0;0.0;0.0;0.0;0.0;0.0;0.0;0.0;0.0;0.0;0.0;0.0;0.0;0.0;451.667;134.333;10.3421;452.332;136.735;0.0;31.0;1.0;-0.137757;-0.688503;-1.9967099999999998;-0.146175;-0.672053;-1.99252;0.182056;-0.394706;0.25298000000000004;-0.502065;3.4285099999999997;-3.9257199999999997;0.0;0.0356339;0.9385030000000001;1.5;-0.0356339;-0.9385030000000001;-1.81119;-1.05249;19.4233;-1.05249;675.0;650.0;1024.0;1024.0;1024.0;863.0;1024.0;1024.0;1024.0;1.0;3.0;0.0;0.0;0.0;0.0;0.0;0.0712678;1.22005;2.55;;1970-01-01 00:00:00.484
588.0;589.0;0.0;-1.0;-1.0;-1.0;-1.0;-1.0;131.0;0.0;0.0;0.0;0.0;0.0;0.0;0.0;0.0;0.0;0.0;0.0;0.0;0.0;0.0;450.0;135.0;10.2799;451.186;137.819;0.0;32.0;1.0;-0.130499;-0.695375;-2.0070099999999997;-0.14147200000000001;-0.67905;-1.9968700000000001;0.186219;-0.38764299999999996;0.162718;-0.586967;2.7396700000000003;-4.53343;0.0;0.0323126;0.945375;1.5;-0.0323126;-0.945375;-1.87057;-1.15515;19.5655;-1.15515;675.0;650.0;1024.0;1024.0;1024.0;863.0;1024.0;1024.0;1024.0;1.0;3.0;0.0;0.0;0.0;0.0;0.0;0.0646252;1.22899;2.55;;1970-01-01 00:00:00.495
589.0;590.0;0.0;-1.0;-1.0;-1.0;-1.0;-1.0;132.0;0.0;0.0;0.0;0.0;0.0;0.0;0.0;0.0;0.0;0.0;0.0;0.0;0.0;0.0;448.333;135.667;10.418;449.847;138.749;0.0;33.0;1.0;-0.12078699999999999;-0.688836;-1.9786700000000002;-0.135267;-0.681986;-1.99141;0.199905;-0.372046;0.10312400000000001;-0.528472;2.17257;-4.872269999999999;0.0;0.0193458;0.938836;1.5;-0.0193458;-0.938836;-1.8900299999999999;-1.5315299999999998;19.4302;-1.5315299999999998;675.0;650.0;1024.0;1024.0;1024.0;863.0;1024.0;1024.0;1024.0;1.0;3.0;0.0;0.0;0.0;0.0;0.0;0.0386916;1.2204899999999999;2.55;;1970-01-01 00:00:00.506
589.0;590.0;0.0;-1.0;-1.0;-1.0;-1.0;-1.0;132.0;0.0;0.0;0.0;0.0;0.0;0.0;0.0;0.0;0.0;0.0;0.0;0.0;0.0;0.0;448.333;135.667;10.418;449.847;138.749;0.0;33.0;1.0;-0.12078699999999999;-0.688836;-1.9786700000000002;-0.135267;-0.681986;-1.99141;0.199905;-0.372046;0.10312400000000001;-0.528472;2.17257;-4.872269999999999;0.0;0.0193458;0.938836;1.5;-0.0193458;-0.938836;-1.8900299999999999;-1.5315299999999998;19.4302;-1.5315299999999998;675.0;650.0;1024.0;1024.0;1024.0;863.0;1024.0;1024.0;1024.0;1.0;3.0;0.0;0.0;0.0;0.0;0.0;0.0386916;1.2204899999999999;2.55;;1970-01-01 00:00:00.517
590.0;591.0;0.0;401.152;317.879;8.3168;401.152;317.879;0.0;1.0;1.0;0.13178199999999998;-1.7786099999999998;-1.8814;0.13178199999999998;-1.7786099999999998;-1.8814;0.0;0.0;0.0;0.0;0.0;0.0;445.6;136.8;10.4165;448.031;139.715;0.0;34.0;1.0;-0.10771099999999999;-0.693485;-1.976;-0.127;-0.6854359999999999;-1.98679;0.22971;-0.35148;0.0831739;-0.321339;1.74489;-4.77546;1.0;0.12929100000000002;-0.8351219999999999;0.0377496;0.00249117;-0.943485;-1.91915;0.274282;-17.2837;0.274282;696.9019999999999;650.0;1024.0;1024.0;1024.0;863.0;1024.0;1024.0;1024.0;1.0;3.0;0.0;9.86811;0.0;0.0;0.0;0.25858200000000003;-1.08566;0.0641744;;1970-01-01 00:00:00.528
591.0;592.0;0.0;403.93300000000005;313.8;8.30372;401.404;317.508;0.0;2.0;1.0;0.115273;-1.76088;-1.89775;0.126829;-1.7732900000000003;-1.88631;0.0;0.0;0.0;0.0;0.0;0.0;443.0;137.0;10.4486;445.912;140.414;0.0;35.0;1.0;-0.09496210000000001;-0.692148;-1.9693900000000002;-0.11738900000000001;-0.687449;-1.98157;0.278148;-0.324808;0.0897811;0.0782456;1.47675;-4.26229;1.0;0.124338;-0.8298030000000001;0.032843800000000006;0.00249117;-0.943485;-1.91915;0.18018;-17.1736;0.18018;696.9019999999999;650.0;1024.0;1024.0;1024.0;863.0;1024.0;1024.0;1024.0;1.0;3.0;0.0;0.016696799999999998;0.0;0.0;0.0;0.248676;-1.07874;0.0558345;;1970-01-01 00:00:00.539
592.0;593.0;0.0;407.0;310.0;8.28952;402.30400000000003;316.301;0.0;3.0;1.0;0.0970099;-1.74473;-1.9135;0.11788299999999999;-1.76472;-1.8944599999999998;0.0;0.0;0.0;0.0;0.0;0.0;440.0;137.429;10.2718;443.44800000000004;140.991;0.0;36.0;1.0;-0.0820234;-0.705811;-2.00216;-0.106779;-0.692958;-1.98775;0.338588;-0.306496;0.06575;0.636946;1.29474;-3.67885;1.0;0.11539200000000001;-0.8212360000000001;0.0246866;0.00249117;-0.943485;-1.91915;0.0102105;-16.9963;0.0102105;696.9019999999999;650.0;1024.0;1024.0;1024.0;863.0;1024.0;1024.0;1024.0;1.0;3.0;0.0;0.0166978;0.0;0.0;0.0;0.230785;-1.06761;0.041967199999999996;;1970-01-01 00:00:00.550
592.0;593.0;0.0;407.0;310.0;8.28952;402.30400000000003;316.301;0.0;3.0;1.0;0.0970099;-1.74473;-1.9135;0.11788299999999999;-1.76472;-1.8944599999999998;0.0;0.0;0.0;0.0;0.0;0.0;440.0;137.429;10.2718;443.44800000000004;140.991;0.0;36.0;1.0;-0.0820234;-0.705811;-2.00216;-0.106779;-0.692958;-1.98775;0.338588;-0.306496;0.06575;0.636946;1.29474;-3.67885;1.0;0.11539200000000001;-0.8212360000000001;0.0246866;0.00249117;-0.943485;-1.91915;0.0102105;-16.9963;0.0102105;696.9019999999999;650.0;1024.0;1024.0;1024.0;863.0;1024.0;1024.0;1024.0;1.0;3.0;0.0;0.0166978;0.0;0.0;0.0;0.230785;-1.06761;0.041967199999999996;;1970-01-01 00:00:00.561
593.0;594.0;0.0;409.935;306.387;8.3084;403.892;314.238;0.0;4.0;1.0;0.0791591;-1.72259;-1.921;0.10626600000000001;-1.7520799999999999;-1.90242;0.0;0.0;0.0;0.0;0.0;0.0;438.4;137.2;10.3159;441.17900000000003;141.274;0.0;37.0;1.0;-0.07393330000000001;-0.701868;-1.9942099999999998;-0.0969254;-0.695631;-1.98968;0.399789;-0.278033;0.050764;1.25149;1.2426700000000002;-3.01468;1.0;0.103775;-0.808597;0.016725200000000003;0.00249117;-0.943485;-1.91915;-0.21051799999999998;-16.7347;-0.21051799999999998;696.9019999999999;650.0;847.0;888.0;1024.0;863.0;1024.0;1024.0;1024.0;1.0;3.0;0.0;0.016696799999999998;0.0;0.0;0.0;0.20755;-1.05118;0.028432799999999998;;1970-01-01 00:00:00.572
594.0;595.0;0.0;412.909;302.182;8.31896;406.039;311.368;0.0;5.0;1.0;0.0612221;-1.69928;-1.9323400000000002;0.0927529;-1.7362400000000002;-1.9114;0.0;0.0;0.0;0.0;0.0;0.0;435.6;137.2;10.3918;438.67400000000004;141.417;0.0;38.0;1.0;-0.059947900000000005;-0.696738;-1.97963;-0.08583210000000001;-0.695963;-1.9866700000000002;0.462024;-0.23434699999999997;0.0711704;1.85208;1.35766;-2.1743200000000003;1.0;0.10681600000000001;-0.789502;0.06240830000000001;-0.014062799999999999;-0.946738;-1.9738099999999998;-2.35973;-16.3395;-2.35973;696.9019999999999;650.0;847.0;888.0;1024.0;863.0;1024.0;1024.0;1024.0;1.0;3.0;0.0;0.0166978;0.0;0.0;0.0;0.213631;-1.02635;0.10609400000000001;;1970-01-01 00:00:00.583
594.0;595.0;0.0;412.909;302.182;8.31896;406.039;311.368;0.0;5.0;1.0;0.0612221;-1.69928;-1.9323400000000002;0.0927529;-1.7362400000000002;-1.9114;0.0;0.0;0.0;0.0;0.0;0.0;435.6;137.2;10.3918;438.67400000000004;141.417;0.0;38.0;1.0;-0.059947900000000005;-0.696738;-1.97963;-0.08583210000000001;-0.695963;-1.9866700000000002;0.462024;-0.23434699999999997;0.0711704;1.85208;1.35766;-2.1743200000000003;1.0;0.10681600000000001;-0.789502;0.06240830000000001;-0.014062799999999999;-0.946738;-1.9738099999999998;-2.35973;-16.3395;-2.35973;696.9019999999999;650.0;847.0;888.0;1024.0;863.0;1024.0;1024.0;1024.0;1.0;3.0;0.0;0.0166978;0.0;0.0;0.0;0.213631;-1.02635;0.10609400000000001;;1970-01-01 00:00:00.594
595.0;596.0;0.0;415.871;298.58099999999996;8.34538;408.564;308.08299999999997;0.0;6.0;1.0;0.043318199999999994;-1.67586;-1.93799;0.0779225;-1.71813;-1.9193799999999999;0.0;0.0;0.0;0.0;0.0;0.0;432.0;137.0;10.4652;435.74800000000005;141.39700000000002;0.0;39.0;1.0;-0.0423621;-0.691054;-1.96627;-0.07279110000000001;-0.6944899999999999;-1.98055;0.526656;-0.19053299999999998;0.08605239999999999;2.41584;1.5393;-1.37275;1.0;0.06732060000000001;-0.777072;0.038741199999999996;0.0106019;-0.9410540000000001;-1.95812;-3.7241400000000002;-16.0823;-3.7241400000000002;696.9019999999999;650.0;847.0;888.0;1024.0;863.0;1024.0;1024.0;1024.0;1.0;3.0;0.0;0.016697;0.0;0.0;0.0;0.134641;-1.01019;0.0658601;;1970-01-01 00:00:00.605
596.0;597.0;0.0;418.93800000000005;294.375;8.3429;411.356;304.394;0.0;7.0;1.0;0.0249898;-1.6552900000000002;-1.9523;0.0620427;-1.69928;-1.92925;0.0;0.0;0.0;0.0;0.0;0.0;430.0;136.571;10.4747;433.024;141.187;0.0;40.0;1.0;-0.032796;-0.688716;-1.9656;-0.060792599999999995;-0.692758;-1.97607;0.580335;-0.143555;0.0944281;2.8494200000000003;1.75375;-0.7787189999999999;1.0;0.0344411;-0.760559;0.0264809;0.027601599999999997;-0.938716;-1.95573;-4.8588;-15.7405;-4.8588;696.9019999999999;650.0;847.0;888.0;1024.0;863.0;1024.0;1024.0;1024.0;1.0;3.0;0.0;0.0166978;0.0;0.0;0.0;0.0688822;-0.988727;0.0450176;;1970-01-01 00:00:00.616
596.0;597.0;0.0;418.93800000000005;294.375;8.3429;411.356;304.394;0.0;7.0;1.0;0.0249898;-1.6552900000000002;-1.9523;0.0620427;-1.69928;-1.92925;0.0;0.0;0.0;0.0;0.0;0.0;430.0;136.571;10.4747;433.024;141.187;0.0;40.0;1.0;-0.032796;-0.688716;-1.9656;-0.060792599999999995;-0.692758;-1.97607;0.580335;-0.143555;0.0944281;2.8494200000000003;1.75375;-0.7787189999999999;1.0;0.0344411;-0.760559;0.0264809;0.027601599999999997;-0.938716;-1.95573;-4.8588;-15.7405;-4.8588;696.9019999999999;650.0;847.0;888.0;1024.0;863.0;1024.0;1024.0;1024.0;1.0;3.0;0.0;0.0166978;0.0;0.0;0.0;0.0688822;-0.988727;0.0450176;;1970-01-01 00:00:00.627
597.0;598.0;0.0;422.125;290.375;8.30305;414.351;300.495;0.0;8.0;1.0;0.00595351;-1.6431;-1.9748;0.045215899999999996;-1.68242;-1.94292;-0.743517;0.837907;-0.512628;-2.9685900000000003;3.3454599999999997;-2.0467400000000002;428.57099999999997;136.0;10.3962;430.634;140.798;0.0;41.0;1.0;-0.0261868;-0.6916180000000001;-1.98194;-0.0504108;-0.692416;-1.97783;0.615618;-0.10596300000000002;0.07157960000000001;3.05704;1.92602;-0.539903;1.0;0.00232467;-0.740803;0.0277832;0.0428913;-0.9416180000000001;-1.9707;-12.8676;-1.9921799999999998;-12.8676;696.9019999999999;650.0;847.0;888.0;1024.0;863.0;1024.0;1024.0;1024.0;1.0;3.0;0.0;0.016696799999999998;0.0;0.0;0.0;0.00464935;-0.963045;0.0472314;;1970-01-01 00:00:00.638
598.0;599.0;0.0;425.0;286.0;8.355739999999999;417.39300000000003;296.358;0.0;9.0;1.0;-0.011253299999999999;-1.61085;-1.97662;0.0282752;-1.66095;-1.9530299999999998;-0.803884;0.917062;-0.5414140000000001;-4.9907699999999995;5.668769999999999;-3.38971;426.0;135.0;10.3557;428.125;140.145;0.0;42.0;1.0;-0.013898599999999999;-0.690288;-1.99233;-0.0394572;-0.691778;-1.9821799999999998;0.638162;-0.0588659;0.0651726;3.03031;2.1443;-0.32624699999999995;1.0;-0.029307;-0.720662;0.030988099999999998;0.0575822;-0.9402879999999999;-1.9840200000000001;-14.2563;-0.315203;-14.2563;696.9019999999999;650.0;847.0;888.0;1024.0;863.0;1024.0;1024.0;1024.0;1.0;3.0;0.0;0.0166978;0.0;0.0;0.0;-0.058614;-0.936861;0.0526798;;1970-01-01 00:00:00.649
598.0;599.0;0.0;425.0;286.0;8.355739999999999;417.39300000000003;296.358;0.0;9.0;1.0;-0.011253299999999999;-1.61085;-1.97662;0.0282752;-1.66095;-1.9530299999999998;-0.803884;0.917062;-0.5414140000000001;-4.9907699999999995;5.668769999999999;-3.38971;426.0;135.0;10.3557;428.125;140.145;0.0;42.0;1.0;-0.013898599999999999;-0.690288;-1.99233;-0.0394572;-0.691778;-1.9821799999999998;0.638162;-0.0588659;0.0651726;3.03031;2.1443;-0.32624699999999995;1.0;-0.029307;-0.720662;0.030988099999999998;0.0575822;-0.9402879999999999;-1.9840200000000001;-14.2563;-0.315203;-14.2563;696.9019999999999;650.0;847.0;888.0;1024.0;863.0;1024.0;1024.0;1024.0;1.0;3.0;0.0;0.0166978;0.0;0.0;0.0;-0.058614;-0.936861;0.0526798;;1970-01-01 00:00:00.660
599.0;600.0;0.0;428.194;282.323;8.32046;420.55400000000003;292.248;0.0;10.0;1.0;-0.0304534;-1.59921;-1.99705;0.0106566;-1.6424299999999998;-1.9662400000000002;-0.8640639999999999;0.9880469999999999;-0.579625;-6.44436;7.34617;-4.34806;424.0;134.571;10.4971;425.715;139.484;0.0;43.0;1.0;-0.00420398;-0.679281;-1.9666;-0.028881200000000003;-0.688029;-1.9775;0.654572;-0.00496722;0.08773310000000001;2.83544;2.37683;-0.048144400000000004;1.0;-0.05943240000000001;-0.713147;-0.00722528;0.070089;-0.9292809999999999;-1.95901;-15.5563;0.9704229999999999;-15.5563;696.9019999999999;650.0;847.0;888.0;1024.0;863.0;1024.0;1024.0;1024.0;1.0;3.0;0.0;0.016696799999999998;0.0;0.0;0.0;-0.11886500000000001;-0.927091;-0.012283;;1970-01-01 00:00:00.671
600.0;601.0;0.0;431.0;278.0;8.34325;423.689;287.97900000000004;0.0;11.0;1.0;-0.047155199999999994;-1.57318;-2.00572;-0.00668695;-1.62165;-1.9780799999999998;-0.915465;1.05033;-0.614004;-7.521719999999999;8.60127;-5.06032;422.25;133.75;10.4731;423.459;138.696;0.0;44.0;1.0;0.00412437;-0.677565;-1.9732599999999998;-0.0189795;-0.6848890000000001;-1.97623;0.65966;0.041231800000000006;0.0943184;2.49035;2.52638;0.0635346;1.0;-0.0853877;-0.69409;-0.014817700000000001;0.0787007;-0.927565;-1.9632599999999998;-16.5861;2.35632;-16.5861;696.9019999999999;650.0;847.0;888.0;1024.0;863.0;1024.0;1024.0;1024.0;1.0;3.0;0.0;0.016697999999999998;0.0;0.0;0.0;-0.170775;-0.902317;-0.025190099999999997;;1970-01-01 00:00:00.682
600.0;601.0;0.0;431.0;278.0;8.34325;423.689;287.97900000000004;0.0;11.0;1.0;-0.047155199999999994;-1.57318;-2.00572;-0.00668695;-1.62165;-1.9780799999999998;-0.915465;1.05033;-0.614004;-7.521719999999999;8.60127;-5.06032;422.25;133.75;10.4731;423.459;138.696;0.0;44.0;1.0;0.00412437;-0.677565;-1.9732599999999998;-0.0189795;-0.6848890000000001;-1.97623;0.65966;0.041231800000000006;0.0943184;2.49035;2.52638;0.0635346;1.0;-0.0853877;-0.69409;-0.014817700000000001;0.0787007;-0.927565;-1.9632599999999998;-16.5861;2.35632;-16.5861;696.9019999999999;650.0;847.0;888.0;1024.0;863.0;1024.0;1024.0;1024.0;1.0;3.0;0.0;0.016697999999999998;0.0;0.0;0.0;-0.170775;-0.902317;-0.025190099999999997;;1970-01-01 00:00:00.693
601.0;602.0;0.0;434.0;274.0;8.38209;426.86199999999997;283.683;0.0;12.0;1.0;-0.0647962;-1.54595;-2.00943;-0.0241197;-1.59894;-1.98748;-0.9566969999999999;1.10605;-0.6403399999999999;-8.33278;9.576830000000001;-5.59284;421.2;132.4;10.4015;421.538;137.651;0.0;45.0;1.0;0.00918995;-0.6768029999999999;-1.99038;-0.0105287;-0.682463;-1.9804700000000002;0.644386;0.0727573;0.056898500000000005;1.96426;2.56705;-0.0782794;1.0;-0.106446;-0.67214;-0.00756657;0.08232669999999999;-0.926803;-1.9799200000000001;-17.2328;3.69775;-17.2328;696.9019999999999;650.0;847.0;888.0;1024.0;863.0;1024.0;1024.0;1024.0;1.0;3.0;0.0;0.016696799999999998;0.0;0.0;0.0;-0.21289299999999997;-0.873782;-0.0128632;;1970-01-01 00:00:00.704
602.0;603.0;0.0;436.914;269.829;8.35697;430.039;279.316;0.0;13.0;1.0;-0.0823922;-1.52973;-2.02908;-0.0416015;-1.57818;-1.99996;-0.9878309999999999;1.1471200000000001;-0.666518;-8.943719999999999;10.3261;-6.01687;420.0;131.0;10.3836;419.815;136.407;0.0;46.0;1.0;0.014972599999999999;-0.672335;-1.99748;-0.00287829;-0.679425;-1.98558;0.617862;0.0968881;-0.00383184;1.32839;2.5002299999999997;-0.439283;1.0;-0.126916;-0.655845;-0.00868976;0.085315;-0.922335;-1.99127;-17.6655;4.68881;-17.6655;696.9019999999999;650.0;847.0;888.0;1024.0;863.0;1024.0;1024.0;1024.0;1.0;3.0;0.0;0.0166978;0.0;0.0;0.0;-0.253833;-0.852598;-0.0147726;;1970-01-01 00:00:00.715
603.0;604.0;0.0;440.05699999999996;265.543;8.38879;433.288;274.86;0.0;14.0;1.0;-0.100775;-1.50258;-2.03531;-0.0593534;-1.5555;-2.01057;-1.01021;1.19503;-0.6700010000000001;-6.431019999999999;7.6215399999999995;-4.23845;418.0;130.5;10.4625;417.983;135.308;0.0;47.0;1.0;0.0243984;-0.665263;-1.9837099999999999;0.00530472;-0.675176;-1.98502;0.593168;0.12696400000000002;-0.030998900000000003;0.7074;2.43013;-0.673127;1.0;-0.149606;-0.6402359999999999;-0.0264454;0.0902531;-0.9152629999999999;-1.98412;-18.0746;5.77456;-18.0746;696.9019999999999;650.0;847.0;888.0;1024.0;863.0;1024.0;1024.0;1024.0;1.0;3.0;0.0;0.016696799999999998;0.0;0.0;0.0;-0.299213;-0.832306;-0.044957199999999996;;1970-01-01 00:00:00.726
603.0;604.0;0.0;440.05699999999996;265.543;8.38879;433.288;274.86;0.0;14.0;1.0;-0.100775;-1.50258;-2.03531;-0.0593534;-1.5555;-2.01057;-1.01021;1.19503;-0.6700010000000001;-6.431019999999999;7.6215399999999995;-4.23845;418.0;130.5;10.4625;417.983;135.308;0.0;47.0;1.0;0.0243984;-0.665263;-1.9837099999999999;0.00530472;-0.675176;-1.98502;0.593168;0.12696400000000002;-0.030998900000000003;0.7074;2.43013;-0.673127;1.0;-0.149606;-0.6402359999999999;-0.0264454;0.0902531;-0.9152629999999999;-1.98412;-18.0746;5.77456;-18.0746;696.9019999999999;650.0;847.0;888.0;1024.0;863.0;1024.0;1024.0;1024.0;1.0;3.0;0.0;0.016696799999999998;0.0;0.0;0.0;-0.299213;-0.832306;-0.044957199999999996;;1970-01-01 00:00:00.737
604.0;605.0;0.0;442.649;261.405;8.37682;436.43;270.379;0.0;15.0;1.0;-0.116356;-1.4840799999999998;-2.0516799999999997;-0.07645419999999999;-1.53407;-2.0229;-1.02427;1.2236;-0.68096;-4.73853;5.7968;-3.10023;417.0;129.0;10.4039;416.39099999999996;134.001;0.0;48.0;1.0;0.0293322;-0.662987;-1.99882;0.012513;-0.67152;-1.9891599999999998;0.563398;0.15706099999999998;-0.0464695;0.125936;2.32019;-0.849621;1.0;-0.16778900000000002;-0.621085;-0.020833;0.09133519999999999;-0.9129870000000001;-2.0020700000000002;-18.2708;6.6256699999999995;-18.2708;696.9019999999999;650.0;847.0;888.0;1024.0;863.0;1024.0;1024.0;1024.0;1.0;3.0;0.0;0.0166978;0.0;0.0;0.0;-0.335579;-0.807411;-0.0354161;;1970-01-01 00:00:00.748
605.0;606.0;0.0;445.027;257.189;8.42488;439.431;265.855;0.0;16.0;1.0;-0.129779;-1.45469;-2.05361;-0.09245160000000001;-1.51026;-2.03211;-1.02623;1.26186;-0.671597;-3.4906099999999998;4.5713;-2.2273400000000003;416.333;127.667;10.3619;415.08;132.599;0.0;49.0;1.0;0.0326615;-0.660295;-2.01043;0.018557499999999998;-0.6681520000000001;-1.99554;0.527443;0.173595;-0.0998935;-0.432014;2.10505;-1.25889;1.0;-0.182132;-0.599964;-0.0169785;0.0896807;-0.9102950000000001;-2.01513;-18.2205;7.6719;-18.2205;696.9019999999999;650.0;847.0;888.0;1024.0;863.0;1024.0;1024.0;1024.0;1.0;3.0;0.0;0.016697;0.0;0.0;0.0;-0.364265;-0.779953;-0.0288635;;1970-01-01 00:00:00.759
605.0;606.0;0.0;445.027;257.189;8.42488;439.431;265.855;0.0;16.0;1.0;-0.129779;-1.45469;-2.05361;-0.09245160000000001;-1.51026;-2.03211;-1.02623;1.26186;-0.671597;-3.4906099999999998;4.5713;-2.2273400000000003;416.333;127.667;10.3619;415.08;132.599;0.0;49.0;1.0;0.0326615;-0.660295;-2.01043;0.018557499999999998;-0.6681520000000001;-1.99554;0.527443;0.173595;-0.0998935;-0.432014;2.10505;-1.25889;1.0;-0.182132;-0.599964;-0.0169785;0.0896807;-0.9102950000000001;-2.01513;-18.2205;7.6719;-18.2205;696.9019999999999;650.0;847.0;888.0;1024.0;863.0;1024.0;1024.0;1024.0;1.0;3.0;0.0;0.016697;0.0;0.0;0.0;-0.364265;-0.779953;-0.0288635;;1970-01-01 00:00:00.770
606.0;607.0;0.0;447.158;253.053;8.44545;442.255;261.32099999999997;0.0;17.0;1.0;-0.14205299999999998;-1.43068;-2.06196;-0.107332;-1.4863899999999999;-2.04107;-1.01758;1.29719;-0.654443;-2.5020700000000002;3.7284300000000004;-1.49787;415.0;127.0;10.3052;413.76;131.343;0.0;50.0;1.0;0.0392975;-0.661225;-2.02326;0.0247795;-0.6660739999999999;-2.00386;0.49118;0.17928;-0.170233;-0.9318870000000001;1.8142;-1.8115900000000003;1.0;-0.14662999999999998;-0.825161;-0.0178106;0.0392975;-0.661225;-2.02326;-16.5274;-8.80771;-16.5274;696.9019999999999;1820.0;847.0;888.0;1024.0;863.0;1024.0;1024.0;1024.0;1.0;3.0;0.0;0.0166978;0.0;0.0;0.0;-0.293259;-1.07271;-0.030277999999999996;;1970-01-01 00:00:00.781
607.0;608.0;0.0;449.35;249.35;8.45588;444.966;256.91;0.0;18.0;1.0;-0.154814;-1.4106100000000001;-2.07135;-0.121577;-1.46365;-2.05015;-0.999659;1.3184799999999999;-0.642877;-1.67278;3.0852;-0.908849;414.667;126.667;10.4333;412.754;130.304;0.0;51.0;1.0;0.0404091;-0.651766;-1.99927;0.029468400000000002;-0.661782;-2.00248;0.454401;0.190142;-0.190004;-1.3176700000000001;1.5572;-2.07274;1.0;-0.161986;-0.811887;-0.050880400000000006;0.0404091;-0.651766;-1.99927;-16.6185;-8.09517;-16.6185;696.9019999999999;1820.0;847.0;888.0;1024.0;863.0;1024.0;1024.0;1024.0;1.0;3.0;0.0;0.016696799999999998;0.0;0.0;0.0;-0.323972;-1.05545;-0.0864967;;1970-01-01 00:00:00.792
607.0;608.0;0.0;449.35;249.35;8.45588;444.966;256.91;0.0;18.0;1.0;-0.154814;-1.4106100000000001;-2.07135;-0.121577;-1.46365;-2.05015;-0.999659;1.3184799999999999;-0.642877;-1.67278;3.0852;-0.908849;414.667;126.667;10.4333;412.754;130.304;0.0;51.0;1.0;0.0404091;-0.651766;-1.99927;0.029468400000000002;-0.661782;-2.00248;0.454401;0.190142;-0.190004;-1.3176700000000001;1.5572;-2.07274;1.0;-0.161986;-0.811887;-0.050880400000000006;0.0404091;-0.651766;-1.99927;-16.6185;-8.09517;-16.6185;696.9019999999999;1820.0;847.0;888.0;1024.0;863.0;1024.0;1024.0;1024.0;1.0;3.0;0.0;0.016696799999999998;0.0;0.0;0.0;-0.323972;-1.05545;-0.0864967;;1970-01-01 00:00:00.803
608.0;609.0;0.0;451.31699999999995;245.56099999999998;8.47343;447.526;252.563;0.0;19.0;1.0;-0.166077;-1.389;-2.07925;-0.134927;-1.44126;-2.05888;-0.97241;1.3377700000000001;-0.620974;-0.9420930000000001;2.6122900000000002;-0.363467;414.0;125.0;10.3974;411.86800000000005;129.0;0.0;52.0;1.0;0.0437481;-0.6473180000000001;-2.01055;0.033752300000000006;-0.657443;-2.0049;0.418893;0.201852;-0.191156;-1.58501;1.3534;-1.9915599999999998;1.0;-0.178675;-0.79394;-0.0483344;0.0437481;-0.6473180000000001;-2.01055;-16.6832;-7.3407800000000005;-16.6832;696.9019999999999;1820.0;847.0;888.0;1024.0;863.0;1024.0;1024.0;1024.0;1.0;3.0;0.0;0.0166978;0.0;0.0;0.0;-0.35735;-1.0321200000000001;-0.0821684;;1970-01-01 00:00:00.814
609.0;610.0;0.0;453.209;241.86;8.48908;449.95099999999996;248.292;0.0;20.0;1.0;-0.176894;-1.36822;-2.0873;-0.147517;-1.41935;-2.0674099999999997;-0.935451;1.34627;-0.599534;-0.266786;2.17121;0.0632674;414.667;123.333;10.3772;411.494;127.508;0.0;53.0;1.0;0.040627699999999996;-0.6418659999999999;-2.01884;0.0358149;-0.65277;-2.00908;0.373151;0.210573;-0.21078200000000002;-1.82945;1.14586;-1.91274;1.0;-0.188145;-0.7774800000000001;-0.048563999999999996;0.040627699999999996;-0.6418659999999999;-2.01884;-16.4055;-6.8093699999999995;-16.4055;696.9019999999999;1820.0;847.0;888.0;1024.0;863.0;1024.0;1024.0;1024.0;1.0;3.0;0.0;0.016696799999999998;0.0;0.0;0.0;-0.376289;-1.01072;-0.0825587;;1970-01-01 00:00:00.825
609.0;610.0;0.0;453.209;241.86;8.48908;449.95099999999996;248.292;0.0;20.0;1.0;-0.176894;-1.36822;-2.0873;-0.147517;-1.41935;-2.0674099999999997;-0.935451;1.34627;-0.599534;-0.266786;2.17121;0.0632674;414.667;123.333;10.3772;411.494;127.508;0.0;53.0;1.0;0.040627699999999996;-0.6418659999999999;-2.01884;0.0358149;-0.65277;-2.00908;0.373151;0.210573;-0.21078200000000002;-1.82945;1.14586;-1.91274;1.0;-0.188145;-0.7774800000000001;-0.048563999999999996;0.040627699999999996;-0.6418659999999999;-2.01884;-16.4055;-6.8093699999999995;-16.4055;696.9019999999999;1820.0;847.0;888.0;1024.0;863.0;1024.0;1024.0;1024.0;1.0;3.0;0.0;0.016696799999999998;0.0;0.0;0.0;-0.376289;-1.01072;-0.0825587;;1970-01-01 00:00:00.836
610.0;611.0;0.0;454.667;238.615;8.50924;452.144;244.21599999999998;0.0;21.0;1.0;-0.185021;-1.34904;-2.09275;-0.15876800000000002;-1.39825;-2.07501;-0.88992;1.3500299999999998;-0.567783;0.376337;1.80755;0.489834;414.0;122.571;10.2134;411.065;126.17;0.0;54.0;1.0;0.044536400000000004;-0.649043;-2.05326;0.038431400000000004;-0.651652;-2.0223400000000002;0.327373;0.205668;-0.258929;-2.04003;0.8815850000000001;-1.9959099999999999;1.0;-0.20330499999999999;-0.749211;-0.021752599999999997;0.044536400000000004;-0.649043;-2.05326;-16.2369;-6.09762;-16.2369;696.9019999999999;1820.0;847.0;888.0;1024.0;863.0;1024.0;1024.0;1024.0;1.0;3.0;0.0;0.016697999999999998;0.0;0.0;0.0;-0.406609;-0.973974;-0.0369794;;1970-01-01 00:00:00.847
611.0;612.0;0.0;455.65;234.75;8.51484;454.02099999999996;240.09599999999998;0.0;22.0;1.0;-0.190662;-1.32918;-2.10375;-0.16833599999999999;-1.37753;-2.08363;-0.836932;1.33996;-0.546363;0.981619;1.39636;0.793912;413.333;121.333;10.2225;410.595;124.795;0.0;55.0;1.0;0.0477511;-0.643404;-2.0547400000000002;0.0412273;-0.6491779999999999;-2.03206;0.286936;0.19916;-0.301146;-2.18427;0.631023;-2.00107;1.0;-0.216087;-0.7341260000000001;-0.0288954;0.0477511;-0.643404;-2.0547400000000002;-15.9095;-5.86376;-15.9095;696.9019999999999;1820.0;847.0;888.0;1024.0;863.0;1024.0;1024.0;1024.0;1.0;3.0;0.0;0.016696799999999998;0.0;0.0;0.0;-0.432175;-0.954364;-0.0491221;;1970-01-01 00:00:00.858
611.0;612.0;0.0;455.65;234.75;8.51484;454.02099999999996;240.09599999999998;0.0;22.0;1.0;-0.190662;-1.32918;-2.10375;-0.16833599999999999;-1.37753;-2.08363;-0.836932;1.33996;-0.546363;0.981619;1.39636;0.793912;413.333;121.333;10.2225;410.595;124.795;0.0;55.0;1.0;0.0477511;-0.643404;-2.0547400000000002;0.0412273;-0.6491779999999999;-2.03206;0.286936;0.19916;-0.301146;-2.18427;0.631023;-2.00107;1.0;-0.216087;-0.7341260000000001;-0.0288954;0.0477511;-0.643404;-2.0547400000000002;-15.9095;-5.86376;-15.9095;696.9019999999999;1820.0;847.0;888.0;1024.0;863.0;1024.0;1024.0;1024.0;1.0;3.0;0.0;0.016696799999999998;0.0;0.0;0.0;-0.432175;-0.954364;-0.0491221;;1970-01-01 00:00:00.869
612.0;613.0;0.0;456.829;231.171;8.568610000000001;455.724;236.03400000000002;0.0;23.0;1.0;-0.19633299999999998;-1.30338;-2.10193;-0.176735;-1.3552799999999998;-2.08912;-0.779261;1.32741;-0.519679;1.54049;0.958475;1.01441;413.0;121.0;10.2842;410.2;123.686;0.0;56.0;1.0;0.049081900000000005;-0.638189;-2.0432900000000003;0.043583699999999996;-0.645881;-2.03543;0.247239;0.20012;-0.306735;-2.2845299999999997;0.461819;-1.74565;1.0;-0.22581700000000002;-0.7170949999999999;-0.045831699999999996;0.049081900000000005;-0.638189;-2.0432900000000003;-15.4896;-5.616630000000001;-15.4896;696.9019999999999;1820.0;847.0;888.0;1024.0;863.0;1024.0;1024.0;1024.0;1.0;3.0;0.0;0.0166978;0.0;0.0;0.0;-0.451635;-0.9322239999999999;-0.0779139;;1970-01-01 00:00:00.880
613.0;614.0;0.0;457.22;227.512;8.619769999999999;457.05699999999996;231.99200000000002;0.0;24.0;1.0;-0.197427;-1.2779;-2.10102;-0.182943;-1.33207;-2.09269;-0.712569;1.32182;-0.48165;2.0705400000000003;0.588424;1.25237;414.667;119.333;10.2199;410.496;122.346;0.0;57.0;1.0;0.041253;-0.635387;-2.0605900000000004;0.042884500000000006;-0.642733;-2.04297;0.201909;0.196128;-0.34571399999999997;-2.37882;0.300989;-1.66908;1.0;-0.224196;-0.696682;-0.0321059;0.041253;-0.635387;-2.0605900000000004;-14.6301;-5.29332;-14.6301;696.9019999999999;1820.0;847.0;888.0;1024.0;863.0;1024.0;1024.0;1024.0;1.0;3.0;0.0;0.016696799999999998;0.0;0.0;0.0;-0.448392;-0.9056870000000001;-0.05458009999999999;;1970-01-01 00:00:00.891
614.0;615.0;0.0;457.1;223.4;8.750119999999999;457.959;227.827;0.0;25.0;1.0;-0.193804;-1.23922;-2.0825299999999998;-0.186201;-1.30421;-2.08964;-0.632262;1.34026;-0.411812;2.6004099999999997;0.363;1.58653;414.0;118.5;10.0211;410.546;121.10700000000001;0.0;58.0;1.0;0.0453909;-0.644515;-2.10373;0.043636400000000006;-0.643267;-2.0612;0.160609;0.174274;-0.432209;-2.45852;0.0704825;-1.9638900000000001;1.0;-0.23159200000000002;-0.6596989999999999;0.0140827;0.0453909;-0.644515;-2.10373;-14.0041;-4.125859999999999;-14.0041;696.9019999999999;1820.0;847.0;888.0;1024.0;863.0;1024.0;1024.0;1024.0;1.0;3.0;0.0;0.0166978;0.0;0.0;0.0;-0.46318400000000004;-0.8576090000000001;0.0239405;;1970-01-01 00:00:00.902
614.0;615.0;0.0;457.1;223.4;8.750119999999999;457.959;227.827;0.0;25.0;1.0;-0.193804;-1.23922;-2.0825299999999998;-0.186201;-1.30421;-2.08964;-0.632262;1.34026;-0.411812;2.6004099999999997;0.363;1.58653;414.0;118.5;10.0211;410.546;121.10700000000001;0.0;58.0;1.0;0.0453909;-0.644515;-2.10373;0.043636400000000006;-0.643267;-2.0612;0.160609;0.174274;-0.432209;-2.45852;0.0704825;-1.9638900000000001;1.0;-0.23159200000000002;-0.6596989999999999;0.0140827;0.0453909;-0.644515;-2.10373;-14.0041;-4.125859999999999;-14.0041;696.9019999999999;1820.0;847.0;888.0;1024.0;863.0;1024.0;1024.0;1024.0;1.0;3.0;0.0;0.0166978;0.0;0.0;0.0;-0.46318400000000004;-0.8576090000000001;0.0239405;;1970-01-01 00:00:00.913
615.0;616.0;0.0;456.65;219.1;8.98741;458.44300000000004;223.516;0.0;26.0;1.0;-0.18618900000000002;-1.1865;-2.0405900000000003;-0.186198;-1.2689;-2.0749299999999997;-0.533794;1.40483;-0.277117;3.16391;0.45160200000000006;2.23921;414.0;117.0;10.091000000000001;410.629;119.73200000000001;0.0;59.0;1.0;0.0450764;-0.633836;-2.0932;0.0440684;-0.6404380000000001;-2.0708;0.12931800000000002;0.153801;-0.505739;-2.44865;-0.18438;-2.3559799999999997;1.0;-0.23127399999999998;-0.635065;0.018275;0.0450764;-0.633836;-2.0932;-13.002;-2.48227;-13.002;696.9019999999999;1820.0;847.0;888.0;1024.0;863.0;1024.0;1024.0;1024.0;1.0;3.0;0.0;0.016697;0.0;0.0;0.0;-0.46254799999999996;-0.825584;0.0310675;;1970-01-01 00:00:00.924
616.0;617.0;0.0;454.955;213.68200000000002;9.08142;458.235;218.755;0.0;27.0;1.0;-0.174946;-1.1492799999999999;-2.03573;-0.182822;-1.23302;-2.06317;-0.416315;1.50263;-0.118994;3.78928;0.880225;3.13537;414.8;115.6;9.99409;410.98900000000003;118.292;0.0;60.0;1.0;0.041519400000000005;-0.6341289999999999;-2.11733;0.0433037;-0.638545;-2.0847599999999997;0.0970445;0.14461;-0.552673;-2.3888;-0.35441100000000003;-2.5864;1.0;-0.22434099999999998;-0.598887;0.0541563;0.041519400000000005;-0.6341289999999999;-2.11733;-11.5917;-0.0909972;-11.5917;696.9019999999999;1820.0;847.0;888.0;1024.0;863.0;1024.0;1024.0;1024.0;1.0;3.0;0.0;0.0166978;0.0;0.0;0.0;-0.448683;-0.778552;0.09206569999999999;;1970-01-01 00:00:00.935
616.0;617.0;0.0;454.955;213.68200000000002;9.08142;458.235;218.755;0.0;27.0;1.0;-0.174946;-1.1492799999999999;-2.03573;-0.182822;-1.23302;-2.06317;-0.416315;1.50263;-0.118994;3.78928;0.880225;3.13537;414.8;115.6;9.99409;410.98900000000003;118.292;0.0;60.0;1.0;0.041519400000000005;-0.6341289999999999;-2.11733;0.0433037;-0.638545;-2.0847599999999997;0.0970445;0.14461;-0.552673;-2.3888;-0.35441100000000003;-2.5864;1.0;-0.22434099999999998;-0.598887;0.0541563;0.041519400000000005;-0.6341289999999999;-2.11733;-11.5917;-0.0909972;-11.5917;696.9019999999999;1820.0;847.0;888.0;1024.0;863.0;1024.0;1024.0;1024.0;1.0;3.0;0.0;0.0166978;0.0;0.0;0.0;-0.448683;-0.778552;0.09206569999999999;;1970-01-01 00:00:00.946
617.0;618.0;0.0;452.744;208.419;9.20227;457.361;213.71599999999998;0.0;28.0;1.0;-0.160662;-1.11028;-2.0245900000000003;-0.176174;-1.1962;-2.05159;-0.281082;1.62558;0.056514699999999994;4.49288;1.66852;4.2883;416.0;115.0;9.96269;411.67400000000004;117.06200000000001;0.0;61.0;1.0;0.0356398;-0.63361;-2.12564;0.0410045;-0.637065;-2.09702;0.057337400000000004;0.135128;-0.5909939999999999;-2.34998;-0.46830299999999997;-2.70909;1.0;-0.21181399999999997;-0.5625859999999999;0.0740466;0.0356398;-0.63361;-2.12564;-9.80705;2.67944;-9.80705;696.9019999999999;1820.0;847.0;888.0;1024.0;863.0;1024.0;1024.0;1024.0;1.0;3.0;0.0;0.016696799999999998;0.0;0.0;0.0;-0.42362799999999995;-0.7313609999999999;0.125879;;1970-01-01 00:00:00.957
618.0;619.0;0.0;449.36199999999997;202.68099999999998;9.38937;455.635;208.328;0.0;29.0;1.0;-0.139485;-1.0626200000000001;-2.0009;-0.165167;-1.15612;-2.0363900000000004;-0.12246199999999999;1.77053;0.24446199999999998;5.31809;2.77031;5.6239099999999995;417.2;114.4;9.892000000000001;412.593;115.988;0.0;62.0;1.0;0.0298411;-0.635603;-2.14248;0.0376555;-0.636626;-2.1106599999999998;0.0107335;0.11802699999999999;-0.654985;-2.35427;-0.608745;-3.01589;1.0;-0.195008;-0.520519;0.106099;0.0298411;-0.635603;-2.14248;-7.59669;6.10018;-7.59669;696.9019999999999;1820.0;847.0;888.0;1024.0;863.0;1024.0;1024.0;1024.0;1.0;3.0;0.0;0.0166978;0.0;0.0;0.0;-0.390017;-0.676675;0.180368;;1970-01-01 00:00:00.968
618.0;619.0;0.0;449.36199999999997;202.68099999999998;9.38937;455.635;208.328;0.0;29.0;1.0;-0.139485;-1.0626200000000001;-2.0009;-0.165167;-1.15612;-2.0363900000000004;-0.12246199999999999;1.77053;0.24446199999999998;5.31809;2.77031;5.6239099999999995;417.2;114.4;9.892000000000001;412.593;115.988;0.0;62.0;1.0;0.0298411;-0.635603;-2.14248;0.0376555;-0.636626;-2.1106599999999998;0.0107335;0.11802699999999999;-0.654985;-2.35427;-0.608745;-3.01589;1.0;-0.195008;-0.520519;0.106099;0.0298411;-0.635603;-2.14248;-7.59669;6.10018;-7.59669;696.9019999999999;1820.0;847.0;888.0;1024.0;863.0;1024.0;1024.0;1024.0;1.0;3.0;0.0;0.0166978;0.0;0.0;0.0;-0.390017;-0.676675;0.180368;;1970-01-01 00:00:00.979
619.0;620.0;0.0;445.333;196.125;9.5357;453.089;202.43599999999998;0.0;30.0;1.0;-0.116264;-1.01758;-1.9889299999999999;-0.150496;-1.11456;-2.02215;0.0560703;1.9307599999999998;0.428325;6.25975;4.09345;7.00755;418.0;113.0;9.86538;413.551;114.772;0.0;63.0;1.0;0.0258752;-0.631387;-2.15213;0.0341214;-0.635054;-2.1231;-0.028547500000000003;0.10147300000000001;-0.712918;-2.33269;-0.743169;-3.27564;1.0;-0.176371;-0.48317200000000005;0.129984;0.0258752;-0.631387;-2.15213;-5.12297;9.62757;-5.12297;696.9019999999999;650.0;847.0;888.0;1024.0;863.0;1024.0;1024.0;1024.0;1.0;3.0;0.0;0.016696799999999998;0.0;0.0;0.0;-0.352743;-0.628123;0.220973;;1970-01-01 00:00:00.990
620.0;621.0;0.0;440.24;188.56;9.785;449.61199999999997;195.864;0.0;31.0;1.0;-0.0873277;-0.959335;-1.95933;-0.131546;-1.06799;-2.0033;0.251869;2.10163;0.601729;7.28597;5.49605;8.25135;418.5;112.0;9.91361;414.43800000000005;113.584;0.0;64.0;1.0;0.0232326;-0.624099;-2.1444099999999997;0.0308548;-0.631768;-2.1295;-0.06816230000000001;0.106798;-0.70044;-2.31304;-0.715316;-3.0363599999999997;1.0;-0.154778;-0.44389300000000004;0.14110899999999998;0.0232326;-0.624099;-2.1444099999999997;-2.33242;13.5591;-2.33242;696.9019999999999;671.0;1110.0;1328.0;1024.0;863.0;1024.0;1024.0;1024.0;1.0;3.0;0.0;0.0166948;0.0;0.0;0.0;-0.309557;-0.5770609999999999;0.23988400000000001;;1970-01-01 00:00:01.001
620.0;621.0;0.0;440.24;188.56;9.785;449.61199999999997;195.864;0.0;31.0;1.0;-0.0873277;-0.959335;-1.95933;-0.131546;-1.06799;-2.0033;0.251869;2.10163;0.601729;7.28597;5.49605;8.25135;418.5;112.0;9.91361;414.43800000000005;113.584;0.0;64.0;1.0;0.0232326;-0.624099;-2.1444099999999997;0.0308548;-0.631768;-2.1295;-0.06816230000000001;0.106798;-0.70044;-2.31304;-0.715316;-3.0363599999999997;1.0;-0.154778;-0.44389300000000004;0.14110899999999998;0.0232326;-0.624099;-2.1444099999999997;-2.33242;13.5591;-2.33242;696.9019999999999;671.0;1110.0;1328.0;1024.0;863.0;1024.0;1024.0;1024.0;1.0;3.0;0.0;0.0166948;0.0;0.0;0.0;-0.309557;-0.5770609999999999;0.23988400000000001;;1970-01-01 00:00:01.012
621.0;622.0;0.0;433.962;180.56599999999997;10.0982;445.091;188.666;0.0;32.0;1.0;-0.05359830000000001;-0.896495;-1.9201400000000002;-0.108161;-1.01654;-1.97836;0.46270100000000003;2.26859;0.746628;8.35035;6.74642;9.03838;420.0;111.0;9.84112;415.589;112.417;0.0;65.0;1.0;0.0157979;-0.624448;-2.16298;0.026337700000000002;-0.629572;-2.13954;-0.11169200000000001;0.107464;-0.694723;-2.35011;-0.614201;-2.57638;1.0;-0.12395899999999999;-0.392094;0.184621;0.0157979;-0.624448;-2.16298;1.15016;18.6672;1.15016;696.9019999999999;672.0;1165.0;1371.0;1024.0;863.0;1024.0;1024.0;1024.0;1.0;3.0;0.0;0.016696799999999998;0.0;0.0;0.0;-0.247919;-0.509722;0.313855;;1970-01-01 00:00:01.023
622.0;623.0;0.0;426.0;171.0;10.4646;439.285;180.524;0.0;33.0;1.0;-0.0137539;-0.826892;-1.87782;-0.0798392;-0.959648;-1.9482;0.688806;2.45265;0.90704;9.4227;7.84103;9.519739999999999;420.667;110.667;9.91165;416.663;111.48100000000001;0.0;66.0;1.0;0.0123292;-0.618599;-2.1485;0.0221352;-0.6262800000000001;-2.14223;-0.15153599999999998;0.113449;-0.6463;-2.40259;-0.492939;-1.91966;1.0;-0.0921684;-0.341048;0.20030699999999999;0.0123292;-0.618599;-2.1485;4.93355;24.2433;4.93355;696.9019999999999;658.0;1223.0;1399.0;1024.0;863.0;1024.0;1024.0;1024.0;1.0;3.0;0.0;0.0166978;0.0;0.0;0.0;-0.184337;-0.443363;0.340522;;1970-01-01 00:00:01.034
622.0;623.0;0.0;426.0;171.0;10.4646;439.285;180.524;0.0;33.0;1.0;-0.0137539;-0.826892;-1.87782;-0.0798392;-0.959648;-1.9482;0.688806;2.45265;0.90704;9.4227;7.84103;9.519739999999999;420.667;110.667;9.91165;416.663;111.48100000000001;0.0;66.0;1.0;0.0123292;-0.618599;-2.1485;0.0221352;-0.6262800000000001;-2.14223;-0.15153599999999998;0.113449;-0.6463;-2.40259;-0.492939;-1.91966;1.0;-0.0921684;-0.341048;0.20030699999999999;0.0123292;-0.618599;-2.1485;4.93355;24.2433;4.93355;696.9019999999999;658.0;1223.0;1399.0;1024.0;863.0;1024.0;1024.0;1024.0;1.0;3.0;0.0;0.0166978;0.0;0.0;0.0;-0.184337;-0.443363;0.340522;;1970-01-01 00:00:01.045
623.0;624.0;0.0;417.032;160.935;10.7541;432.233;171.546;0.0;34.0;1.0;0.028227299999999997;-0.765519;-1.8527900000000002;-0.047419199999999995;-0.901409;-1.91957;0.927372;2.6486;1.07135;10.4787;8.7893;9.76385;420.4;109.2;9.806000000000001;417.38;110.351;0.0;67.0;1.0;0.0138191;-0.619013;-2.1757299999999997;0.0196403;-0.6241;-2.1522799999999997;-0.176223;0.119834;-0.608403;-2.3741;-0.356827;-1.2213100000000001;1.0;-0.0612383;-0.282396;0.256156;0.0138191;-0.619013;-2.1757299999999997;8.7921;31.0639;8.7921;696.9019999999999;654.0;1281.0;1430.0;1024.0;863.0;1024.0;1024.0;1024.0;1.0;3.0;0.0;0.016696799999999998;0.0;0.0;0.0;-0.122477;-0.367115;0.435465;;1970-01-01 00:00:01.056
624.0;625.0;0.0;406.16900000000004;149.606;11.2782;423.686;161.56799999999998;0.0;35.0;1.0;0.0749792;-0.687954;-1.7940599999999998;-0.010699700000000001;-0.8373719999999999;-1.88192;1.17318;2.86186;1.25955;11.4604;9.630989999999999;9.91133;420.0;108.0;9.798960000000001;417.792;109.166;0.0;68.0;1.0;0.0158659;-0.6143390000000001;-2.18063;0.018508;-0.6211720000000001;-2.16078;-0.18218499999999999;0.133607;-0.565168;-2.1947400000000004;-0.15189;-0.374165;1.0;-0.0210612;0.011892299999999998;0.345821;0.0103615;-0.8492649999999999;-2.2277400000000003;12.4758;45.8069;12.4758;696.9019999999999;305.0;1335.0;1365.0;1024.0;863.0;1024.0;1024.0;1024.0;1.0;3.0;0.0;0.0166978;0.0;0.0;0.0;-0.0421224;0.015459899999999999;0.587897;;1970-01-01 00:00:01.067
625.0;626.0;0.0;394.225;136.425;11.6114;413.722;150.289;0.0;36.0;1.0;0.12415699999999999;-0.620769;-1.7735299999999998;0.0297574;-0.7723909999999999;-1.8494;1.42362;3.08331;1.44547;12.3365;10.3805;10.008;420.0;107.0;9.926730000000001;418.11;108.008;0.0;69.0;1.0;0.0156617;-0.602221;-2.15531;0.0176541;-0.615486;-2.1591400000000003;-0.175061;0.158295;-0.48299;-1.90183;0.135742;0.6935439999999999;1.0;0.0232413;0.0798293;0.334275;0.00651604;-0.8522209999999999;-2.18368;15.629000000000001;50.7384;15.629000000000001;696.9019999999999;305.0;1363.0;1365.0;1024.0;863.0;1024.0;1024.0;1024.0;1.0;3.0;0.0;0.016696799999999998;0.0;0.0;0.0;0.0464827;0.103778;0.568268;;1970-01-01 00:00:01.078
625.0;626.0;0.0;394.225;136.425;11.6114;413.722;150.289;0.0;36.0;1.0;0.12415699999999999;-0.620769;-1.7735299999999998;0.0297574;-0.7723909999999999;-1.8494;1.42362;3.08331;1.44547;12.3365;10.3805;10.008;420.0;107.0;9.926730000000001;418.11;108.008;0.0;69.0;1.0;0.0156617;-0.602221;-2.15531;0.0176541;-0.615486;-2.1591400000000003;-0.175061;0.158295;-0.48299;-1.90183;0.135742;0.6935439999999999;1.0;0.0232413;0.0798293;0.334275;0.00651604;-0.8522209999999999;-2.18368;15.629000000000001;50.7384;15.629000000000001;696.9019999999999;305.0;1363.0;1365.0;1024.0;863.0;1024.0;1024.0;1024.0;1.0;3.0;0.0;0.016696799999999998;0.0;0.0;0.0;0.0464827;0.103778;0.568268;;1970-01-01 00:00:01.089
626.0;627.0;0.0;381.38800000000003;121.929;12.2628;402.458;137.658;0.0;37.0;1.0;0.169796;-0.5383819999999999;-1.71153;0.0717691;-0.7021890000000001;-1.80804;1.66593;3.3105;1.6469;13.0477;11.0548;10.1778;419.2;106.4;9.8591;418.102;106.99799999999999;0.0;70.0;1.0;0.019818099999999998;-0.603808;-2.17175;0.018303299999999998;-0.6119829999999999;-2.16292;-0.15515;0.17397;-0.42325799999999997;-1.48841;0.349639;1.52281;1.0;0.0614606;0.151619;0.389946;0.0103086;-0.853808;-2.1979900000000003;18.468;55.8411;18.468;696.9019999999999;305.0;1363.0;1365.0;1024.0;863.0;1024.0;1024.0;1024.0;1.0;3.0;0.0;0.016697999999999998;0.0;0.0;0.0;0.122921;0.197105;0.6629079999999999;;1970-01-01 00:00:01.100
627.0;628.0;0.0;366.533;105.37799999999999;12.8072;389.626;123.40899999999999;0.0;38.0;1.0;0.220458;-0.46148199999999995;-1.6740099999999998;0.116376;-0.629977;-1.76783;1.89605;3.5297199999999997;1.8286799999999999;13.5515;11.6682;10.4269;418.4;105.2;9.82373;417.856;105.905;0.0;71.0;1.0;0.023953099999999998;-0.600877;-2.1829;0.0199982;-0.608651;-2.16892;-0.11840099999999999;0.187911;-0.371243;-0.919833;0.53098;2.20522;1.0;0.101465;0.2209;0.439734;0.014911099999999998;-0.850877;-2.20757;21.0652;60.7648;21.0652;696.9019999999999;305.0;1364.0;1365.0;1024.0;863.0;1024.0;1024.0;1024.0;1.0;3.0;0.0;0.016696799999999998;0.0;0.0;0.0;0.202929;0.28717;0.747548;;1970-01-01 00:00:01.111
627.0;628.0;0.0;366.533;105.37799999999999;12.8072;389.626;123.40899999999999;0.0;38.0;1.0;0.220458;-0.46148199999999995;-1.6740099999999998;0.116376;-0.629977;-1.76783;1.89605;3.5297199999999997;1.8286799999999999;13.5515;11.6682;10.4269;418.4;105.2;9.82373;417.856;105.905;0.0;71.0;1.0;0.023953099999999998;-0.600877;-2.1829;0.0199982;-0.608651;-2.16892;-0.11840099999999999;0.187911;-0.371243;-0.919833;0.53098;2.20522;1.0;0.101465;0.2209;0.439734;0.014911099999999998;-0.850877;-2.20757;21.0652;60.7648;21.0652;696.9019999999999;305.0;1364.0;1365.0;1024.0;863.0;1024.0;1024.0;1024.0;1.0;3.0;0.0;0.016696799999999998;0.0;0.0;0.0;0.202929;0.28717;0.747548;;1970-01-01 00:00:01.122
628.0;629.0;0.0;350.805;88.2069;13.5054;375.394;107.8;0.0;39.0;1.0;0.26717399999999997;-0.38448000000000004;-1.62212;0.161615;-0.5563279999999999;-1.72412;2.10167;3.7281400000000002;1.99187;13.772;12.0935;10.5875;417.0;105.0;9.90952;417.246;105.072;0.0;72.0;1.0;0.0307955;-0.594831;-2.16455;0.023237400000000002;-0.6045050000000001;-2.16761;-0.0666398;0.19968699999999998;-0.32407199999999997;-0.212943;0.662902;2.60967;1.0;0.138132;0.288503;0.463363;0.023483;-0.844831;-2.18748;23.2235;65.3229;23.2235;696.9019999999999;305.0;1364.0;1365.0;1024.0;863.0;1024.0;1024.0;1024.0;1.0;3.0;0.0;0.0166978;0.0;0.0;0.0;0.276264;0.375054;0.787717;;1970-01-01 00:00:01.133
629.0;630.0;0.0;333.403;68.2078;14.46;359.634;90.3266;0.0;40.0;1.0;0.309589;-0.301291;-1.55273;0.20600700000000002;-0.479817;-1.6727;2.27284;3.92015;2.18079;13.6352;12.3329;10.7821;416.0;103.0;9.87217;416.5;103.854;0.0;73.0;1.0;0.0359666;-0.5886140000000001;-2.17826;0.027056200000000002;-0.599738;-2.1708;-0.010375200000000001;0.217081;-0.268407;0.534404;0.786012;2.92328;1.0;0.174378;0.358797;0.526655;0.031629000000000004;-0.838614;-2.19936;25.0038;69.8344;25.0038;696.9019999999999;305.0;1365.0;1365.0;1024.0;863.0;1024.0;1024.0;1024.0;1.0;3.0;0.0;0.016696799999999998;0.0;0.0;0.0;0.34875700000000004;0.46643599999999996;0.8953139999999999;;1970-01-01 00:00:01.144
629.0;630.0;0.0;333.403;68.2078;14.46;359.634;90.3266;0.0;40.0;1.0;0.309589;-0.301291;-1.55273;0.20600700000000002;-0.479817;-1.6727;2.27284;3.92015;2.18079;13.6352;12.3329;10.7821;416.0;103.0;9.87217;416.5;103.854;0.0;73.0;1.0;0.0359666;-0.5886140000000001;-2.17826;0.027056200000000002;-0.599738;-2.1708;-0.010375200000000001;0.217081;-0.268407;0.534404;0.786012;2.92328;1.0;0.174378;0.358797;0.526655;0.031629000000000004;-0.838614;-2.19936;25.0038;69.8344;25.0038;696.9019999999999;305.0;1365.0;1365.0;1024.0;863.0;1024.0;1024.0;1024.0;1.0;3.0;0.0;0.016696799999999998;0.0;0.0;0.0;0.34875700000000004;0.46643599999999996;0.8953139999999999;;1970-01-01 00:00:01.155
630.0;631.0;0.0;314.57099999999997;46.0779;15.1809;342.332;70.8411;0.0;41.0;1.0;0.35678699999999997;-0.226054;-1.51874;0.251241;-0.403688;-1.6265100000000001;2.4095400000000002;4.08364;2.32822;13.1175;12.2779;10.735999999999999;413.667;102.333;9.836210000000001;415.231;102.78299999999999;0.0;74.0;1.0;0.0479353;-0.587933;-2.18807;0.0333199;-0.596196;-2.17599;0.0529133;0.22996599999999998;-0.22173800000000002;1.2593;0.856332;3.12515;1.0;0.204008;0.434245;0.579715;0.0472336;-0.837933;-2.20623;26.2641;73.9986;26.2641;696.9019999999999;305.0;1365.0;1365.0;1024.0;863.0;1024.0;1024.0;1024.0;1.0;3.0;0.0;0.0166978;0.0;0.0;0.0;0.408015;0.564519;0.985516;;1970-01-01 00:00:01.166
631.0;632.0;0.0;295.692;23.4615;15.7798;323.91900000000004;49.7625;0.0;42.0;1.0;0.402944;-0.157567;-1.50015;0.296752;-0.329851;-1.5886;2.51174;4.21708;2.4382099999999998;12.215;11.8935;10.4053;411.0;101.0;9.8153;413.476;101.60700000000001;0.0;75.0;1.0;0.061594399999999994;-0.583507;-2.19644;0.0418022;-0.59239;-2.1821200000000003;0.128162;0.23019699999999998;-0.224794;1.9662400000000002;0.8008770000000001;2.90597;1.0;0.231481;0.503656;0.623242;0.0652713;-0.833507;-2.21185;27.0421;77.5596;27.0421;696.9019999999999;305.0;1365.0;1365.0;1024.0;863.0;1024.0;1024.0;1024.0;1.0;3.0;0.0;0.016696799999999998;0.0;0.0;0.0;0.46296099999999996;0.654752;1.05951;;1970-01-01 00:00:01.177
631.0;632.0;0.0;295.692;23.4615;15.7798;323.91900000000004;49.7625;0.0;42.0;1.0;0.402944;-0.157567;-1.50015;0.296752;-0.329851;-1.5886;2.51174;4.21708;2.4382099999999998;12.215;11.8935;10.4053;411.0;101.0;9.8153;413.476;101.60700000000001;0.0;75.0;1.0;0.061594399999999994;-0.583507;-2.19644;0.0418022;-0.59239;-2.1821200000000003;0.128162;0.23019699999999998;-0.224794;1.9662400000000002;0.8008770000000001;2.90597;1.0;0.231481;0.503656;0.623242;0.0652713;-0.833507;-2.21185;27.0421;77.5596;27.0421;696.9019999999999;305.0;1365.0;1365.0;1024.0;863.0;1024.0;1024.0;1024.0;1.0;3.0;0.0;0.016696799999999998;0.0;0.0;0.0;0.46296099999999996;0.654752;1.05951;;1970-01-01 00:00:01.188
632.0;633.0;0.0;285.481;8.740739999999999;16.2516;307.474;30.0562;0.0;43.0;1.0;0.4226;-0.115133;-1.4813;0.334507;-0.265436;-1.55641;2.55606;4.27405;2.46759;10.8829;10.9832;9.51989;409.0;99.0;10.0877;411.584;100.14399999999999;0.0;76.0;1.0;0.0698243;-0.5594640000000001;-2.14253;0.0502089;-0.582512;-2.17024;0.204284;0.255785;-0.164105;2.61483;0.807182;2.77828;1.0;0.255704;0.544028;0.6018680000000001;0.078803;-0.8094640000000001;-2.15828;27.2002;79.30199999999999;27.2002;696.9019999999999;305.0;1365.0;1365.0;1024.0;863.0;1024.0;1024.0;1024.0;1.0;3.0;0.0;0.016697999999999998;0.0;0.0;0.0;0.511407;0.707237;1.02318;;1970-01-01 00:00:01.199
633.0;634.0;0.0;280.0;0.0;16.6066;302.709;22.8153;1.0;0.0;1.0;0.4226;-0.115133;-1.4813;0.334507;-0.265436;-1.55641;2.55606;4.27405;2.46759;10.8829;10.9832;9.51989;408.4;98.8;10.0082;410.042;99.0469;0.0;77.0;1.0;0.0733702;-0.56307;-2.1600900000000003;0.0571573;-0.5766789999999999;-2.1672;0.270933;0.281122;-0.091596;3.12336;0.8564639999999999;2.7835;1.0;0.246982;0.5476340000000001;0.615042;0.08752439999999999;-0.81307;-2.1714599999999997;26.4014;79.3766;26.4014;696.9019999999999;305.0;1365.0;1365.0;1024.0;863.0;1024.0;1024.0;1024.0;1.0;3.0;0.0;0.016697999999999998;0.0;0.0;0.0;0.493964;0.711924;1.04557;;1970-01-01 00:00:01.210
633.0;634.0;0.0;280.0;0.0;16.6066;302.709;22.8153;1.0;0.0;1.0;0.4226;-0.115133;-1.4813;0.334507;-0.265436;-1.55641;2.55606;4.27405;2.46759;10.8829;10.9832;9.51989;408.4;98.8;10.0082;410.042;99.0469;0.0;77.0;1.0;0.0733702;-0.56307;-2.1600900000000003;0.0571573;-0.5766789999999999;-2.1672;0.270933;0.281122;-0.091596;3.12336;0.8564639999999999;2.7835;1.0;0.246982;0.5476340000000001;0.615042;0.08752439999999999;-0.81307;-2.1714599999999997;26.4014;79.3766;26.4014;696.9019999999999;305.0;1365.0;1365.0;1024.0;863.0;1024.0;1024.0;1024.0;1.0;3.0;0.0;0.016697999999999998;0.0;0.0;0.0;0.493964;0.711924;1.04557;;1970-01-01 00:00:01.221
634.0;635.0;0.0;280.0;0.0;16.6066;297.943;15.574000000000002;2.0;0.0;1.0;0.4226;-0.115133;-1.4813;0.334507;-0.265436;-1.55641;2.55606;4.27405;2.46759;10.8829;10.9832;9.51989;406.0;97.0;10.0172;408.18199999999996;97.7071;0.0;78.0;1.0;0.0852602;-0.5550579999999999;-2.1630599999999998;0.06558810000000001;-0.5701930000000001;-2.1659599999999997;0.33165;0.305669;-0.048362699999999995;3.46424;0.937025;2.7709;1.0;0.230685;0.539622;0.612921;0.103822;-0.8050579999999999;-2.16933;25.5149;79.2108;25.5149;696.9019999999999;305.0;1365.0;1365.0;1024.0;863.0;1024.0;1024.0;1024.0;1.0;3.0;0.0;0.016697999999999998;0.0;0.0;0.0;0.46137;0.701509;1.04197;;1970-01-01 00:00:01.232
635.0;636.0;0.0;280.0;0.0;16.6066;293.178;8.333169999999999;3.0;0.0;1.0;0.4226;-0.115133;-1.4813;0.334507;-0.265436;-1.55641;2.55606;4.27405;2.46759;10.8829;10.9832;9.51989;404.667;95.3333;10.1282;406.434;96.2346;0.0;79.0;1.0;0.0908948;-0.542096;-2.14383;0.0731801;-0.561764;-2.15932;0.383146;0.335017;0.016837099999999997;3.64972;1.03309;2.8014099999999997;1.0;0.22107800000000002;0.52666;0.590708;0.113429;-0.792096;-2.14712;24.8431;78.9426;24.8431;696.9019999999999;305.0;1365.0;1365.0;1024.0;863.0;1024.0;1024.0;1024.0;1.0;3.0;0.0;0.016697999999999998;0.0;0.0;0.0;0.44215600000000005;0.684658;1.0042;;1970-01-01 00:00:01.243
636.0;637.0;0.0;280.0;0.0;16.6066;288.41200000000003;1.09189;4.0;0.0;1.0;0.4226;-0.115133;-1.4813;0.334507;-0.265436;-1.55641;2.55606;4.27405;2.46759;10.8829;10.9832;9.51989;403.333;94.6667;10.0992;404.769;94.9861;0.0;80.0;1.0;0.0977434;-0.540891;-2.15178;0.08054910000000001;-0.555502;-2.15706;0.41845600000000005;0.363487;0.085671;3.64931;1.15295;2.90822;1.0;0.21097399999999997;0.525456;0.594237;0.12353299999999999;-0.790891;-2.15065;24.3157;78.9176;24.3157;696.9019999999999;305.0;1365.0;1365.0;1024.0;863.0;1024.0;1024.0;1024.0;1.0;3.0;0.0;0.016697999999999998;0.0;0.0;0.0;0.42194799999999993;0.683092;1.0102;;1970-01-01 00:00:01.254
636.0;637.0;0.0;280.0;0.0;16.6066;288.41200000000003;1.09189;4.0;0.0;1.0;0.4226;-0.115133;-1.4813;0.334507;-0.265436;-1.55641;2.55606;4.27405;2.46759;10.8829;10.9832;9.51989;403.333;94.6667;10.0992;404.769;94.9861;0.0;80.0;1.0;0.0977434;-0.540891;-2.15178;0.08054910000000001;-0.555502;-2.15706;0.41845600000000005;0.363487;0.085671;3.64931;1.15295;2.90822;1.0;0.21097399999999997;0.525456;0.594237;0.12353299999999999;-0.790891;-2.15065;24.3157;78.9176;24.3157;696.9019999999999;305.0;1365.0;1365.0;1024.0;863.0;1024.0;1024.0;1024.0;1.0;3.0;0.0;0.016697999999999998;0.0;0.0;0.0;0.42194799999999993;0.683092;1.0102;;1970-01-01 00:00:01.265
637.0;638.0;0.0;280.0;0.0;16.6066;283.647;-6.1490800000000005;5.0;0.0;1.0;0.4226;-0.115133;-1.4813;0.334507;-0.265436;-1.55641;2.55606;4.27405;2.46759;10.8829;10.9832;9.51989;404.0;93.0;9.99725;403.805;93.5824;0.0;81.0;1.0;0.0954128;-0.5394399999999999;-2.17827;0.0850082;-0.550683;-2.16342;0.42357799999999995;0.384608;0.126056;3.36907;1.3082799999999999;3.14574;1.0;0.211164;0.524004;0.616143;0.12334200000000001;-0.7894399999999999;-2.17256;24.2707;78.8876;24.2707;696.9019999999999;305.0;1365.0;1365.0;1024.0;863.0;1024.0;1024.0;1024.0;1.0;3.0;0.0;0.016697999999999998;0.0;0.0;0.0;0.422329;0.6812060000000001;1.04744;;1970-01-01 00:00:01.276
638.0;639.0;0.0;280.0;0.0;16.6066;278.881;-13.3904;6.0;0.0;1.0;0.4226;-0.115133;-1.4813;0.334507;-0.265436;-1.55641;2.55606;4.27405;2.46759;10.8829;10.9832;9.51989;404.0;91.5;9.83859;403.13800000000003;92.1204;0.0;82.0;1.0;0.0969514;-0.541767;-2.2175599999999998;0.0885912;-0.5480079999999999;-2.1796599999999997;0.407393;0.36852399999999996;0.0380284;2.83238;1.23509;2.69449;1.0;0.20939000000000002;0.526331;0.652762;0.125117;-0.791767;-2.20917;24.3907;78.9358;24.3907;696.9019999999999;305.0;1365.0;1365.0;1024.0;863.0;1024.0;1024.0;1024.0;1.0;3.0;0.0;0.016697999999999998;0.0;0.0;0.0;0.418779;0.68423;1.1097;;1970-01-01 00:00:01.287
638.0;639.0;0.0;280.0;0.0;16.6066;278.881;-13.3904;6.0;0.0;1.0;0.4226;-0.115133;-1.4813;0.334507;-0.265436;-1.55641;2.55606;4.27405;2.46759;10.8829;10.9832;9.51989;404.0;91.5;9.83859;403.13800000000003;92.1204;0.0;82.0;1.0;0.0969514;-0.541767;-2.2175599999999998;0.0885912;-0.5480079999999999;-2.1796599999999997;0.407393;0.36852399999999996;0.0380284;2.83238;1.23509;2.69449;1.0;0.20939000000000002;0.526331;0.652762;0.125117;-0.791767;-2.20917;24.3907;78.9358;24.3907;696.9019999999999;305.0;1365.0;1365.0;1024.0;863.0;1024.0;1024.0;1024.0;1.0;3.0;0.0;0.016697999999999998;0.0;0.0;0.0;0.418779;0.68423;1.1097;;1970-01-01 00:00:01.298
639.0;640.0;0.0;280.0;0.0;16.6066;274.116;-20.6312;7.0;0.0;1.0;0.4226;-0.115133;-1.4813;0.334507;-0.265436;-1.55641;2.55606;4.27405;2.46759;10.8829;10.9832;9.51989;403.5;90.0;10.0142;402.527;90.6173;0.0;83.0;1.0;0.0977423;-0.526003;-2.1827400000000003;0.0913365;-0.541407;-2.18059;0.38090100000000005;0.361944;-0.030646299999999998;2.13849;1.06375;1.8600400000000001;1.0;0.20944200000000002;0.510567;0.62378;0.125065;-0.776003;-2.18019;24.6434;78.6095;24.6434;696.9019999999999;305.0;1365.0;1365.0;1024.0;863.0;1024.0;1024.0;1024.0;1.0;3.0;0.0;0.016697999999999998;0.0;0.0;0.0;0.418883;0.663738;1.06043;;1970-01-01 00:00:01.309
640.0;641.0;0.0;280.0;0.0;16.6066;269.351;-27.8725;8.0;0.0;1.0;0.4226;-0.115133;-1.4813;0.334507;-0.265436;-1.55641;2.55606;4.27405;2.46759;10.8829;10.9832;9.51989;403.333;88.6667;10.0633;402.06199999999995;89.1388;0.0;84.0;1.0;0.098092;-0.5179;-2.17571;0.0933631;-0.534355;-2.17912;0.339436;0.360255;-0.070964;1.31418;0.856193;1.02579;1.0;0.210669;0.502464;0.621367;0.12383800000000002;-0.7679;-2.17778;25.0606;78.4418;25.0606;696.9019999999999;305.0;1365.0;1365.0;1024.0;863.0;1024.0;1024.0;1024.0;1.0;3.0;0.0;0.016697999999999998;0.0;0.0;0.0;0.42133699999999996;0.653203;1.0563200000000001;;1970-01-01 00:00:01.320
640.0;641.0;0.0;280.0;0.0;16.6066;269.351;-27.8725;8.0;0.0;1.0;0.4226;-0.115133;-1.4813;0.334507;-0.265436;-1.55641;2.55606;4.27405;2.46759;10.8829;10.9832;9.51989;403.333;88.6667;10.0633;402.06199999999995;89.1388;0.0;84.0;1.0;0.098092;-0.5179;-2.17571;0.0933631;-0.534355;-2.17912;0.339436;0.360255;-0.070964;1.31418;0.856193;1.02579;1.0;0.210669;0.502464;0.621367;0.12383800000000002;-0.7679;-2.17778;25.0606;78.4418;25.0606;696.9019999999999;305.0;1365.0;1365.0;1024.0;863.0;1024.0;1024.0;1024.0;1.0;3.0;0.0;0.016697999999999998;0.0;0.0;0.0;0.42133699999999996;0.653203;1.0563200000000001;;1970-01-01 00:00:01.331
641.0;642.0;0.0;280.0;0.0;16.6066;264.585;-35.1134;9.0;0.0;1.0;0.4226;-0.115133;-1.4813;0.334507;-0.265436;-1.55641;2.55606;4.27405;2.46759;10.8829;10.9832;9.51989;405.0;87.0;9.937439999999999;402.289;87.5732;0.0;85.0;1.0;0.0909657;-0.517451;-2.20784;0.0926439;-0.529283;-2.1877400000000002;0.281373;0.345835;-0.15605;0.38216500000000003;0.556908;-0.0747997;1.0;0.22044699999999998;0.502015;0.656258;0.11406;-0.767451;-2.21267;25.798000000000002;78.4325;25.798000000000002;696.9019999999999;305.0;1365.0;1365.0;1024.0;863.0;1024.0;1024.0;1024.0;1.0;3.0;0.0;0.016697999999999998;0.0;0.0;0.0;0.44089399999999995;0.652619;1.11564;;1970-01-01 00:00:01.342
642.0;643.0;0.0;280.0;0.0;16.6066;-1.0;-1.0;10.0;0.0;0.0;0.0;0.0;0.0;0.0;0.0;0.0;0.0;0.0;0.0;0.0;0.0;0.0;405.0;85.0;10.0944;402.48400000000004;85.8391;0.0;86.0;1.0;0.08955110000000001;-0.501123;-2.1789099999999997;0.09171610000000001;-0.520835;-2.18509;0.21340900000000002;0.345913;-0.20555199999999998;-0.589375;0.263979;-1.20763;0.0;-0.157934;0.751123;1.5;0.157934;-0.751123;-2.2168400000000004;-5.0281199999999995;15.5452;-5.0281199999999995;696.9019999999999;715.0;970.0;1336.0;1024.0;863.0;1024.0;1024.0;1024.0;1.0;3.0;0.0;0.0;0.0;0.0;0.0;-0.315867;0.976459;2.55;;1970-01-01 00:00:01.353
642.0;643.0;0.0;280.0;0.0;16.6066;-1.0;-1.0;10.0;0.0;0.0;0.0;0.0;0.0;0.0;0.0;0.0;0.0;0.0;0.0;0.0;0.0;0.0;405.0;85.0;10.0944;402.48400000000004;85.8391;0.0;86.0;1.0;0.08955110000000001;-0.501123;-2.1789099999999997;0.09171610000000001;-0.520835;-2.18509;0.21340900000000002;0.345913;-0.20555199999999998;-0.589375;0.263979;-1.20763;0.0;-0.157934;0.751123;1.5;0.157934;-0.751123;-2.2168400000000004;-5.0281199999999995;15.5452;-5.0281199999999995;696.9019999999999;715.0;970.0;1336.0;1024.0;863.0;1024.0;1024.0;1024.0;1.0;3.0;0.0;0.0;0.0;0.0;0.0;-0.315867;0.976459;2.55;;1970-01-01 00:00:01.364
643.0;644.0;0.0;280.0;0.0;16.6066;-1.0;-1.0;11.0;0.0;0.0;0.0;0.0;0.0;0.0;0.0;0.0;0.0;0.0;0.0;0.0;0.0;0.0;406.333;84.3333;9.87471;403.08;84.4099;0.0;87.0;1.0;0.0848058;-0.50945;-2.22923;0.089643;-0.51742;-2.19833;0.14655;0.340357;-0.26271;-1.45969;-0.018290599999999997;-2.27677;0.0;-0.137481;0.75945;1.5;0.137481;-0.75945;-2.27997;-4.00438;15.7176;-4.00438;696.9019999999999;746.0;993.0;1355.0;1024.0;863.0;1024.0;1024.0;1024.0;1.0;3.0;0.0;0.0;0.0;0.0;0.0;-0.274963;0.9872850000000001;2.55;;1970-01-01 00:00:01.375
644.0;645.0;0.0;280.0;0.0;16.6066;-1.0;-1.0;12.0;0.0;0.0;0.0;0.0;0.0;0.0;0.0;0.0;0.0;0.0;0.0;0.0;0.0;0.0;408.0;83.0;9.887369999999999;404.07099999999997;82.9902;0.0;88.0;1.0;0.0762858;-0.503161;-2.23005;0.08563580000000001;-0.513142;-2.20785;0.0761308;0.343422;-0.27015500000000003;-2.19842;-0.111198;-2.59652;0.0;-0.11248699999999999;0.753161;1.5;0.11248699999999999;-0.753161;-2.29494;-2.86049;15.5874;-2.86049;696.9019999999999;755.0;1015.0;1359.0;1024.0;863.0;1024.0;1024.0;1024.0;1.0;3.0;0.0;0.0;0.0;0.0;0.0;-0.22497399999999998;0.97911;2.55;;1970-01-01 00:00:01.386
644.0;645.0;0.0;280.0;0.0;16.6066;-1.0;-1.0;12.0;0.0;0.0;0.0;0.0;0.0;0.0;0.0;0.0;0.0;0.0;0.0;0.0;0.0;0.0;408.0;83.0;9.887369999999999;404.07099999999997;82.9902;0.0;88.0;1.0;0.0762858;-0.503161;-2.23005;0.08563580000000001;-0.513142;-2.20785;0.0761308;0.343422;-0.27015500000000003;-2.19842;-0.111198;-2.59652;0.0;-0.11248699999999999;0.753161;1.5;0.11248699999999999;-0.753161;-2.29494;-2.86049;15.5874;-2.86049;696.9019999999999;755.0;1015.0;1359.0;1024.0;863.0;1024.0;1024.0;1024.0;1.0;3.0;0.0;0.0;0.0;0.0;0.0;-0.22497399999999998;0.97911;2.55;;1970-01-01 00:00:01.397
645.0;646.0;0.0;280.0;0.0;16.6066;-1.0;-1.0;13.0;0.0;0.0;0.0;0.0;0.0;0.0;0.0;0.0;0.0;0.0;0.0;0.0;0.0;0.0;409.0;82.0;9.89535;405.134;81.6848;0.0;89.0;1.0;0.0711816;-0.498532;-2.23101;0.08129960000000001;-0.508759;-2.2148;0.00560473;0.336404;-0.298672;-2.81747;-0.168694;-2.62804;0.0;-0.0898885;0.748532;1.5;0.0898885;-0.748532;-2.29739;-1.7611299999999999;15.4916;-1.7611299999999999;696.9019999999999;763.0;1034.0;1363.0;1024.0;863.0;1024.0;1024.0;1024.0;1.0;3.0;0.0;0.0;0.0;0.0;0.0;-0.179777;0.973091;2.55;;1970-01-01 00:00:01.408
646.0;647.0;0.0;280.0;0.0;16.6066;-1.0;-1.0;14.0;0.0;0.0;0.0;0.0;0.0;0.0;0.0;0.0;0.0;0.0;0.0;0.0;0.0;0.0;410.0;81.0;9.75859;406.245;80.46300000000001;0.0;90.0;1.0;0.06706569999999999;-0.501235;-2.26506;0.0770294;-0.506502;-2.22988;-0.0618516;0.31304899999999997;-0.381836;-3.2926699999999998;-0.289694;-2.81802;0.0;-0.0684694;0.751235;1.5;0.0684694;-0.751235;-2.33986;-0.713327;15.5476;-0.713327;696.9019999999999;767.0;1052.0;1365.0;1024.0;863.0;1024.0;1024.0;1024.0;1.0;3.0;0.0;0.0;0.0;0.0;0.0;-0.136939;0.976605;2.55;;1970-01-01 00:00:01.419
647.0;648.0;0.0;280.0;0.0;16.6066;-1.0;-1.0;15.0;0.0;0.0;0.0;0.0;0.0;0.0;0.0;0.0;0.0;0.0;0.0;0.0;0.0;0.0;411.6;79.2;9.832410000000001;407.579;79.0473;0.0;91.0;1.0;0.0584421;-0.48982;-2.25305;0.0714532;-0.501497;-2.23683;-0.121717;0.298769;-0.425091;-3.5849900000000003;-0.36173099999999997;-2.76499;0.0;-0.042693800000000004;0.73982;1.5;0.042693800000000004;-0.73982;-2.35027;0.34513299999999997;15.3113;0.34513299999999997;696.9019999999999;770.0;1069.0;1365.0;1024.0;863.0;1024.0;1024.0;1024.0;1.0;3.0;0.0;0.0;0.0;0.0;0.0;-0.0853877;0.961766;2.55;;1970-01-01 00:00:01.430
647.0;648.0;0.0;280.0;0.0;16.6066;-1.0;-1.0;15.0;0.0;0.0;0.0;0.0;0.0;0.0;0.0;0.0;0.0;0.0;0.0;0.0;0.0;0.0;411.6;79.2;9.832410000000001;407.579;79.0473;0.0;91.0;1.0;0.0584421;-0.48982;-2.25305;0.0714532;-0.501497;-2.23683;-0.121717;0.298769;-0.425091;-3.5849900000000003;-0.36173099999999997;-2.76499;0.0;-0.042693800000000004;0.73982;1.5;0.042693800000000004;-0.73982;-2.35027;0.34513299999999997;15.3113;0.34513299999999997;696.9019999999999;770.0;1069.0;1365.0;1024.0;863.0;1024.0;1024.0;1024.0;1.0;3.0;0.0;0.0;0.0;0.0;0.0;-0.0853877;0.961766;2.55;;1970-01-01 00:00:01.441
648.0;649.0;0.0;280.0;0.0;16.6066;-1.0;-1.0;16.0;0.0;0.0;0.0;0.0;0.0;0.0;0.0;0.0;0.0;0.0;0.0;0.0;0.0;0.0;413.0;78.0;9.718589999999999;409.009;77.6828;0.0;92.0;1.0;0.0519384;-0.490396;-2.2828;0.0655988;-0.498167;-2.25062;-0.177307;0.269768;-0.516688;-3.7109699999999997;-0.5210560000000001;-2.90124;0.0;-0.0201138;0.740396;1.5;0.0201138;-0.740396;-2.39395;1.30225;15.3232;1.30225;696.9019999999999;770.0;1082.0;1365.0;1024.0;888.0;1024.0;1024.0;1024.0;1.0;3.0;0.0;0.0;0.0;0.0;0.0;-0.0402277;0.962514;2.55;;1970-01-01 00:00:01.452
649.0;650.0;0.0;280.0;0.0;16.6066;-1.0;-1.0;17.0;0.0;0.0;0.0;0.0;0.0;0.0;0.0;0.0;0.0;0.0;0.0;0.0;0.0;0.0;413.333;77.3333;9.87985;410.165;76.5263;0.0;93.0;1.0;0.049407;-0.479571;-2.2473799999999997;0.060741199999999995;-0.492588;-2.24965;-0.22177800000000003;0.261004;-0.5149;-3.6971800000000004;-0.629462;-2.74764;0.0;-0.00251777;0.729571;1.5;0.00251777;-0.729571;-2.38402;2.05905;15.0992;2.05905;696.9019999999999;772.0;1091.0;1365.0;1024.0;888.0;1024.0;1024.0;1024.0;1.0;3.0;0.0;0.0;0.0;0.0;0.0;-0.00503554;0.948443;2.55;;1970-01-01 00:00:01.463
649.0;650.0;0.0;280.0;0.0;16.6066;-1.0;-1.0;17.0;0.0;0.0;0.0;0.0;0.0;0.0;0.0;0.0;0.0;0.0;0.0;0.0;0.0;0.0;413.333;77.3333;9.87985;410.165;76.5263;0.0;93.0;1.0;0.049407;-0.479571;-2.2473799999999997;0.060741199999999995;-0.492588;-2.24965;-0.22177800000000003;0.261004;-0.5149;-3.6971800000000004;-0.629462;-2.74764;0.0;-0.00251777;0.729571;1.5;0.00251777;-0.729571;-2.38402;2.05905;15.0992;2.05905;696.9019999999999;772.0;1091.0;1365.0;1024.0;888.0;1024.0;1024.0;1024.0;1.0;3.0;0.0;0.0;0.0;0.0;0.0;-0.00503554;0.948443;2.55;;1970-01-01 00:00:01.474
650.0;651.0;0.0;280.0;0.0;16.6066;-1.0;-1.0;18.0;0.0;0.0;0.0;0.0;0.0;0.0;0.0;0.0;0.0;0.0;0.0;0.0;0.0;0.0;415.0;77.0;9.78686;411.54400000000004;75.6276;0.0;94.0;1.0;0.0413788;-0.482704;-2.26966;0.0549325;-0.489623;-2.25565;-0.255654;0.250506;-0.499809;-3.543;-0.748657;-2.5655099999999997;0.0;0.0180474;0.732704;1.5;-0.0180474;-0.732704;-2.4076299999999997;2.77161;15.164000000000001;2.77161;696.9019999999999;771.0;1097.0;1365.0;1024.0;913.0;1024.0;1024.0;1024.0;1.0;3.0;0.0;0.0;0.0;0.0;0.0;0.03609469999999999;0.952515;2.55;;1970-01-01 00:00:01.485
651.0;652.0;0.0;280.0;0.0;16.6066;-1.0;-1.0;19.0;0.0;0.0;0.0;0.0;0.0;0.0;0.0;0.0;0.0;0.0;0.0;0.0;0.0;0.0;416.0;75.0;9.676919999999999;412.869;74.3841;0.0;95.0;1.0;0.0366923;-0.479549;-2.30108;0.0494604;-0.486601;-2.2692799999999997;-0.280514;0.238773;-0.517429;-3.26816;-0.8389969999999999;-2.41272;0.0;0.0326889;0.729549;1.5;-0.0326889;-0.729549;-2.43672;3.28597;15.0988;3.28597;696.9019999999999;772.0;1100.0;1365.0;1024.0;913.0;1024.0;1024.0;1024.0;1.0;3.0;0.0;0.0;0.0;0.0;0.0;0.0653779;0.948414;2.55;;1970-01-01 00:00:01.496
651.0;652.0;0.0;280.0;0.0;16.6066;-1.0;-1.0;19.0;0.0;0.0;0.0;0.0;0.0;0.0;0.0;0.0;0.0;0.0;0.0;0.0;0.0;0.0;416.0;75.0;9.676919999999999;412.869;74.3841;0.0;95.0;1.0;0.0366923;-0.479549;-2.30108;0.0494604;-0.486601;-2.2692799999999997;-0.280514;0.238773;-0.517429;-3.26816;-0.8389969999999999;-2.41272;0.0;0.0326889;0.729549;1.5;-0.0326889;-0.729549;-2.43672;3.28597;15.0988;3.28597;696.9019999999999;772.0;1100.0;1365.0;1024.0;913.0;1024.0;1024.0;1024.0;1.0;3.0;0.0;0.0;0.0;0.0;0.0;0.0653779;0.948414;2.55;;1970-01-01 00:00:01.507
652.0;653.0;0.0;280.0;0.0;16.6066;-1.0;-1.0;20.0;0.0;0.0;0.0;0.0;0.0;0.0;0.0;0.0;0.0;0.0;0.0;0.0;0.0;0.0;416.0;74.0;9.85392;413.834;73.2096;0.0;96.0;1.0;0.0360332;-0.46669399999999994;-2.26251;0.0454323;-0.480629;-2.26725;-0.294464;0.246565;-0.45968400000000004;-2.88963;-0.768841;-1.75845;0.0;0.039350699999999995;0.7166939999999999;1.5;-0.039350699999999995;-0.7166939999999999;-2.40157;3.5450699999999995;14.8327;3.5450699999999995;696.9019999999999;775.0;1099.0;1365.0;1024.0;939.0;1024.0;1024.0;1024.0;1.0;3.0;0.0;0.0;0.0;0.0;0.0;0.07870139999999999;0.931702;2.55;;1970-01-01 00:00:01.518
653.0;654.0;0.0;280.0;0.0;16.6066;-1.0;-1.0;21.0;0.0;0.0;0.0;0.0;0.0;0.0;0.0;0.0;0.0;0.0;0.0;0.0;0.0;0.0;417.0;73.0;9.817089999999999;414.853;72.0854;0.0;97.0;1.0;0.031085400000000003;-0.464187;-2.27378;0.0411282;-0.475696;-2.2692099999999997;-0.297755;0.25095300000000004;-0.40510100000000004;-2.43663;-0.6522180000000001;-0.975258;0.0;0.0475187;0.714187;1.5;-0.0475187;-0.714187;-2.39649;3.7315300000000002;14.7808;3.7315300000000002;696.9019999999999;753.0;1096.0;1354.0;1024.0;939.0;1024.0;1024.0;1024.0;1.0;3.0;0.0;0.0;0.0;0.0;0.0;0.0950375;0.928443;2.55;;1970-01-01 00:00:01.529
653.0;654.0;0.0;280.0;0.0;16.6066;-1.0;-1.0;21.0;0.0;0.0;0.0;0.0;0.0;0.0;0.0;0.0;0.0;0.0;0.0;0.0;0.0;0.0;417.0;73.0;9.817089999999999;414.853;72.0854;0.0;97.0;1.0;0.031085400000000003;-0.464187;-2.27378;0.0411282;-0.475696;-2.2692099999999997;-0.297755;0.25095300000000004;-0.40510100000000004;-2.43663;-0.6522180000000001;-0.975258;0.0;0.0475187;0.714187;1.5;-0.0475187;-0.714187;-2.39649;3.7315300000000002;14.7808;3.7315300000000002;696.9019999999999;753.0;1096.0;1354.0;1024.0;939.0;1024.0;1024.0;1024.0;1.0;3.0;0.0;0.0;0.0;0.0;0.0;0.0950375;0.928443;2.55;;1970-01-01 00:00:01.540
654.0;655.0;0.0;280.0;0.0;16.6066;-1.0;-1.0;22.0;0.0;0.0;0.0;0.0;0.0;0.0;0.0;0.0;0.0;0.0;0.0;0.0;0.0;0.0;417.0;73.0;9.94293;415.592;71.3169;0.0;98.0;1.0;0.030692;-0.458312;-2.245;0.0379974;-0.47048100000000004;-2.26195;-0.28885500000000003;0.26111;-0.288288;-1.90735;-0.425897;0.326762;0.0;0.0469332;0.7083119999999999;1.5;-0.0469332;-0.7083119999999999;-2.3506099999999996;3.63585;14.6592;3.63585;696.9019999999999;710.0;1088.0;1326.0;1024.0;947.0;1024.0;1024.0;1024.0;1.0;3.0;0.0;0.0;0.0;0.0;0.0;0.0938663;0.9208059999999999;2.55;;1970-01-01 00:00:01.551
655.0;656.0;0.0;280.0;0.0;16.6066;-1.0;-1.0;23.0;0.0;0.0;0.0;0.0;0.0;0.0;0.0;0.0;0.0;0.0;0.0;0.0;0.0;0.0;418.0;71.5;9.95872;416.44300000000004;70.3278;0.0;99.0;1.0;0.0256327;-0.45128999999999997;-2.24555;0.034288;-0.46472399999999997;-2.25703;-0.278931;0.267918;-0.20243599999999998;-1.3726;-0.22793200000000002;1.44361;0.0;0.047820499999999995;0.70129;1.5;-0.047820499999999995;-0.70129;-2.31886;3.5584300000000004;14.5139;3.5584300000000004;696.9019999999999;683.0;1081.0;1303.0;1024.0;947.0;1024.0;1024.0;1024.0;1.0;3.0;0.0;0.0;0.0;0.0;0.0;0.09564099999999999;0.9116770000000001;2.55;;1970-01-01 00:00:01.562
655.0;656.0;0.0;280.0;0.0;16.6066;-1.0;-1.0;23.0;0.0;0.0;0.0;0.0;0.0;0.0;0.0;0.0;0.0;0.0;0.0;0.0;0.0;0.0;418.0;71.5;9.95872;416.44300000000004;70.3278;0.0;99.0;1.0;0.0256327;-0.45128999999999997;-2.24555;0.034288;-0.46472399999999997;-2.25703;-0.278931;0.267918;-0.20243599999999998;-1.3726;-0.22793200000000002;1.44361;0.0;0.047820499999999995;0.70129;1.5;-0.047820499999999995;-0.70129;-2.31886;3.5584300000000004;14.5139;3.5584300000000004;696.9019999999999;683.0;1081.0;1303.0;1024.0;947.0;1024.0;1024.0;1024.0;1.0;3.0;0.0;0.0;0.0;0.0;0.0;0.09564099999999999;0.9116770000000001;2.55;;1970-01-01 00:00:01.573
656.0;657.0;0.0;280.0;0.0;16.6066;-1.0;-1.0;24.0;0.0;0.0;0.0;0.0;0.0;0.0;0.0;0.0;0.0;0.0;0.0;0.0;0.0;0.0;419.0;71.0;9.811860000000001;417.376;69.4972;0.0;100.0;1.0;0.0209307;-0.45591400000000004;-2.28055;0.0302808;-0.462081;-2.26408;-0.265784;0.270716;-0.15512;-0.8640040000000001;-0.05606799999999999;2.24238;0.0;0.049901999999999995;0.705914;1.5;-0.049901999999999995;-0.705914;-2.33195;3.4730800000000004;14.6096;3.4730800000000004;696.9019999999999;667.0;1075.0;1289.0;1024.0;947.0;1024.0;1024.0;1024.0;1.0;3.0;0.0;0.0;0.0;0.0;0.0;0.09980399999999999;0.917689;2.55;;1970-01-01 00:00:01.584
657.0;658.0;0.0;280.0;0.0;16.6066;-1.0;-1.0;25.0;0.0;0.0;0.0;0.0;0.0;0.0;0.0;0.0;0.0;0.0;0.0;0.0;0.0;0.0;419.0;69.0;9.99193;418.046;68.303;0.0;101.0;1.0;0.0205535;-0.43933199999999994;-2.2449;0.027362599999999997;-0.45525600000000005;-2.25833;-0.24769899999999997;0.28757699999999997;-0.0493458;-0.387383;0.161214;3.21431;0.0;0.0452231;0.689332;1.5;-0.0452231;-0.689332;-2.28329;3.21238;14.2664;3.21238;696.9019999999999;651.0;1066.0;1266.0;1024.0;947.0;1024.0;1024.0;1024.0;1.0;3.0;0.0;0.0;0.0;0.0;0.0;0.0904462;0.8961319999999999;2.55;;1970-01-01 00:00:01.595
658.0;659.0;0.0;280.0;0.0;16.6066;-1.0;-1.0;26.0;0.0;0.0;0.0;0.0;0.0;0.0;0.0;0.0;0.0;0.0;0.0;0.0;0.0;0.0;420.0;68.5;9.67934;418.845;67.3233;0.0;102.0;1.0;0.016062;-0.45136099999999996;-2.31881;0.0239724;-0.454088;-2.27647;-0.2343;0.278514;-0.0664295;0.00778082;0.22429000000000002;3.4987;0.0;0.0463283;0.701361;1.5;-0.0463283;-0.701361;-2.33124;3.10609;14.5154;3.10609;696.9019999999999;647.0;1060.0;1264.0;1024.0;947.0;1024.0;1024.0;1024.0;1.0;3.0;0.0;0.0;0.0;0.0;0.0;0.0926565;0.911769;2.55;;1970-01-01 00:00:01.606
658.0;659.0;0.0;280.0;0.0;16.6066;-1.0;-1.0;26.0;0.0;0.0;0.0;0.0;0.0;0.0;0.0;0.0;0.0;0.0;0.0;0.0;0.0;0.0;420.0;68.5;9.67934;418.845;67.3233;0.0;102.0;1.0;0.016062;-0.45136099999999996;-2.31881;0.0239724;-0.454088;-2.27647;-0.2343;0.278514;-0.0664295;0.00778082;0.22429000000000002;3.4987;0.0;0.0463283;0.701361;1.5;-0.0463283;-0.701361;-2.33124;3.10609;14.5154;3.10609;696.9019999999999;647.0;1060.0;1264.0;1024.0;947.0;1024.0;1024.0;1024.0;1.0;3.0;0.0;0.0;0.0;0.0;0.0;0.0926565;0.911769;2.55;;1970-01-01 00:00:01.617
659.0;660.0;0.0;280.0;0.0;16.6066;-1.0;-1.0;27.0;0.0;0.0;0.0;0.0;0.0;0.0;0.0;0.0;0.0;0.0;0.0;0.0;0.0;0.0;421.0;67.0;9.73415;419.73400000000004;66.1804;0.0;103.0;1.0;0.010845299999999999;-0.442379;-2.30995;0.020034299999999998;-0.450575;-2.28652;-0.2248;0.267408;-0.10896199999999999;0.295948;0.200273;3.28159;0.0;0.0477777;0.692379;1.5;-0.0477777;-0.692379;-2.3265700000000002;3.04338;14.3295;3.04338;696.9019999999999;655.0;1055.0;1271.0;1024.0;947.0;1024.0;1024.0;1024.0;1.0;3.0;0.0;0.0;0.0;0.0;0.0;0.0955553;0.900092;2.55;;1970-01-01 00:00:01.628
660.0;661.0;0.0;280.0;0.0;16.6066;-1.0;-1.0;28.0;0.0;0.0;0.0;0.0;0.0;0.0;0.0;0.0;0.0;0.0;0.0;0.0;0.0;0.0;420.0;66.5;9.72075;420.051;65.238;0.0;104.0;1.0;0.0159935;-0.44083900000000004;-2.31454;0.018822;-0.447654;-2.2949200000000003;-0.21144000000000002;0.251585;-0.19704000000000002;0.48665699999999995;0.0821311;2.33327;0.0;0.040443099999999996;0.690839;1.5;-0.040443099999999996;-0.690839;-2.3419;2.7771;14.2976;2.7771;696.9019999999999;674.0;1050.0;1292.0;1024.0;947.0;1024.0;1024.0;1024.0;1.0;3.0;0.0;0.0;0.0;0.0;0.0;0.08088610000000002;0.8980899999999999;2.55;;1970-01-01 00:00:01.639
660.0;661.0;0.0;280.0;0.0;16.6066;-1.0;-1.0;28.0;0.0;0.0;0.0;0.0;0.0;0.0;0.0;0.0;0.0;0.0;0.0;0.0;0.0;0.0;420.0;66.5;9.72075;420.051;65.238;0.0;104.0;1.0;0.0159935;-0.44083900000000004;-2.31454;0.018822;-0.447654;-2.2949200000000003;-0.21144000000000002;0.251585;-0.19704000000000002;0.48665699999999995;0.0821311;2.33327;0.0;0.040443099999999996;0.690839;1.5;-0.040443099999999996;-0.690839;-2.3419;2.7771;14.2976;2.7771;696.9019999999999;674.0;1050.0;1292.0;1024.0;947.0;1024.0;1024.0;1024.0;1.0;3.0;0.0;0.0;0.0;0.0;0.0;0.08088610000000002;0.8980899999999999;2.55;;1970-01-01 00:00:01.650
661.0;662.0;0.0;280.0;0.0;16.6066;-1.0;-1.0;29.0;0.0;0.0;0.0;0.0;0.0;0.0;0.0;0.0;0.0;0.0;0.0;0.0;0.0;0.0;421.0;65.0;9.66047;420.59;64.1223;0.0;105.0;1.0;0.010928;-0.43709899999999996;-2.33321;0.016453799999999998;-0.444488;-2.30641;-0.198069;0.231746;-0.315396;0.614846;-0.0951443;0.9489559999999999;0.0;0.043084;0.687099;1.5;-0.043084;-0.687099;-2.38355;2.70025;14.2202;2.70025;696.9019999999999;709.0;1048.0;1322.0;1024.0;947.0;1024.0;1024.0;1024.0;1.0;3.0;0.0;0.0;0.0;0.0;0.0;0.086168;0.893229;2.55;;1970-01-01 00:00:01.661
662.0;663.0;0.0;280.0;0.0;16.6066;-1.0;-1.0;30.0;0.0;0.0;0.0;0.0;0.0;0.0;0.0;0.0;0.0;0.0;0.0;0.0;0.0;0.0;421.0;65.0;9.573260000000001;420.97;63.3591;0.0;106.0;1.0;0.0110275;-0.44108100000000006;-2.35447;0.014825899999999998;-0.44346599999999997;-2.32083;-0.180547;0.213371;-0.41580100000000003;0.709226;-0.286043;-0.47142799999999996;0.0;0.0411225;0.6910810000000001;1.5;-0.0411225;-0.6910810000000001;-2.43751;2.4965200000000003;14.3026;2.4965200000000003;696.9019999999999;749.0;1044.0;1349.0;1024.0;947.0;1024.0;1024.0;1024.0;1.0;3.0;0.0;0.0;0.0;0.0;0.0;0.082245;0.8984049999999999;2.55;;1970-01-01 00:00:01.672
662.0;663.0;0.0;280.0;0.0;16.6066;-1.0;-1.0;30.0;0.0;0.0;0.0;0.0;0.0;0.0;0.0;0.0;0.0;0.0;0.0;0.0;0.0;0.0;421.0;65.0;9.573260000000001;420.97;63.3591;0.0;106.0;1.0;0.0110275;-0.44108100000000006;-2.35447;0.014825899999999998;-0.44346599999999997;-2.32083;-0.180547;0.213371;-0.41580100000000003;0.709226;-0.286043;-0.47142799999999996;0.0;0.0411225;0.6910810000000001;1.5;-0.0411225;-0.6910810000000001;-2.43751;2.4965200000000003;14.3026;2.4965200000000003;696.9019999999999;749.0;1044.0;1349.0;1024.0;947.0;1024.0;1024.0;1024.0;1.0;3.0;0.0;0.0;0.0;0.0;0.0;0.082245;0.8984049999999999;2.55;;1970-01-01 00:00:01.683
663.0;664.0;0.0;-1.0;-1.0;-1.0;-1.0;-1.0;31.0;0.0;0.0;0.0;0.0;0.0;0.0;0.0;0.0;0.0;0.0;0.0;0.0;0.0;0.0;419.6;64.8;9.58612;420.788;62.7878;0.0;107.0;1.0;0.0183003;-0.439618;-2.35188;0.015868200000000002;-0.44231099999999995;-2.33014;-0.154221;0.179707;-0.536209;0.798758;-0.6023069999999999;-2.2267200000000003;0.0;0.0301779;0.6896180000000001;1.5;-0.0301779;-0.6896180000000001;-2.46353;2.03848;14.2723;2.03848;696.9019999999999;780.0;1037.0;1365.0;1024.0;922.0;1024.0;1024.0;1024.0;1.0;3.0;0.0;0.0;0.0;0.0;0.0;0.0603557;0.896503;2.55;;1970-01-01 00:00:01.694
664.0;665.0;0.0;-1.0;-1.0;-1.0;-1.0;-1.0;32.0;0.0;0.0;0.0;0.0;0.0;0.0;0.0;0.0;0.0;0.0;0.0;0.0;0.0;0.0;419.0;65.0;9.667010000000001;420.45300000000003;62.4826;0.0;108.0;1.0;0.021244299999999997;-0.43680399999999997;-2.33164;0.0174811;-0.440659;-2.33059;-0.11845;0.16144;-0.5378;0.9418030000000001;-0.828818;-3.2180400000000002;0.0;0.0209448;0.686804;1.5;-0.0209448;-0.686804;-2.47832;1.52322;14.2141;1.52322;696.9019999999999;782.0;1030.0;1365.0;1024.0;922.0;1024.0;1024.0;1024.0;1.0;3.0;0.0;0.0;0.0;0.0;0.0;0.041889499999999996;0.8928450000000001;2.55;;1970-01-01 00:00:01.705
664.0;665.0;0.0;-1.0;-1.0;-1.0;-1.0;-1.0;32.0;0.0;0.0;0.0;0.0;0.0;0.0;0.0;0.0;0.0;0.0;0.0;0.0;0.0;0.0;419.0;65.0;9.667010000000001;420.45300000000003;62.4826;0.0;108.0;1.0;0.021244299999999997;-0.43680399999999997;-2.33164;0.0174811;-0.440659;-2.33059;-0.11845;0.16144;-0.5378;0.9418030000000001;-0.828818;-3.2180400000000002;0.0;0.0209448;0.686804;1.5;-0.0209448;-0.686804;-2.47832;1.52322;14.2141;1.52322;696.9019999999999;782.0;1030.0;1365.0;1024.0;922.0;1024.0;1024.0;1024.0;1.0;3.0;0.0;0.0;0.0;0.0;0.0;0.041889499999999996;0.8928450000000001;2.55;;1970-01-01 00:00:01.716
665.0;666.0;0.0;-1.0;-1.0;-1.0;-1.0;-1.0;33.0;0.0;0.0;0.0;0.0;0.0;0.0;0.0;0.0;0.0;0.0;0.0;0.0;0.0;0.0;418.667;64.6667;9.615260000000001;420.094;62.1993;0.0;109.0;1.0;0.0230886;-0.437705;-2.3451299999999997;0.019163299999999998;-0.43977299999999997;-2.33495;-0.0745472;0.139993;-0.516066;1.16499;-1.00601;-3.5562300000000002;0.0;0.00943298;0.687705;1.5;-0.00943298;-0.687705;-2.4927900000000003;0.887425;14.2327;0.887425;696.9019999999999;782.0;1021.0;1365.0;1024.0;896.0;1024.0;1024.0;1024.0;1.0;3.0;0.0;0.0;0.0;0.0;0.0;0.018866;0.8940170000000001;2.55;;1970-01-01 00:00:01.727
666.0;667.0;0.0;-1.0;-1.0;-1.0;-1.0;-1.0;34.0;0.0;0.0;0.0;0.0;0.0;0.0;0.0;0.0;0.0;0.0;0.0;0.0;0.0;0.0;419.0;64.0;9.56247;419.931;61.824;0.0;110.0;1.0;0.0214766;-0.437208;-2.3599799999999997;0.019857299999999998;-0.439003;-2.34246;-0.040595;0.11853399999999999;-0.499434;1.38111;-1.13483;-3.3410900000000003;0.0;-0.0010427;0.687208;1.5;0.0010427;-0.687208;-2.50143;0.36584099999999997;14.2225;0.36584099999999997;696.9019999999999;782.0;1012.0;1365.0;1024.0;896.0;1024.0;1024.0;1024.0;1.0;3.0;0.0;0.0;0.0;0.0;0.0;-0.0020854;0.8933709999999999;2.55;;1970-01-01 00:00:01.738
666.0;667.0;0.0;-1.0;-1.0;-1.0;-1.0;-1.0;34.0;0.0;0.0;0.0;0.0;0.0;0.0;0.0;0.0;0.0;0.0;0.0;0.0;0.0;0.0;419.0;64.0;9.56247;419.931;61.824;0.0;110.0;1.0;0.0214766;-0.437208;-2.3599799999999997;0.019857299999999998;-0.439003;-2.34246;-0.040595;0.11853399999999999;-0.499434;1.38111;-1.13483;-3.3410900000000003;0.0;-0.0010427;0.687208;1.5;0.0010427;-0.687208;-2.50143;0.36584099999999997;14.2225;0.36584099999999997;696.9019999999999;782.0;1012.0;1365.0;1024.0;896.0;1024.0;1024.0;1024.0;1.0;3.0;0.0;0.0;0.0;0.0;0.0;-0.0020854;0.8933709999999999;2.55;;1970-01-01 00:00:01.749
667.0;668.0;0.0;-1.0;-1.0;-1.0;-1.0;-1.0;35.0;0.0;0.0;0.0;0.0;0.0;0.0;0.0;0.0;0.0;0.0;0.0;0.0;0.0;0.0;418.0;63.0;9.55322;419.486;61.2745;0.0;111.0;1.0;0.0267207;-0.43325600000000003;-2.36511;0.0219163;-0.437279;-2.3492599999999997;-0.00254733;0.0999011;-0.47072600000000003;1.60931;-1.2073;-2.6248299999999998;0.0;-0.015631799999999998;0.6832560000000001;1.5;0.015631799999999998;-0.6832560000000001;-2.5015400000000003;-0.272805;14.1407;-0.272805;696.9019999999999;782.0;1002.0;1365.0;1024.0;896.0;1024.0;1024.0;1024.0;1.0;3.0;0.0;0.0;0.0;0.0;0.0;-0.031263599999999996;0.8882329999999999;2.55;;1970-01-01 00:00:01.760
668.0;669.0;0.0;-1.0;-1.0;-1.0;-1.0;-1.0;36.0;0.0;0.0;0.0;0.0;0.0;0.0;0.0;0.0;0.0;0.0;0.0;0.0;0.0;0.0;417.6;62.8;9.59207;419.028;60.8529;0.0;112.0;1.0;0.028693299999999998;-0.43063;-2.3561;0.023949400000000003;-0.435284;-2.35131;0.0348982;0.09260539999999999;-0.404141;1.82578;-1.20655;-1.52834;0.0;-0.0280055;0.6806300000000001;1.5;0.0280055;-0.6806300000000001;-2.4832;-0.8636379999999999;14.0863;-0.8636379999999999;696.9019999999999;775.0;991.0;1361.0;1024.0;863.0;1024.0;1024.0;1024.0;1.0;3.0;0.0;0.0;0.0;0.0;0.0;-0.0560111;0.884819;2.55;;1970-01-01 00:00:01.771
669.0;670.0;0.0;-1.0;-1.0;-1.0;-1.0;-1.0;37.0;0.0;0.0;0.0;0.0;0.0;0.0;0.0;0.0;0.0;0.0;0.0;0.0;0.0;0.0;417.0;62.0;9.63838;418.499;60.3318;0.0;113.0;1.0;0.0316618;-0.425091;-2.3470400000000002;0.026263099999999998;-0.432226;-2.35003;0.0624418;0.0958283;-0.321887;1.96052;-1.05883;-0.0612947;0.0;-0.040890699999999995;0.675091;1.5;0.040890699999999995;-0.675091;-2.45392;-1.37012;13.9717;-1.37012;696.9019999999999;729.0;984.0;1334.0;1024.0;863.0;1024.0;1024.0;1024.0;1.0;3.0;0.0;0.0;0.0;0.0;0.0;-0.08178139999999999;0.877618;2.55;;1970-01-01 00:00:01.782
669.0;670.0;0.0;-1.0;-1.0;-1.0;-1.0;-1.0;37.0;0.0;0.0;0.0;0.0;0.0;0.0;0.0;0.0;0.0;0.0;0.0;0.0;0.0;0.0;417.0;62.0;9.63838;418.499;60.3318;0.0;113.0;1.0;0.0316618;-0.425091;-2.3470400000000002;0.026263099999999998;-0.432226;-2.35003;0.0624418;0.0958283;-0.321887;1.96052;-1.05883;-0.0612947;0.0;-0.040890699999999995;0.675091;1.5;0.040890699999999995;-0.675091;-2.45392;-1.37012;13.9717;-1.37012;696.9019999999999;729.0;984.0;1334.0;1024.0;863.0;1024.0;1024.0;1024.0;1.0;3.0;0.0;0.0;0.0;0.0;0.0;-0.08178139999999999;0.877618;2.55;;1970-01-01 00:00:01.793
670.0;671.0;0.0;-1.0;-1.0;-1.0;-1.0;-1.0;38.0;0.0;0.0;0.0;0.0;0.0;0.0;0.0;0.0;0.0;0.0;0.0;0.0;0.0;0.0;417.0;61.0;9.709710000000001;418.11;59.6739;0.0;114.0;1.0;0.031429200000000004;-0.41766400000000004;-2.33261;0.027813;-0.427858;-2.34481;0.0787163;0.108608;-0.249881;1.9635200000000002;-0.8462370000000001;1.11277;0.0;-0.047512900000000004;0.667664;1.5;0.047512900000000004;-0.667664;-2.41552;-1.65055;13.818;-1.65055;696.9019999999999;701.0;980.0;1313.0;1024.0;863.0;1024.0;1024.0;1024.0;1.0;3.0;0.0;0.0;0.0;0.0;0.0;-0.09502580000000001;0.8679629999999999;2.55;;1970-01-01 00:00:01.804
671.0;672.0;0.0;-1.0;-1.0;-1.0;-1.0;-1.0;39.0;0.0;0.0;0.0;0.0;0.0;0.0;0.0;0.0;0.0;0.0;0.0;0.0;0.0;0.0;417.0;61.0;9.55493;417.825;59.2352;0.0;115.0;1.0;0.031938299999999996;-0.42443000000000003;-2.3704;0.029050599999999996;-0.426829;-2.35248;0.0867059;0.116844;-0.219919;1.8219400000000001;-0.600167;1.8500599999999998;0.0;-0.052194500000000005;0.67443;1.5;0.052194500000000005;-0.67443;-2.4347;-1.8154;13.958;-1.8154;696.9019999999999;685.0;980.0;1300.0;1024.0;846.0;1024.0;1024.0;1024.0;1.0;3.0;0.0;0.0;0.0;0.0;0.0;-0.10438900000000001;0.876758;2.55;;1970-01-01 00:00:01.815
671.0;672.0;0.0;-1.0;-1.0;-1.0;-1.0;-1.0;39.0;0.0;0.0;0.0;0.0;0.0;0.0;0.0;0.0;0.0;0.0;0.0;0.0;0.0;0.0;417.0;61.0;9.55493;417.825;59.2352;0.0;115.0;1.0;0.031938299999999996;-0.42443000000000003;-2.3704;0.029050599999999996;-0.426829;-2.35248;0.0867059;0.116844;-0.219919;1.8219400000000001;-0.600167;1.8500599999999998;0.0;-0.052194500000000005;0.67443;1.5;0.052194500000000005;-0.67443;-2.4347;-1.8154;13.958;-1.8154;696.9019999999999;685.0;980.0;1300.0;1024.0;846.0;1024.0;1024.0;1024.0;1.0;3.0;0.0;0.0;0.0;0.0;0.0;-0.10438900000000001;0.876758;2.55;;1970-01-01 00:00:01.826
672.0;673.0;0.0;-1.0;-1.0;-1.0;-1.0;-1.0;40.0;0.0;0.0;0.0;0.0;0.0;0.0;0.0;0.0;0.0;0.0;0.0;0.0;0.0;0.0;417.2;59.6;9.58642;417.67800000000005;58.5082;0.0;116.0;1.0;0.0307923;-0.41693100000000005;-2.36659;0.029573099999999998;-0.42386;-2.35672;0.09081510000000001;0.13056900000000002;-0.188869;1.6178299999999999;-0.312052;2.3500099999999997;0.0;-0.052913699999999994;0.666931;1.5;0.052913699999999994;-0.666931;-2.4227;-1.8681;13.8028;-1.8681;696.9019999999999;677.0;982.0;1291.0;1024.0;812.0;1024.0;1024.0;1024.0;1.0;3.0;0.0;0.0;0.0;0.0;0.0;-0.105827;0.8670110000000001;2.55;;1970-01-01 00:00:01.837
673.0;674.0;0.0;-1.0;-1.0;-1.0;-1.0;-1.0;41.0;0.0;0.0;0.0;0.0;0.0;0.0;0.0;0.0;0.0;0.0;0.0;0.0;0.0;0.0;418.667;59.3333;9.729230000000001;418.038;57.9332;0.0;117.0;1.0;0.022818099999999997;-0.409666;-2.3326;0.0275466;-0.41960200000000003;-2.34948;0.0769687;0.148921;-0.114219;1.2881799999999999;0.00848751;2.8334;0.0;-0.0455005;0.659666;1.5;0.0455005;-0.659666;-2.37977;-1.59571;13.6524;-1.59571;696.9019999999999;666.0;989.0;1277.0;1024.0;812.0;1024.0;1024.0;1024.0;1.0;3.0;0.0;0.0;0.0;0.0;0.0;-0.091001;0.8575649999999999;2.55;;1970-01-01 00:00:01.848
673.0;674.0;0.0;-1.0;-1.0;-1.0;-1.0;-1.0;41.0;0.0;0.0;0.0;0.0;0.0;0.0;0.0;0.0;0.0;0.0;0.0;0.0;0.0;0.0;418.667;59.3333;9.729230000000001;418.038;57.9332;0.0;117.0;1.0;0.022818099999999997;-0.409666;-2.3326;0.0275466;-0.41960200000000003;-2.34948;0.0769687;0.148921;-0.114219;1.2881799999999999;0.00848751;2.8334;0.0;-0.0455005;0.659666;1.5;0.0455005;-0.659666;-2.37977;-1.59571;13.6524;-1.59571;696.9019999999999;666.0;989.0;1277.0;1024.0;812.0;1024.0;1024.0;1024.0;1.0;3.0;0.0;0.0;0.0;0.0;0.0;-0.091001;0.8575649999999999;2.55;;1970-01-01 00:00:01.859
674.0;675.0;0.0;-1.0;-1.0;-1.0;-1.0;-1.0;42.0;0.0;0.0;0.0;0.0;0.0;0.0;0.0;0.0;0.0;0.0;0.0;0.0;0.0;0.0;419.0;59.0;9.53374;418.403;57.4468;0.0;118.0;1.0;0.0215413;-0.416605;-2.38138;0.025745;-0.418703;-2.35905;0.0533503;0.155558;-0.0994391;0.846578;0.25643699999999997;2.9166;0.0;-0.040807300000000005;0.666605;1.5;0.040807300000000005;-0.666605;-2.40997;-1.28217;13.7961;-1.28217;696.9019999999999;663.0;998.0;1275.0;1024.0;761.0;1024.0;1024.0;1024.0;1.0;3.0;0.0;0.0;0.0;0.0;0.0;-0.0816147;0.8665860000000001;2.55;;1970-01-01 00:00:01.870
675.0;676.0;0.0;-1.0;-1.0;-1.0;-1.0;-1.0;43.0;0.0;0.0;0.0;0.0;0.0;0.0;0.0;0.0;0.0;0.0;0.0;0.0;0.0;0.0;421.0;58.0;9.53844;419.30300000000005;56.8114;0.0;119.0;1.0;0.0110678;-0.412017;-2.38307;0.0213418;-0.41669700000000004;-2.36626;0.0123613;0.155338;-0.124445;0.30799499999999996;0.391462;2.5382700000000002;0.0;-0.0243426;0.662017;1.5;0.0243426;-0.662017;-2.40781;-0.579942;13.7011;-0.579942;696.9019999999999;670.0;1013.0;1282.0;1024.0;719.0;1024.0;1024.0;1024.0;1.0;1.0;0.0;0.0;0.0;0.0;0.0;-0.0486852;0.8606219999999999;2.55;;1970-01-01 00:00:01.881
675.0;676.0;0.0;-1.0;-1.0;-1.0;-1.0;-1.0;43.0;0.0;0.0;0.0;0.0;0.0;0.0;0.0;0.0;0.0;0.0;0.0;0.0;0.0;0.0;421.0;58.0;9.53844;419.30300000000005;56.8114;0.0;119.0;1.0;0.0110678;-0.412017;-2.38307;0.0213418;-0.41669700000000004;-2.36626;0.0123613;0.155338;-0.124445;0.30799499999999996;0.391462;2.5382700000000002;0.0;-0.0243426;0.662017;1.5;0.0243426;-0.662017;-2.40781;-0.579942;13.7011;-0.579942;696.9019999999999;670.0;1013.0;1282.0;1024.0;719.0;1024.0;1024.0;1024.0;1.0;1.0;0.0;0.0;0.0;0.0;0.0;-0.0486852;0.8606219999999999;2.55;;1970-01-01 00:00:01.892
676.0;677.0;0.0;-1.0;-1.0;-1.0;-1.0;-1.0;44.0;0.0;0.0;0.0;0.0;0.0;0.0;0.0;0.0;0.0;0.0;0.0;0.0;0.0;0.0;421.0;57.0;9.52789;419.952;56.0673;0.0;120.0;1.0;0.01108;-0.408086;-2.38857;0.0182633;-0.41411400000000004;-2.37295;-0.030711400000000003;0.148077;-0.18703499999999998;-0.252107;0.392463;1.77388;0.0;-0.0141714;0.658086;1.5;0.0141714;-0.658086;-2.41969;0.0225025;13.6198;0.0225025;696.9019999999999;686.0;1025.0;1298.0;1024.0;618.0;1024.0;1024.0;1024.0;1.0;1.0;0.0;0.0;0.0;0.0;0.0;-0.028342700000000002;0.855512;2.55;;1970-01-01 00:00:01.903
677.0;678.0;0.0;-1.0;-1.0;-1.0;-1.0;-1.0;45.0;0.0;0.0;0.0;0.0;0.0;0.0;0.0;0.0;0.0;0.0;0.0;0.0;0.0;0.0;422.667;56.6667;9.6579;420.949;55.457;0.0;121.0;1.0;0.00231973;-0.40115100000000004;-2.35735;0.013480200000000003;-0.410225;-2.36827;-0.0805934;0.155142;-0.175256;-0.819227;0.388387;1.24265;0.0;0.0053847999999999995;0.651151;1.5;-0.0053847999999999995;-0.651151;-2.40428;0.8679479999999999;13.4762;0.8679479999999999;696.9019999999999;693.0;1042.0;1303.0;1024.0;592.0;1024.0;1024.0;1024.0;1.0;1.0;0.0;0.0;0.0;0.0;0.0;0.010769599999999999;0.8464959999999999;2.55;;1970-01-01 00:00:01.914
677.0;678.0;0.0;-1.0;-1.0;-1.0;-1.0;-1.0;45.0;0.0;0.0;0.0;0.0;0.0;0.0;0.0;0.0;0.0;0.0;0.0;0.0;0.0;0.0;422.667;56.6667;9.6579;420.949;55.457;0.0;121.0;1.0;0.00231973;-0.40115100000000004;-2.35735;0.013480200000000003;-0.410225;-2.36827;-0.0805934;0.155142;-0.175256;-0.819227;0.388387;1.24265;0.0;0.0053847999999999995;0.651151;1.5;-0.0053847999999999995;-0.651151;-2.40428;0.8679479999999999;13.4762;0.8679479999999999;696.9019999999999;693.0;1042.0;1303.0;1024.0;592.0;1024.0;1024.0;1024.0;1.0;1.0;0.0;0.0;0.0;0.0;0.0;0.010769599999999999;0.8464959999999999;2.55;;1970-01-01 00:00:01.925
678.0;679.0;0.0;-1.0;-1.0;-1.0;-1.0;-1.0;46.0;0.0;0.0;0.0;0.0;0.0;0.0;0.0;0.0;0.0;0.0;0.0;0.0;0.0;0.0;424.667;55.3333;9.59932;422.30400000000003;54.6243;0.0;122.0;1.0;-0.00806263;-0.397793;-2.37553;0.00701737;-0.406495;-2.37045;-0.138413;0.162416;-0.159978;-1.40676;0.360185;0.860941;0.0;0.0284439;0.6477930000000001;1.5;-0.0284439;-0.6477930000000001;-2.41985;1.85535;13.4067;1.85535;696.9019999999999;697.0;1062.0;1306.0;1024.0;592.0;1024.0;1024.0;1024.0;1.0;1.0;0.0;0.0;0.0;0.0;0.0;0.05688769999999999;0.842131;2.55;;1970-01-01 00:00:01.936
679.0;680.0;0.0;-1.0;-1.0;-1.0;-1.0;-1.0;47.0;0.0;0.0;0.0;0.0;0.0;0.0;0.0;0.0;0.0;0.0;0.0;0.0;0.0;0.0;425.333;54.6667;9.554689999999999;423.49199999999996;53.8429;0.0;123.0;1.0;-0.0115821;-0.396735;-2.38852;0.00143753;-0.403567;-2.37587;-0.187291;0.161469;-0.201349;-1.89914;0.266212;0.16868699999999998;0.0;0.0469341;0.6467350000000001;1.5;-0.0469341;-0.6467350000000001;-2.42938;2.67102;13.3848;2.67102;696.9019999999999;228.0;1062.0;1306.0;1024.0;559.0;1024.0;1024.0;1024.0;1.0;0.0;0.0;0.0;0.0;0.0;0.0;0.0938682;0.8407549999999999;2.55;;1970-01-01 00:00:01.947
680.0;681.0;0.0;-1.0;-1.0;-1.0;-1.0;-1.0;48.0;0.0;0.0;0.0;0.0;0.0;0.0;0.0;0.0;0.0;0.0;0.0;0.0;0.0;0.0;427.0;53.0;9.50792;424.874;52.7794;0.0;124.0;1.0;-0.020386099999999997;-0.39136;-2.40505;-0.00510955;-0.399905;-2.38463;-0.23556100000000002;0.171931;-0.222908;-2.29296;0.22509899999999997;-0.391733;0.0;0.0693058;0.64136;1.5;-0.0693058;-0.64136;-2.45764;3.55464;13.2736;3.55464;696.9019999999999;228.0;1062.0;1306.0;1024.0;508.0;1024.0;1024.0;1024.0;1.0;0.0;0.0;0.0;0.0;0.0;0.0;0.13861199999999999;0.833767;2.55;;1970-01-01 00:00:01.958
680.0;681.0;0.0;-1.0;-1.0;-1.0;-1.0;-1.0;48.0;0.0;0.0;0.0;0.0;0.0;0.0;0.0;0.0;0.0;0.0;0.0;0.0;0.0;0.0;427.0;53.0;9.50792;424.874;52.7794;0.0;124.0;1.0;-0.020386099999999997;-0.39136;-2.40505;-0.00510955;-0.399905;-2.38463;-0.23556100000000002;0.171931;-0.222908;-2.29296;0.22509899999999997;-0.391733;0.0;0.0693058;0.64136;1.5;-0.0693058;-0.64136;-2.45764;3.55464;13.2736;3.55464;696.9019999999999;228.0;1062.0;1306.0;1024.0;508.0;1024.0;1024.0;1024.0;1.0;0.0;0.0;0.0;0.0;0.0;0.0;0.13861199999999999;0.833767;2.55;;1970-01-01 00:00:01.969
681.0;682.0;0.0;-1.0;-1.0;-1.0;-1.0;-1.0;49.0;0.0;0.0;0.0;0.0;0.0;0.0;0.0;0.0;0.0;0.0;0.0;0.0;0.0;0.0;428.0;53.0;9.58394;426.18300000000005;52.0437;0.0;125.0;1.0;-0.025431;-0.388255;-2.38598;-0.011206;-0.39641;-2.38503;-0.271283;0.18415399999999998;-0.208698;-2.50821;0.250105;-0.571415;0.0;0.0693058;0.64136;1.5;-0.0693058;-0.64136;-2.45764;3.55464;13.2736;3.55464;696.9019999999999;228.0;1062.0;1306.0;1024.0;449.0;1024.0;1024.0;1024.0;1.0;0.0;0.0;0.0;0.0;0.0;0.0;0.13861199999999999;0.833767;2.55;;1970-01-01 00:00:01.980
682.0;683.0;0.0;429.0;51.0;9.51302;429.0;51.0;0.0;1.0;1.0;-0.030866;-0.382362;-2.4094900000000004;-0.030866;-0.382362;-2.4094900000000004;0.0;0.0;0.0;0.0;0.0;0.0;428.0;53.0;9.58394;428.865;52.2469;0.0;125.0;1.0;-0.025431;-0.388255;-2.38598;-0.011206;-0.39641;-2.38503;-0.271283;0.18415399999999998;-0.208698;-2.50821;0.250105;-0.571415;1.0;0.0384399;0.258997;0.0481524;-0.0693058;-0.64136;-2.45764;2.96818;5.3602099999999995;2.96818;696.9019999999999;228.0;1062.0;1306.0;1024.0;440.0;1024.0;1024.0;1024.0;1.0;0.0;0.0;0.8348690000000001;0.0;0.0;0.0;0.0768798;0.33669699999999997;0.0818592;;1970-01-01 00:00:01.991
682.0;683.0;0.0;429.0;51.0;9.51302;429.0;51.0;0.0;1.0;1.0;-0.030866;-0.382362;-2.4094900000000004;-0.030866;-0.382362;-2.4094900000000004;0.0;0.0;0.0;0.0;0.0;0.0;428.0;53.0;9.58394;428.865;52.2469;0.0;125.0;1.0;-0.025431;-0.388255;-2.38598;-0.011206;-0.39641;-2.38503;-0.271283;0.18415399999999998;-0.208698;-2.50821;0.250105;-0.571415;1.0;0.0384399;0.258997;0.0481524;-0.0693058;-0.64136;-2.45764;2.96818;5.3602099999999995;2.96818;696.9019999999999;228.0;1062.0;1306.0;1024.0;440.0;1024.0;1024.0;1024.0;1.0;0.0;0.0;0.8348690000000001;0.0;0.0;0.0;0.0768798;0.33669699999999997;0.0818592;;1970-01-01 00:00:02.002
683.0;684.0;0.0;430.25;50.25;9.54162;429.11400000000003;50.9318;0.0;2.0;1.0;-0.0373106;-0.377931;-2.40441;-0.0327993;-0.381033;-2.40797;0.0;0.0;0.0;0.0;0.0;0.0;428.0;53.0;9.58394;428.865;52.2469;0.0;125.0;1.0;-0.025431;-0.388255;-2.38598;-0.011206;-0.39641;-2.38503;-0.271283;0.18415399999999998;-0.208698;-2.50821;0.250105;-0.571415;1.0;0.0365065;0.260327;0.0496759;-0.0693058;-0.64136;-2.45764;2.93145;5.38772;2.93145;696.9019999999999;228.0;1062.0;1306.0;1024.0;381.0;1024.0;1024.0;1024.0;1.0;0.0;0.0;0.016696799999999998;0.0;0.0;0.0;0.073013;0.338425;0.08444910000000001;;1970-01-01 00:00:02.013
684.0;685.0;0.0;430.667;49.7778;9.603530000000001;429.36300000000006;50.7463;0.0;3.0;1.0;-0.039235;-0.37343899999999997;-2.39025;-0.034730000000000004;-0.378754;-2.40265;0.0;0.0;0.0;0.0;0.0;0.0;428.0;53.0;9.58394;428.865;52.2469;0.0;125.0;1.0;-0.025431;-0.388255;-2.38598;-0.011206;-0.39641;-2.38503;-0.271283;0.18415399999999998;-0.208698;-2.50821;0.250105;-0.571415;1.0;0.034575800000000004;0.26260500000000003;0.0549908;-0.0693058;-0.64136;-2.45764;2.8947700000000003;5.43487;2.8947700000000003;696.9019999999999;228.0;1062.0;1306.0;1024.0;297.0;1024.0;1024.0;1024.0;1.0;0.0;0.0;0.0166978;0.0;0.0;0.0;0.06915160000000001;0.341386;0.0934843;;1970-01-01 00:00:02.024
684.0;685.0;0.0;430.667;49.7778;9.603530000000001;429.36300000000006;50.7463;0.0;3.0;1.0;-0.039235;-0.37343899999999997;-2.39025;-0.034730000000000004;-0.378754;-2.40265;0.0;0.0;0.0;0.0;0.0;0.0;428.0;53.0;9.58394;428.865;52.2469;0.0;125.0;1.0;-0.025431;-0.388255;-2.38598;-0.011206;-0.39641;-2.38503;-0.271283;0.18415399999999998;-0.208698;-2.50821;0.250105;-0.571415;1.0;0.034575800000000004;0.26260500000000003;0.0549908;-0.0693058;-0.64136;-2.45764;2.8947700000000003;5.43487;2.8947700000000003;696.9019999999999;228.0;1062.0;1306.0;1024.0;297.0;1024.0;1024.0;1024.0;1.0;0.0;0.0;0.0166978;0.0;0.0;0.0;0.06915160000000001;0.341386;0.0934843;;1970-01-01 00:00:02.035
685.0;686.0;0.0;431.0;49.0;9.56856;429.704;50.3829;0.0;4.0;1.0;-0.0411167;-0.371406;-2.4012;-0.036646;-0.37655;-2.4022200000000002;0.0;0.0;0.0;0.0;0.0;0.0;428.0;53.0;9.58394;428.865;52.2469;0.0;125.0;1.0;-0.025431;-0.388255;-2.38598;-0.011206;-0.39641;-2.38503;-0.271283;0.18415399999999998;-0.208698;-2.50821;0.250105;-0.571415;1.0;0.0326598;0.26481;0.0554256;-0.0693058;-0.64136;-2.45764;2.85836;5.4805;2.85836;696.9019999999999;228.0;1062.0;1306.0;1024.0;229.0;1024.0;1024.0;1024.0;1.0;0.0;0.0;0.016696799999999998;0.0;0.0;0.0;0.0653196;0.344252;0.0942236;;1970-01-01 00:00:02.046
686.0;687.0;0.0;432.0;49.0;9.52335;430.25;50.0532;0.0;5.0;1.0;-0.0465517;-0.37317;-2.4126;-0.0396177;-0.37553600000000004;-2.4053299999999997;0.0;0.0;0.0;0.0;0.0;0.0;428.0;53.0;9.58394;428.865;52.2469;0.0;125.0;1.0;-0.025431;-0.388255;-2.38598;-0.011206;-0.39641;-2.38503;-0.271283;0.18415399999999998;-0.208698;-2.50821;0.250105;-0.571415;1.0;0.0296881;0.265824;0.05231;-0.0693058;-0.64136;-2.45764;2.8019;5.50149;2.8019;696.9019999999999;228.0;1062.0;1306.0;1024.0;204.0;1024.0;1024.0;1024.0;1.0;0.0;0.0;0.0166978;0.0;0.0;0.0;0.0593762;0.345571;0.08892699999999999;;1970-01-01 00:00:02.057
686.0;687.0;0.0;432.0;49.0;9.52335;430.25;50.0532;0.0;5.0;1.0;-0.0465517;-0.37317;-2.4126;-0.0396177;-0.37553600000000004;-2.4053299999999997;0.0;0.0;0.0;0.0;0.0;0.0;428.0;53.0;9.58394;428.865;52.2469;0.0;125.0;1.0;-0.025431;-0.388255;-2.38598;-0.011206;-0.39641;-2.38503;-0.271283;0.18415399999999998;-0.208698;-2.50821;0.250105;-0.571415;1.0;0.0296881;0.265824;0.05231;-0.0693058;-0.64136;-2.45764;2.8019;5.50149;2.8019;696.9019999999999;228.0;1062.0;1306.0;1024.0;204.0;1024.0;1024.0;1024.0;1.0;0.0;0.0;0.0166978;0.0;0.0;0.0;0.0593762;0.345571;0.08892699999999999;;1970-01-01 00:00:02.068
687.0;688.0;0.0;432.0;49.0;9.52335;430.254;50.0503;1.0;0.0;1.0;-0.0465517;-0.37317;-2.4126;-0.0396177;-0.37553600000000004;-2.4053299999999997;0.0;0.0;0.0;0.0;0.0;0.0;428.0;53.0;9.58394;428.865;52.2469;0.0;125.0;1.0;-0.025431;-0.388255;-2.38598;-0.011206;-0.39641;-2.38503;-0.271283;0.18415399999999998;-0.208698;-2.50821;0.250105;-0.571415;1.0;0.0296881;0.265824;0.05231;-0.0693058;-0.64136;-2.45764;2.8019;5.50149;2.8019;696.9019999999999;228.0;1062.0;1306.0;1024.0;204.0;1024.0;1024.0;1024.0;1.0;0.0;0.0;0.0166978;0.0;0.0;0.0;0.0593762;0.345571;0.08892699999999999;;1970-01-01 00:00:02.079
688.0;689.0;0.0;-1.0;-1.0;-1.0;-1.0;-1.0;1.0;0.0;0.0;0.0;0.0;0.0;0.0;0.0;0.0;0.0;0.0;0.0;0.0;0.0;0.0;428.0;53.0;9.58394;428.865;52.2469;0.0;125.0;1.0;-0.025431;-0.388255;-2.38598;-0.011206;-0.39641;-2.38503;-0.271283;0.18415399999999998;-0.208698;-2.50821;0.250105;-0.571415;0.0;0.0693058;0.64136;1.5;-0.0693058;-0.64136;-2.45764;3.55464;13.2736;3.55464;696.9019999999999;228.0;1062.0;1306.0;1024.0;204.0;1024.0;1024.0;1024.0;1.0;0.0;0.0;0.0;0.0;0.0;0.0;0.13861199999999999;0.833767;2.55;;1970-01-01 00:00:02.090
688.0;689.0;0.0;-1.0;-1.0;-1.0;-1.0;-1.0;1.0;0.0;0.0;0.0;0.0;0.0;0.0;0.0;0.0;0.0;0.0;0.0;0.0;0.0;0.0;428.0;53.0;9.58394;428.865;52.2469;0.0;125.0;1.0;-0.025431;-0.388255;-2.38598;-0.011206;-0.39641;-2.38503;-0.271283;0.18415399999999998;-0.208698;-2.50821;0.250105;-0.571415;0.0;0.0693058;0.64136;1.5;-0.0693058;-0.64136;-2.45764;3.55464;13.2736;3.55464;696.9019999999999;228.0;1062.0;1306.0;1024.0;204.0;1024.0;1024.0;1024.0;1.0;0.0;0.0;0.0;0.0;0.0;0.0;0.13861199999999999;0.833767;2.55;;1970-01-01 00:00:02.101
689.0;690.0;0.0;-1.0;-1.0;-1.0;-1.0;-1.0;1.0;0.0;0.0;0.0;0.0;0.0;0.0;0.0;0.0;0.0;0.0;0.0;0.0;0.0;0.0;428.0;53.0;9.58394;428.865;52.2469;0.0;125.0;1.0;-0.025431;-0.388255;-2.38598;-0.011206;-0.39641;-2.38503;-0.271283;0.18415399999999998;-0.208698;-2.50821;0.250105;-0.571415;0.0;0.0693058;0.64136;1.5;-0.0693058;-0.64136;-2.45764;3.55464;13.2736;3.55464;696.9019999999999;228.0;1062.0;1306.0;1024.0;204.0;1024.0;1024.0;1024.0;1.0;0.0;0.0;0.0;0.0;0.0;0.0;0.13861199999999999;0.833767;2.55;;1970-01-01 00:00:02.112
690.0;691.0;0.0;-1.0;-1.0;-1.0;-1.0;-1.0;1.0;0.0;0.0;0.0;0.0;0.0;0.0;0.0;0.0;0.0;0.0;0.0;0.0;0.0;0.0;428.0;53.0;9.58394;428.865;52.2469;0.0;125.0;1.0;-0.025431;-0.388255;-2.38598;-0.011206;-0.39641;-2.38503;-0.271283;0.18415399999999998;-0.208698;-2.50821;0.250105;-0.571415;0.0;0.0693058;0.64136;1.5;-0.0693058;-0.64136;-2.45764;3.55464;13.2736;3.55464;696.9019999999999;228.0;1062.0;1306.0;1024.0;204.0;1024.0;1024.0;1024.0;1.0;0.0;0.0;0.0;0.0;0.0;0.0;0.13861199999999999;0.833767;2.55;;1970-01-01 00:00:02.123
691.0;692.0;0.0;-1.0;-1.0;-1.0;-1.0;-1.0;1.0;0.0;0.0;0.0;0.0;0.0;0.0;0.0;0.0;0.0;0.0;0.0;0.0;0.0;0.0;428.0;53.0;9.58394;428.865;52.2469;0.0;125.0;1.0;-0.025431;-0.388255;-2.38598;-0.011206;-0.39641;-2.38503;-0.271283;0.18415399999999998;-0.208698;-2.50821;0.250105;-0.571415;0.0;0.0693058;0.64136;1.5;-0.0693058;-0.64136;-2.45764;3.55464;13.2736;3.55464;696.9019999999999;228.0;1062.0;1306.0;1024.0;204.0;1024.0;1024.0;1024.0;0.0;0.0;0.0;0.0;0.0;0.0;0.0;0.13861199999999999;0.833767;2.55;;1970-01-01 00:00:02.134
691.0;692.0;0.0;-1.0;-1.0;-1.0;-1.0;-1.0;1.0;0.0;0.0;0.0;0.0;0.0;0.0;0.0;0.0;0.0;0.0;0.0;0.0;0.0;0.0;428.0;53.0;9.58394;428.865;52.2469;0.0;125.0;1.0;-0.025431;-0.388255;-2.38598;-0.011206;-0.39641;-2.38503;-0.271283;0.18415399999999998;-0.208698;-2.50821;0.250105;-0.571415;0.0;0.0693058;0.64136;1.5;-0.0693058;-0.64136;-2.45764;3.55464;13.2736;3.55464;696.9019999999999;228.0;1062.0;1306.0;1024.0;204.0;1024.0;1024.0;1024.0;0.0;0.0;0.0;0.0;0.0;0.0;0.0;0.13861199999999999;0.833767;2.55;;1970-01-01 00:00:02.145
692.0;693.0;0.0;-1.0;-1.0;-1.0;-1.0;-1.0;1.0;0.0;0.0;0.0;0.0;0.0;0.0;0.0;0.0;0.0;0.0;0.0;0.0;0.0;0.0;428.0;53.0;9.58394;428.865;52.2469;0.0;125.0;1.0;-0.025431;-0.388255;-2.38598;-0.011206;-0.39641;-2.38503;-0.271283;0.18415399999999998;-0.208698;-2.50821;0.250105;-0.571415;0.0;0.0693058;0.64136;1.5;-0.0693058;-0.64136;-2.45764;3.55464;13.2736;3.55464;696.9019999999999;228.0;1062.0;1306.0;1024.0;204.0;1024.0;1024.0;1024.0;0.0;0.0;0.0;0.0;0.0;0.0;0.0;0.13861199999999999;0.833767;2.55;;1970-01-01 00:00:02.156
693.0;694.0;0.0;-1.0;-1.0;-1.0;-1.0;-1.0;1.0;0.0;0.0;0.0;0.0;0.0;0.0;0.0;0.0;0.0;0.0;0.0;0.0;0.0;0.0;428.0;53.0;9.58394;428.865;52.2469;0.0;125.0;1.0;-0.025431;-0.388255;-2.38598;-0.011206;-0.39641;-2.38503;-0.271283;0.18415399999999998;-0.208698;-2.50821;0.250105;-0.571415;0.0;0.0693058;0.64136;1.5;-0.0693058;-0.64136;-2.45764;3.55464;13.2736;3.55464;696.9019999999999;228.0;1062.0;1306.0;1024.0;204.0;1024.0;1024.0;1024.0;0.0;0.0;0.0;0.0;0.0;0.0;0.0;0.13861199999999999;0.833767;2.55;;1970-01-01 00:00:02.167
