ID;RS_ID;time;insect_log;imLx_drone; imLy_drone; disparity_drone; imLx_pred_drone; imLy_pred_drone; n_frames_lost_drone; n_frames_tracking_drone; foundL_drone; posX_drone; posY_drone; posZ_drone; sposX_drone; sposY_drone; sposZ_drone; svelX_drone; svelY_drone; svelZ_drone; saccX_drone; saccY_drone; saccZ_drone; imLx_insect; imLy_insect; disparity_insect; imLx_pred_insect; imLy_pred_insect; n_frames_lost_insect; n_frames_tracking_insect; foundL_insect; posX_insect; posY_insect; posZ_insect; sposX_insect; sposY_insect; sposZ_insect; svelX_insect; svelY_insect; svelZ_insect; saccX_insect; saccY_insect; saccZ_insect; valid; posErrX; posErrY; posErrZ; velX; velY; velZ; accX; accY; accZ; hoverthrottle; autoThrottle; autoRoll; autoPitch; autoYaw; joyThrottle; joyRoll; joyPitch; joyYaw; joyArmSwitch; joyModeSwitch; joyTakeoffSwitch; dt; dx; dy; dz; velx_sp; vely_sp; velz_sp;
557;558;2019/09/06 18:52:52;0;-1;-1;-1;-1;-1;100;0;0;0;0;0;0;0;0;0;0;0;0;0;0;482.727;7.81818;10.8777;482.727;7.81818;0;1;1;-0.273459;-0.168466;-2.21541;-0.273459;-0.168466;-2.21541;0;0;0;0;0;0;0;0;0;0;0;0;0;0;0;0;675;228;1024;1024;1024;863;1024;1024;1024;1;3;0;0;0;0;0;0;0;0; 
558;559;2019/09/06 18:52:52;0;-1;-1;-1;-1;-1;101;0;0;0;0;0;0;0;0;0;0;0;0;0;0;478.222;14.6667;11.0189;482.318;8.44077;0;2;1;-0.249554;-0.192285;-2.17008;-0.266287;-0.175612;-2.20181;0;0;0;0;0;0;0;0.249554;0.442285;1.5;-0.249554;-0.442285;-2.17008;4.74152;9.15354;4.74152;675;650;1097;1088;1024;863;1024;1024;1024;1;3;0;0;0;0;0;0.499107;0.574971;2.55; 
559;560;2019/09/06 18:52:52;0;-1;-1;-1;-1;-1;102;0;0;0;0;0;0;0;0;0;0;0;0;0;0;474;25;10.7644;480.981;11.1024;0;3;1;-0.235881;-0.236955;-2.19522;-0.257165;-0.194015;-2.19983;0;0;0;0;0;0;0;0.235881;0.486955;1.5;-0.235881;-0.486955;-2.19522;4.48173;10.078;4.48173;675;650;1097;1093;1024;863;1024;1024;1024;1;3;0;0;0;0;0;0.471761;0.633041;2.55; 
560;561;2019/09/06 18:52:52;0;-1;-1;-1;-1;-1;103;0;0;0;0;0;0;0;0;0;0;0;0;0;0;471.538;34.4615;10.5165;479.015;15.9636;0;4;1;-0.229761;-0.280145;-2.22244;-0.248944;-0.219854;-2.20661;0;0;0;0;0;0;0;0.229761;0.530145;1.5;-0.229761;-0.530145;-2.22244;4.36547;10.9719;4.36547;675;650;1099;1099;1024;863;1024;1024;1024;1;3;0;0;0;0;0;0.459523;0.689189;2.55; 
561;562;2019/09/06 18:52:52;0;-1;-1;-1;-1;-1;104;0;0;0;0;0;0;0;0;0;0;0;0;0;0;469.867;40.6667;10.7017;476.836;21.8469;0;5;1;-0.217991;-0.299534;-2.16818;-0.239658;-0.243758;-2.19509;0;0;0;0;0;0;0;0.217991;0.549534;1.5;-0.217991;-0.549534;-2.16818;4.14182;11.3731;4.14182;675;650;1098;1092;1024;863;1024;1024;1024;1;3;0;0;0;0;0;0.435981;0.714394;2.55; 
562;563;2019/09/06 18:52:52;0;-1;-1;-1;-1;-1;105;0;0;0;0;0;0;0;0;0;0;0;0;0;0;467.778;47.3333;10.4874;474.506;28.3971;0;6;1;-0.212505;-0.332222;-2.19515;-0.231512;-0.270297;-2.1951;0;0;0;0;0;0;0;0.212505;0.582222;1.5;-0.212505;-0.582222;-2.19515;4.03759;12.0497;4.03759;675;650;1099;1098;1024;863;1024;1024;1024;1;3;0;0;0;0;0;0.425009;0.756889;2.55; 
563;564;2019/09/06 18:52:52;0;-1;-1;-1;-1;-1;106;0;0;0;0;0;0;0;0;0;0;0;0;0;0;466.222;55.3333;10.5049;472.269;35.6509;0;7;1;-0.204763;-0.363502;-2.17075;-0.223487;-0.298259;-2.1878;0;0;0;0;0;0;0;0.204763;0.613502;1.5;-0.204763;-0.613502;-2.17075;3.89049;12.697;3.89049;675;650;1099;1096;1024;863;1024;1024;1024;1;3;0;0;0;0;0;0.409526;0.797552;2.55; 
564;565;2019/09/06 18:52:52;0;-1;-1;-1;-1;-1;107;0;0;0;0;0;0;0;0;0;0;0;0;0;0;466;64;10.4926;470.507;43.5359;0;8;1;-0.203946;-0.398452;-2.15078;-0.217625;-0.328316;-2.17669;0.493546;-1.38695;0.265634;1.97045;-5.53732;1.06053;0;0.203946;0.648452;1.5;-0.203946;-0.648452;-2.15078;-0.813715;13.4204;-0.813715;675;650;1101;1095;1024;863;1024;1024;1024;1;3;0;0;0;0;0;0.407892;0.842987;2.55; 
565;566;2019/09/06 18:52:52;0;-1;-1;-1;-1;-1;108;0;0;0;0;0;0;0;0;0;0;0;0;0;0;465;69;10.4445;468.908;50.8348;0;9;1;-0.200107;-0.420294;-2.14762;-0.212369;-0.35591;-2.16797;0.474972;-1.47853;0.286584;3.07857;-9.22531;1.78049;0;0.00627938;0.670294;1.5;-0.00627938;-0.670294;-2.0433;-4.39293;13.8724;-4.39293;675;650;1070;1078;1024;863;1024;1024;1024;1;3;0;0;0;0;0;0.0125588;0.871382;2.55; 
566;567;2019/09/06 18:52:52;0;-1;-1;-1;-1;-1;109;0;0;0;0;0;0;0;0;0;0;0;0;0;0;465.75;74.25;10.3644;467.932;57.7366;0;10;1;-0.205264;-0.444715;-2.15042;-0.210238;-0.382551;-2.1627;0.439523;-1.5367;0.347266;3.60199;-11.6707;2.45479;0;0.0159887;0.694715;1.5;-0.0159887;-0.694715;-2.03621;-3.87168;14.3778;-3.87168;675;650;1073;1078;1024;863;1024;1024;1024;1;3;0;0;0;0;0;0.0319774;0.90313;2.55; 
567;568;2019/09/06 18:52:52;0;-1;-1;-1;-1;-1;110;0;0;0;0;0;0;0;0;0;0;0;0;0;0;465;81.6;10.2652;466.997;64.9302;0;11;1;-0.203603;-0.478943;-2.15169;-0.208247;-0.411469;-2.1594;0.389125;-1.59163;0.350833;3.71482;-13.3572;2.87362;0;0.026222;0.728943;1.5;-0.026222;-0.728943;-2.01155;-3.19846;15.0862;-3.19846;675;650;1076;1076;1024;863;1024;1024;1024;1;3;0;0;0;0;0;0.0524441;0.947626;2.55; 
568;569;2019/09/06 18:52:52;0;-1;-1;-1;-1;-1;111;0;0;0;0;0;0;0;0;0;0;0;0;0;0;465.2;88.8;10.2082;466.366;72.2996;0;12;1;-0.205717;-0.511095;-2.14447;-0.207488;-0.441357;-2.15492;0.329393;-1.63795;0.370932;3.54403;-14.554;3.20516;0;0.0474714;0.761095;1.5;-0.0474714;-0.761095;-2.0018;-2.22728;15.7516;-2.22728;675;650;1081;1075;1024;863;1024;1024;1024;1;3;0;0;0;0;0;0.0949428;0.989423;2.55; 
569;570;2019/09/06 18:52:52;0;-1;-1;-1;-1;-1;112;0;0;0;0;0;0;0;0;0;0;0;0;0;0;465.818;93.2727;10.2535;466.083;79.0151;0;13;1;-0.207817;-0.527073;-2.12312;-0.207587;-0.467071;-2.14538;0.26112;-1.65678;0.391908;3.16897;-15.3473;3.48784;0;0.072284;0.777073;1.5;-0.072284;-0.777073;-1.9705;-1.10724;16.0823;-1.10724;675;650;1086;1070;1024;863;1024;1024;1024;1;3;0;0;0;0;0;0.144568;1.01019;2.55; 
570;571;2019/09/06 18:52:52;0;-1;-1;-1;-1;-1;113;0;0;0;0;0;0;0;0;0;0;0;0;0;0;465;98;10.1097;465.639;85.3221;0;14;1;-0.206734;-0.554111;-2.14056;-0.207331;-0.493183;-2.14394;0.197771;-1.65232;0.365924;0.720469;-10.2679;2.49312;0;0.098013;0.804111;1.5;-0.098013;-0.804111;-1.97739;-0.0165767;16.6419;-0.0165767;675;650;1093;1073;1024;863;1024;1024;1024;1;3;0;0;0;0;0;0.196026;1.04534;2.55; 
571;572;2019/09/06 18:52:52;0;-1;-1;-1;-1;-1;114;0;0;0;0;0;0;0;0;0;0;0;0;0;0;464.333;103.667;10.1156;465.121;91.6042;0;15;1;-0.203325;-0.577203;-2.12405;-0.206129;-0.518389;-2.13797;0.143577;-1.64011;0.33934;-0.890854;-6.80588;1.70651;0;0.120418;0.827203;1.5;-0.120418;-0.827203;-1.97065;0.923952;17.1198;0.923952;675;650;1098;1072;1024;863;1024;1024;1024;1;3;0;0;0;0;0;0.240835;1.07536;2.55; 
572;573;2019/09/06 18:52:52;0;-1;-1;-1;-1;-1;115;0;0;0;0;0;0;0;0;0;0;0;0;0;0;463;108;10.2413;464.35;97.4765;0;16;1;-0.194332;-0.587803;-2.08644;-0.20259;-0.539214;-2.12251;0.116681;-1.60956;0.364086;-1.8235;-4.37441;1.09106;0;0.133605;0.837803;1.5;-0.133605;-0.837803;-1.94291;1.43004;17.3392;1.43004;675;650;1101;1067;1024;863;1024;1024;1024;1;3;0;0;0;0;0;0.267211;1.08914;2.55; 
573;574;2019/09/06 18:52:52;0;-1;-1;-1;-1;-1;116;0;0;0;0;0;0;0;0;0;0;0;0;0;0;462.333;111.667;10.272;463.59;102.848;0;17;1;-0.190514;-0.600969;-2.07048;-0.198967;-0.55774;-2.1069;0.10706;-1.54974;0.428061;-2.22027;-2.45741;0.962977;0;0.140333;0.850969;1.5;-0.140333;-0.850969;-1.9139;1.64925;17.6117;1.64925;675;650;1103;1062;1024;863;1024;1024;1024;1;3;0;0;0;0;0;0.280666;1.10626;2.55; 
574;575;2019/09/06 18:52:52;0;-1;-1;-1;-1;-1;117;0;0;0;0;0;0;0;0;0;0;0;0;0;0;462;113.429;10.3271;462.938;107.281;0;18;1;-0.187886;-0.604891;-2.05478;-0.195643;-0.571886;-2.09127;0.11153;-1.451;0.510996;-2.20201;-0.728008;1.13701;0;0.140758;0.854891;1.5;-0.140758;-0.854891;-1.86635;1.61487;17.6928;1.61487;675;650;1104;1053;1024;863;1024;1024;1024;1;3;0;0;0;0;0;0.281516;1.11136;2.55; 
575;576;2019/09/06 18:52:52;0;-1;-1;-1;-1;-1;118;0;0;0;0;0;0;0;0;0;0;0;0;0;0;460;116.571;10.4537;461.864;111.434;0;19;1;-0.176063;-0.61013;-2.02169;-0.189769;-0.583359;-2.07039;0.138058;-1.33489;0.605996;-1.81254;0.848366;1.53698;0;0.125815;0.86013;1.5;-0.125815;-0.86013;-1.79147;1.07894;17.8013;1.07894;675;650;1101;1038;1024;863;1024;1024;1024;1;3;0;0;0;0;0;0.251631;1.11817;2.55; 
576;577;2019/09/06 18:52:52;0;-1;-1;-1;-1;-1;119;0;0;0;0;0;0;0;0;0;0;0;0;0;0;459;118.4;10.3121;460.782;114.982;0;20;1;-0.173642;-0.625921;-2.04463;-0.184931;-0.596128;-2.06266;0.172269;-1.21195;0.688088;-1.18934;2.26723;2.20847;0;0.109816;0.875921;1.5;-0.109816;-0.875921;-1.76447;0.449953;18.1281;0.449953;675;1820;1101;1038;1024;863;1024;1024;1024;1;3;0;0;0;0;0;0.219633;1.1387;2.55; 
577;578;2019/09/06 18:52:52;0;-1;-1;-1;-1;-1;120;0;0;0;0;0;0;0;0;0;0;0;0;0;0;458.25;120.25;10.4589;459.769;118.091;0;21;1;-0.167626;-0.624528;-2.0111;-0.17974;-0.604648;-2.04719;0.208725;-1.07157;0.775281;-0.453495;3.63031;3.06563;0;0.0859838;0.874528;1.5;-0.0859838;-0.874528;-1.685;-0.349197;18.0992;-0.349197;675;1820;1101;1038;1024;863;1024;1024;1024;1;3;0;0;0;0;0;0.171967;1.13689;2.55; 
578;579;2019/09/06 18:52:53;0;-1;-1;-1;-1;-1;121;0;0;0;0;0;0;0;0;0;0;0;0;0;0;458;123;10.4866;458.961;121.149;0;22;1;-0.165995;-0.633844;-1.99866;-0.175616;-0.613406;-2.03263;0.232931;-0.939165;0.824015;0.192047;4.85481;3.6757;0;0.0646721;0.883844;1.5;-0.0646721;-0.883844;-1.6223;-0.984075;18.292;-0.984075;675;1820;1101;1038;1024;863;1024;1024;1024;1;3;0;0;0;0;0;0.129344;1.149;2.55; 
579;580;2019/09/06 18:52:53;0;-1;-1;-1;-1;-1;122;0;0;0;0;0;0;0;0;0;0;0;0;0;0;456.571;124;10.5251;457.942;123.633;0;23;1;-0.158615;-0.635494;-1.98875;-0.170516;-0.620033;-2.01947;0.253354;-0.81221;0.843503;0.699325;5.85758;3.86413;0;0.0431436;0.885494;1.5;-0.0431436;-0.885494;-1.58026;-1.58714;18.3262;-1.58714;675;650;1024;1024;1024;863;1024;1024;1024;1;3;0;0;0;0;0;0.0862872;1.15114;2.55; 
580;581;2019/09/06 18:52:53;0;-1;-1;-1;-1;-1;123;0;0;0;0;0;0;0;0;0;0;0;0;0;0;455.75;125.75;10.4798;456.956;125.924;0;24;1;-0.155389;-0.645222;-1.9928;-0.165978;-0.62759;-2.01147;0.270453;-0.70973;0.824707;1.05412;6.47415;3.571;0;0.0276546;0.895222;1.5;-0.0276546;-0.895222;-1.56752;-2.04387;18.5275;-2.04387;675;650;1024;1024;1024;863;1024;1024;1024;1;3;0;0;0;0;0;0.0553092;1.16379;2.55; 
581;582;2019/09/06 18:52:53;0;-1;-1;-1;-1;-1;124;0;0;0;0;0;0;0;0;0;0;0;0;0;0;456;127.429;10.4933;456.326;128.052;0;25;1;-0.156378;-0.651078;-1.98587;-0.163098;-0.634636;-2.00379;0.268759;-0.630569;0.760753;1.15431;6.69658;2.76049;0;0.0181497;0.901078;1.5;-0.0181497;-0.901078;-1.56437;-2.20837;18.6487;-2.20837;675;650;1024;1024;1024;863;1024;1024;1024;1;3;0;0;0;0;0;0.0362994;1.1714;2.55; 
582;583;2019/09/06 18:52:53;0;-1;-1;-1;-1;-1;125;0;0;0;0;0;0;0;0;0;0;0;0;0;0;455.667;128.333;10.46;455.776;129.819;0;26;1;-0.155286;-0.656767;-1.98984;-0.160754;-0.641275;-1.9996;0.257784;-0.558599;0.708223;1.03401;6.62654;1.73668;0;0.0166385;0.906767;1.5;-0.0166385;-0.906767;-1.59738;-2.13281;18.7665;-2.13281;675;650;1024;1024;1024;863;1024;1024;1024;1;3;0;0;0;0;0;0.033277;1.1788;2.55; 
583;584;2019/09/06 18:52:53;0;-1;-1;-1;-1;-1;126;0;0;0;0;0;0;0;0;0;0;0;0;0;0;454.571;130;10.5056;455.048;131.559;0;27;1;-0.149409;-0.660545;-1.97687;-0.157351;-0.647056;-1.99278;0.24406;-0.504481;0.642172;0.761485;6.24009;0.510557;0;0.0151673;0.910545;1.5;-0.0151673;-0.910545;-1.60806;-2.03039;18.8446;-2.03039;675;650;1024;1024;1024;863;1024;1024;1024;1;3;0;0;0;0;0;0.0303347;1.18371;2.55; 
584;585;2019/09/06 18:52:53;0;-1;-1;-1;-1;-1;127;0;0;0;0;0;0;0;0;0;0;0;0;0;0;454;130.571;10.4255;454.354;132.937;0;28;1;-0.147823;-0.667913;-1.99057;-0.154492;-0.653313;-1.99212;0.230776;-0.462022;0.547054;0.448284;5.64911;-0.799466;0;0.0195866;0.917913;1.5;-0.0195866;-0.917913;-1.65316;-1.82022;18.9971;-1.82022;675;650;1024;1024;1024;863;1024;1024;1024;1;3;0;0;0;0;0;0.0391732;1.19329;2.55; 
585;586;2019/09/06 18:52:53;0;-1;-1;-1;-1;-1;128;0;0;0;0;0;0;0;0;0;0;0;0;0;0;454;131.429;10.4155;453.864;134.14;0;29;1;-0.147964;-0.671992;-1.99023;-0.152534;-0.658917;-1.99155;0.21026;-0.432461;0.439681;0.0969125;4.90565;-2.09199;0;0.0258671;0.921992;1.5;-0.0258671;-0.921992;-1.7008;-1.506;19.0815;-1.506;675;650;1024;1024;1024;863;1024;1024;1024;1;3;0;0;0;0;0;0.0517342;1.19859;2.55; 
586;587;2019/09/06 18:52:53;0;-1;-1;-1;-1;-1;129;0;0;0;0;0;0;0;0;0;0;0;0;0;0;453;133;10.4016;453.21;135.44;0;30;1;-0.143365;-0.679206;-1.98878;-0.149783;-0.665003;-1.99072;0.190816;-0.408856;0.346636;-0.259817;4.14467;-3.16395;0;0.0315581;0.929206;1.5;-0.0315581;-0.929206;-1.75498;-1.21314;19.2308;-1.21314;675;650;1024;1024;1024;863;1024;1024;1024;1;3;0;0;0;0;0;0.0631163;1.20797;2.55; 
587;588;2019/09/06 18:52:53;0;-1;-1;-1;-1;-1;130;0;0;0;0;0;0;0;0;0;0;0;0;0;0;451.667;134.333;10.3421;452.332;136.735;0;31;1;-0.137757;-0.688503;-1.99671;-0.146175;-0.672053;-1.99252;0.182056;-0.394706;0.25298;-0.502065;3.42851;-3.92572;0;0.0356339;0.938503;1.5;-0.0356339;-0.938503;-1.81119;-1.05249;19.4233;-1.05249;675;650;1024;1024;1024;863;1024;1024;1024;1;3;0;0;0;0;0;0.0712678;1.22005;2.55; 
588;589;2019/09/06 18:52:53;0;-1;-1;-1;-1;-1;131;0;0;0;0;0;0;0;0;0;0;0;0;0;0;450;135;10.2799;451.186;137.819;0;32;1;-0.130499;-0.695375;-2.00701;-0.141472;-0.67905;-1.99687;0.186219;-0.387643;0.162718;-0.586967;2.73967;-4.53343;0;0.0323126;0.945375;1.5;-0.0323126;-0.945375;-1.87057;-1.15515;19.5655;-1.15515;675;650;1024;1024;1024;863;1024;1024;1024;1;3;0;0;0;0;0;0.0646252;1.22899;2.55; 
589;590;2019/09/06 18:52:53;0;-1;-1;-1;-1;-1;132;0;0;0;0;0;0;0;0;0;0;0;0;0;0;448.333;135.667;10.418;449.847;138.749;0;33;1;-0.120787;-0.688836;-1.97867;-0.135267;-0.681986;-1.99141;0.199905;-0.372046;0.103124;-0.528472;2.17257;-4.87227;0;0.0193458;0.938836;1.5;-0.0193458;-0.938836;-1.89003;-1.53153;19.4302;-1.53153;675;650;1024;1024;1024;863;1024;1024;1024;1;3;0;0;0;0;0;0.0386916;1.22049;2.55; 
590;591;2019/09/06 18:52:53;0;401.152;317.879;8.3168;401.152;317.879;0;1;1;0.131782;-1.77861;-1.8814;0.131782;-1.77861;-1.8814;0;0;0;0;0;0;445.6;136.8;10.4165;448.031;139.715;0;34;1;-0.107711;-0.693485;-1.976;-0.127;-0.685436;-1.98679;0.22971;-0.35148;0.0831739;-0.321339;1.74489;-4.77546;1;0.129291;-0.835122;0.0377496;0.00249117;-0.943485;-1.91915;0.274282;-17.2837;0.274282;696.902;650;1024;1024;1024;863;1024;1024;1024;1;3;0;9.86811;0;0;0;0.258582;-1.08566;0.0641744; 
591;592;2019/09/06 18:52:53;0;403.933;313.8;8.30372;401.404;317.508;0;2;1;0.115273;-1.76088;-1.89775;0.126829;-1.77329;-1.88631;0;0;0;0;0;0;443;137;10.4486;445.912;140.414;0;35;1;-0.0949621;-0.692148;-1.96939;-0.117389;-0.687449;-1.98157;0.278148;-0.324808;0.0897811;0.0782456;1.47675;-4.26229;1;0.124338;-0.829803;0.0328438;0.00249117;-0.943485;-1.91915;0.18018;-17.1736;0.18018;696.902;650;1024;1024;1024;863;1024;1024;1024;1;3;0;0.0166968;0;0;0;0.248676;-1.07874;0.0558345; 
592;593;2019/09/06 18:52:53;0;407;310;8.28952;402.304;316.301;0;3;1;0.0970099;-1.74473;-1.9135;0.117883;-1.76472;-1.89446;0;0;0;0;0;0;440;137.429;10.2718;443.448;140.991;0;36;1;-0.0820234;-0.705811;-2.00216;-0.106779;-0.692958;-1.98775;0.338588;-0.306496;0.06575;0.636946;1.29474;-3.67885;1;0.115392;-0.821236;0.0246866;0.00249117;-0.943485;-1.91915;0.0102105;-16.9963;0.0102105;696.902;650;1024;1024;1024;863;1024;1024;1024;1;3;0;0.0166978;0;0;0;0.230785;-1.06761;0.0419672; 
593;594;2019/09/06 18:52:53;0;409.935;306.387;8.3084;403.892;314.238;0;4;1;0.0791591;-1.72259;-1.921;0.106266;-1.75208;-1.90242;0;0;0;0;0;0;438.4;137.2;10.3159;441.179;141.274;0;37;1;-0.0739333;-0.701868;-1.99421;-0.0969254;-0.695631;-1.98968;0.399789;-0.278033;0.050764;1.25149;1.24267;-3.01468;1;0.103775;-0.808597;0.0167252;0.00249117;-0.943485;-1.91915;-0.210518;-16.7347;-0.210518;696.902;650;847;888;1024;863;1024;1024;1024;1;3;0;0.0166968;0;0;0;0.20755;-1.05118;0.0284328; 
594;595;2019/09/06 18:52:53;0;412.909;302.182;8.31896;406.039;311.368;0;5;1;0.0612221;-1.69928;-1.93234;0.0927529;-1.73624;-1.9114;0;0;0;0;0;0;435.6;137.2;10.3918;438.674;141.417;0;38;1;-0.0599479;-0.696738;-1.97963;-0.0858321;-0.695963;-1.98667;0.462024;-0.234347;0.0711704;1.85208;1.35766;-2.17432;1;0.106816;-0.789502;0.0624083;-0.0140628;-0.946738;-1.97381;-2.35973;-16.3395;-2.35973;696.902;650;847;888;1024;863;1024;1024;1024;1;3;0;0.0166978;0;0;0;0.213631;-1.02635;0.106094; 
595;596;2019/09/06 18:52:53;0;415.871;298.581;8.34538;408.564;308.083;0;6;1;0.0433182;-1.67586;-1.93799;0.0779225;-1.71813;-1.91938;0;0;0;0;0;0;432;137;10.4652;435.748;141.397;0;39;1;-0.0423621;-0.691054;-1.96627;-0.0727911;-0.69449;-1.98055;0.526656;-0.190533;0.0860524;2.41584;1.5393;-1.37275;1;0.0673206;-0.777072;0.0387412;0.0106019;-0.941054;-1.95812;-3.72414;-16.0823;-3.72414;696.902;650;847;888;1024;863;1024;1024;1024;1;3;0;0.016697;0;0;0;0.134641;-1.01019;0.0658601; 
596;597;2019/09/06 18:52:53;0;418.938;294.375;8.3429;411.356;304.394;0;7;1;0.0249898;-1.65529;-1.9523;0.0620427;-1.69928;-1.92925;0;0;0;0;0;0;430;136.571;10.4747;433.024;141.187;0;40;1;-0.032796;-0.688716;-1.9656;-0.0607926;-0.692758;-1.97607;0.580335;-0.143555;0.0944281;2.84942;1.75375;-0.778719;1;0.0344411;-0.760559;0.0264809;0.0276016;-0.938716;-1.95573;-4.8588;-15.7405;-4.8588;696.902;650;847;888;1024;863;1024;1024;1024;1;3;0;0.0166978;0;0;0;0.0688822;-0.988727;0.0450176; 
597;598;2019/09/06 18:52:53;0;422.125;290.375;8.30305;414.351;300.495;0;8;1;0.00595351;-1.6431;-1.9748;0.0452159;-1.68242;-1.94292;-0.743517;0.837907;-0.512628;-2.96859;3.34546;-2.04674;428.571;136;10.3962;430.634;140.798;0;41;1;-0.0261868;-0.691618;-1.98194;-0.0504108;-0.692416;-1.97783;0.615618;-0.105963;0.0715796;3.05704;1.92602;-0.539903;1;0.00232467;-0.740803;0.0277832;0.0428913;-0.941618;-1.9707;-12.8676;-1.99218;-12.8676;696.902;650;847;888;1024;863;1024;1024;1024;1;3;0;0.0166968;0;0;0;0.00464935;-0.963045;0.0472314; 
598;599;2019/09/06 18:52:53;0;425;286;8.35574;417.393;296.358;0;9;1;-0.0112533;-1.61085;-1.97662;0.0282752;-1.66095;-1.95303;-0.803884;0.917062;-0.541414;-4.99077;5.66877;-3.38971;426;135;10.3557;428.125;140.145;0;42;1;-0.0138986;-0.690288;-1.99233;-0.0394572;-0.691778;-1.98218;0.638162;-0.0588659;0.0651726;3.03031;2.1443;-0.326247;1;-0.029307;-0.720662;0.0309881;0.0575822;-0.940288;-1.98402;-14.2563;-0.315203;-14.2563;696.902;650;847;888;1024;863;1024;1024;1024;1;3;0;0.0166978;0;0;0;-0.058614;-0.936861;0.0526798; 
599;600;2019/09/06 18:52:53;0;428.194;282.323;8.32046;420.554;292.248;0;10;1;-0.0304534;-1.59921;-1.99705;0.0106566;-1.64243;-1.96624;-0.864064;0.988047;-0.579625;-6.44436;7.34617;-4.34806;424;134.571;10.4971;425.715;139.484;0;43;1;-0.00420398;-0.679281;-1.9666;-0.0288812;-0.688029;-1.9775;0.654572;-0.00496722;0.0877331;2.83544;2.37683;-0.0481444;1;-0.0594324;-0.713147;-0.00722528;0.070089;-0.929281;-1.95901;-15.5563;0.970423;-15.5563;696.902;650;847;888;1024;863;1024;1024;1024;1;3;0;0.0166968;0;0;0;-0.118865;-0.927091;-0.012283; 
600;601;2019/09/06 18:52:53;0;431;278;8.34325;423.689;287.979;0;11;1;-0.0471552;-1.57318;-2.00572;-0.00668695;-1.62165;-1.97808;-0.915465;1.05033;-0.614004;-7.52172;8.60127;-5.06032;422.25;133.75;10.4731;423.459;138.696;0;44;1;0.00412437;-0.677565;-1.97326;-0.0189795;-0.684889;-1.97623;0.65966;0.0412318;0.0943184;2.49035;2.52638;0.0635346;1;-0.0853877;-0.69409;-0.0148177;0.0787007;-0.927565;-1.96326;-16.5861;2.35632;-16.5861;696.902;650;847;888;1024;863;1024;1024;1024;1;3;0;0.016698;0;0;0;-0.170775;-0.902317;-0.0251901; 
601;602;2019/09/06 18:52:53;0;434;274;8.38209;426.862;283.683;0;12;1;-0.0647962;-1.54595;-2.00943;-0.0241197;-1.59894;-1.98748;-0.956697;1.10605;-0.64034;-8.33278;9.57683;-5.59284;421.2;132.4;10.4015;421.538;137.651;0;45;1;0.00918995;-0.676803;-1.99038;-0.0105287;-0.682463;-1.98047;0.644386;0.0727573;0.0568985;1.96426;2.56705;-0.0782794;1;-0.106446;-0.67214;-0.00756657;0.0823267;-0.926803;-1.97992;-17.2328;3.69775;-17.2328;696.902;650;847;888;1024;863;1024;1024;1024;1;3;0;0.0166968;0;0;0;-0.212893;-0.873782;-0.0128632; 
602;603;2019/09/06 18:52:53;0;436.914;269.829;8.35697;430.039;279.316;0;13;1;-0.0823922;-1.52973;-2.02908;-0.0416015;-1.57818;-1.99996;-0.987831;1.14712;-0.666518;-8.94372;10.3261;-6.01687;420;131;10.3836;419.815;136.407;0;46;1;0.0149726;-0.672335;-1.99748;-0.00287829;-0.679425;-1.98558;0.617862;0.0968881;-0.00383184;1.32839;2.50023;-0.439283;1;-0.126916;-0.655845;-0.00868976;0.085315;-0.922335;-1.99127;-17.6655;4.68881;-17.6655;696.902;650;847;888;1024;863;1024;1024;1024;1;3;0;0.0166978;0;0;0;-0.253833;-0.852598;-0.0147726; 
603;604;2019/09/06 18:52:53;0;440.057;265.543;8.38879;433.288;274.86;0;14;1;-0.100775;-1.50258;-2.03531;-0.0593534;-1.5555;-2.01057;-1.01021;1.19503;-0.670001;-6.43102;7.62154;-4.23845;418;130.5;10.4625;417.983;135.308;0;47;1;0.0243984;-0.665263;-1.98371;0.00530472;-0.675176;-1.98502;0.593168;0.126964;-0.0309989;0.7074;2.43013;-0.673127;1;-0.149606;-0.640236;-0.0264454;0.0902531;-0.915263;-1.98412;-18.0746;5.77456;-18.0746;696.902;650;847;888;1024;863;1024;1024;1024;1;3;0;0.0166968;0;0;0;-0.299213;-0.832306;-0.0449572; 
604;605;2019/09/06 18:52:53;0;442.649;261.405;8.37682;436.43;270.379;0;15;1;-0.116356;-1.48408;-2.05168;-0.0764542;-1.53407;-2.0229;-1.02427;1.2236;-0.68096;-4.73853;5.7968;-3.10023;417;129;10.4039;416.391;134.001;0;48;1;0.0293322;-0.662987;-1.99882;0.012513;-0.67152;-1.98916;0.563398;0.157061;-0.0464695;0.125936;2.32019;-0.849621;1;-0.167789;-0.621085;-0.020833;0.0913352;-0.912987;-2.00207;-18.2708;6.62567;-18.2708;696.902;650;847;888;1024;863;1024;1024;1024;1;3;0;0.0166978;0;0;0;-0.335579;-0.807411;-0.0354161; 
605;606;2019/09/06 18:52:53;0;445.027;257.189;8.42488;439.431;265.855;0;16;1;-0.129779;-1.45469;-2.05361;-0.0924516;-1.51026;-2.03211;-1.02623;1.26186;-0.671597;-3.49061;4.5713;-2.22734;416.333;127.667;10.3619;415.08;132.599;0;49;1;0.0326615;-0.660295;-2.01043;0.0185575;-0.668152;-1.99554;0.527443;0.173595;-0.0998935;-0.432014;2.10505;-1.25889;1;-0.182132;-0.599964;-0.0169785;0.0896807;-0.910295;-2.01513;-18.2205;7.6719;-18.2205;696.902;650;847;888;1024;863;1024;1024;1024;1;3;0;0.016697;0;0;0;-0.364265;-0.779953;-0.0288635; 
606;607;2019/09/06 18:52:53;0;447.158;253.053;8.44545;442.255;261.321;0;17;1;-0.142053;-1.43068;-2.06196;-0.107332;-1.48639;-2.04107;-1.01758;1.29719;-0.654443;-2.50207;3.72843;-1.49787;415;127;10.3052;413.76;131.343;0;50;1;0.0392975;-0.661225;-2.02326;0.0247795;-0.666074;-2.00386;0.49118;0.17928;-0.170233;-0.931887;1.8142;-1.81159;1;-0.14663;-0.825161;-0.0178106;0.0392975;-0.661225;-2.02326;-16.5274;-8.80771;-16.5274;696.902;1820;847;888;1024;863;1024;1024;1024;1;3;0;0.0166978;0;0;0;-0.293259;-1.07271;-0.030278; 
607;608;2019/09/06 18:52:53;0;449.35;249.35;8.45588;444.966;256.91;0;18;1;-0.154814;-1.41061;-2.07135;-0.121577;-1.46365;-2.05015;-0.999659;1.31848;-0.642877;-1.67278;3.0852;-0.908849;414.667;126.667;10.4333;412.754;130.304;0;51;1;0.0404091;-0.651766;-1.99927;0.0294684;-0.661782;-2.00248;0.454401;0.190142;-0.190004;-1.31767;1.5572;-2.07274;1;-0.161986;-0.811887;-0.0508804;0.0404091;-0.651766;-1.99927;-16.6185;-8.09517;-16.6185;696.902;1820;847;888;1024;863;1024;1024;1024;1;3;0;0.0166968;0;0;0;-0.323972;-1.05545;-0.0864967; 
608;609;2019/09/06 18:52:53;0;451.317;245.561;8.47343;447.526;252.563;0;19;1;-0.166077;-1.389;-2.07925;-0.134927;-1.44126;-2.05888;-0.97241;1.33777;-0.620974;-0.942093;2.61229;-0.363467;414;125;10.3974;411.868;129;0;52;1;0.0437481;-0.647318;-2.01055;0.0337523;-0.657443;-2.0049;0.418893;0.201852;-0.191156;-1.58501;1.3534;-1.99156;1;-0.178675;-0.79394;-0.0483344;0.0437481;-0.647318;-2.01055;-16.6832;-7.34078;-16.6832;696.902;1820;847;888;1024;863;1024;1024;1024;1;3;0;0.0166978;0;0;0;-0.35735;-1.03212;-0.0821684; 
609;610;2019/09/06 18:52:53;0;453.209;241.86;8.48908;449.951;248.292;0;20;1;-0.176894;-1.36822;-2.0873;-0.147517;-1.41935;-2.06741;-0.935451;1.34627;-0.599534;-0.266786;2.17121;0.0632674;414.667;123.333;10.3772;411.494;127.508;0;53;1;0.0406277;-0.641866;-2.01884;0.0358149;-0.65277;-2.00908;0.373151;0.210573;-0.210782;-1.82945;1.14586;-1.91274;1;-0.188145;-0.77748;-0.048564;0.0406277;-0.641866;-2.01884;-16.4055;-6.80937;-16.4055;696.902;1820;847;888;1024;863;1024;1024;1024;1;3;0;0.0166968;0;0;0;-0.376289;-1.01072;-0.0825587; 
610;611;2019/09/06 18:52:53;0;454.667;238.615;8.50924;452.144;244.216;0;21;1;-0.185021;-1.34904;-2.09275;-0.158768;-1.39825;-2.07501;-0.88992;1.35003;-0.567783;0.376337;1.80755;0.489834;414;122.571;10.2134;411.065;126.17;0;54;1;0.0445364;-0.649043;-2.05326;0.0384314;-0.651652;-2.02234;0.327373;0.205668;-0.258929;-2.04003;0.881585;-1.99591;1;-0.203305;-0.749211;-0.0217526;0.0445364;-0.649043;-2.05326;-16.2369;-6.09762;-16.2369;696.902;1820;847;888;1024;863;1024;1024;1024;1;3;0;0.016698;0;0;0;-0.406609;-0.973974;-0.0369794; 
611;612;2019/09/06 18:52:53;0;455.65;234.75;8.51484;454.021;240.096;0;22;1;-0.190662;-1.32918;-2.10375;-0.168336;-1.37753;-2.08363;-0.836932;1.33996;-0.546363;0.981619;1.39636;0.793912;413.333;121.333;10.2225;410.595;124.795;0;55;1;0.0477511;-0.643404;-2.05474;0.0412273;-0.649178;-2.03206;0.286936;0.19916;-0.301146;-2.18427;0.631023;-2.00107;1;-0.216087;-0.734126;-0.0288954;0.0477511;-0.643404;-2.05474;-15.9095;-5.86376;-15.9095;696.902;1820;847;888;1024;863;1024;1024;1024;1;3;0;0.0166968;0;0;0;-0.432175;-0.954364;-0.0491221; 
612;613;2019/09/06 18:52:53;0;456.829;231.171;8.56861;455.724;236.034;0;23;1;-0.196333;-1.30338;-2.10193;-0.176735;-1.35528;-2.08912;-0.779261;1.32741;-0.519679;1.54049;0.958475;1.01441;413;121;10.2842;410.2;123.686;0;56;1;0.0490819;-0.638189;-2.04329;0.0435837;-0.645881;-2.03543;0.247239;0.20012;-0.306735;-2.28453;0.461819;-1.74565;1;-0.225817;-0.717095;-0.0458317;0.0490819;-0.638189;-2.04329;-15.4896;-5.61663;-15.4896;696.902;1820;847;888;1024;863;1024;1024;1024;1;3;0;0.0166978;0;0;0;-0.451635;-0.932224;-0.0779139; 
613;614;2019/09/06 18:52:53;0;457.22;227.512;8.61977;457.057;231.992;0;24;1;-0.197427;-1.2779;-2.10102;-0.182943;-1.33207;-2.09269;-0.712569;1.32182;-0.48165;2.07054;0.588424;1.25237;414.667;119.333;10.2199;410.496;122.346;0;57;1;0.041253;-0.635387;-2.06059;0.0428845;-0.642733;-2.04297;0.201909;0.196128;-0.345714;-2.37882;0.300989;-1.66908;1;-0.224196;-0.696682;-0.0321059;0.041253;-0.635387;-2.06059;-14.6301;-5.29332;-14.6301;696.902;1820;847;888;1024;863;1024;1024;1024;1;3;0;0.0166968;0;0;0;-0.448392;-0.905687;-0.0545801; 
614;615;2019/09/06 18:52:53;0;457.1;223.4;8.75012;457.959;227.827;0;25;1;-0.193804;-1.23922;-2.08253;-0.186201;-1.30421;-2.08964;-0.632262;1.34026;-0.411812;2.60041;0.363;1.58653;414;118.5;10.0211;410.546;121.107;0;58;1;0.0453909;-0.644515;-2.10373;0.0436364;-0.643267;-2.0612;0.160609;0.174274;-0.432209;-2.45852;0.0704825;-1.96389;1;-0.231592;-0.659699;0.0140827;0.0453909;-0.644515;-2.10373;-14.0041;-4.12586;-14.0041;696.902;1820;847;888;1024;863;1024;1024;1024;1;3;0;0.0166978;0;0;0;-0.463184;-0.857609;0.0239405; 
615;616;2019/09/06 18:52:53;0;456.65;219.1;8.98741;458.443;223.516;0;26;1;-0.186189;-1.1865;-2.04059;-0.186198;-1.2689;-2.07493;-0.533794;1.40483;-0.277117;3.16391;0.451602;2.23921;414;117;10.091;410.629;119.732;0;59;1;0.0450764;-0.633836;-2.0932;0.0440684;-0.640438;-2.0708;0.129318;0.153801;-0.505739;-2.44865;-0.18438;-2.35598;1;-0.231274;-0.635065;0.018275;0.0450764;-0.633836;-2.0932;-13.002;-2.48227;-13.002;696.902;1820;847;888;1024;863;1024;1024;1024;1;3;0;0.016697;0;0;0;-0.462548;-0.825584;0.0310675; 
616;617;2019/09/06 18:52:53;0;454.955;213.682;9.08142;458.235;218.755;0;27;1;-0.174946;-1.14928;-2.03573;-0.182822;-1.23302;-2.06317;-0.416315;1.50263;-0.118994;3.78928;0.880225;3.13537;414.8;115.6;9.99409;410.989;118.292;0;60;1;0.0415194;-0.634129;-2.11733;0.0433037;-0.638545;-2.08476;0.0970445;0.14461;-0.552673;-2.3888;-0.354411;-2.5864;1;-0.224341;-0.598887;0.0541563;0.0415194;-0.634129;-2.11733;-11.5917;-0.0909972;-11.5917;696.902;1820;847;888;1024;863;1024;1024;1024;1;3;0;0.0166978;0;0;0;-0.448683;-0.778552;0.0920657; 
617;618;2019/09/06 18:52:53;0;452.744;208.419;9.20227;457.361;213.716;0;28;1;-0.160662;-1.11028;-2.02459;-0.176174;-1.1962;-2.05159;-0.281082;1.62558;0.0565147;4.49288;1.66852;4.2883;416;115;9.96269;411.674;117.062;0;61;1;0.0356398;-0.63361;-2.12564;0.0410045;-0.637065;-2.09702;0.0573374;0.135128;-0.590994;-2.34998;-0.468303;-2.70909;1;-0.211814;-0.562586;0.0740466;0.0356398;-0.63361;-2.12564;-9.80705;2.67944;-9.80705;696.902;1820;847;888;1024;863;1024;1024;1024;1;3;0;0.0166968;0;0;0;-0.423628;-0.731361;0.125879; 
618;619;2019/09/06 18:52:53;0;449.362;202.681;9.38937;455.635;208.328;0;29;1;-0.139485;-1.06262;-2.0009;-0.165167;-1.15612;-2.03639;-0.122462;1.77053;0.244462;5.31809;2.77031;5.62391;417.2;114.4;9.892;412.593;115.988;0;62;1;0.0298411;-0.635603;-2.14248;0.0376555;-0.636626;-2.11066;0.0107335;0.118027;-0.654985;-2.35427;-0.608745;-3.01589;1;-0.195008;-0.520519;0.106099;0.0298411;-0.635603;-2.14248;-7.59669;6.10018;-7.59669;696.902;1820;847;888;1024;863;1024;1024;1024;1;3;0;0.0166978;0;0;0;-0.390017;-0.676675;0.180368; 
619;620;2019/09/06 18:52:53;0;445.333;196.125;9.5357;453.089;202.436;0;30;1;-0.116264;-1.01758;-1.98893;-0.150496;-1.11456;-2.02215;0.0560703;1.93076;0.428325;6.25975;4.09345;7.00755;418;113;9.86538;413.551;114.772;0;63;1;0.0258752;-0.631387;-2.15213;0.0341214;-0.635054;-2.1231;-0.0285475;0.101473;-0.712918;-2.33269;-0.743169;-3.27564;1;-0.176371;-0.483172;0.129984;0.0258752;-0.631387;-2.15213;-5.12297;9.62757;-5.12297;696.902;650;847;888;1024;863;1024;1024;1024;1;3;0;0.0166968;0;0;0;-0.352743;-0.628123;0.220973; 
620;621;2019/09/06 18:52:53;0;440.24;188.56;9.785;449.612;195.864;0;31;1;-0.0873277;-0.959335;-1.95933;-0.131546;-1.06799;-2.0033;0.251869;2.10163;0.601729;7.28597;5.49605;8.25135;418.5;112;9.91361;414.438;113.584;0;64;1;0.0232326;-0.624099;-2.14441;0.0308548;-0.631768;-2.1295;-0.0681623;0.106798;-0.70044;-2.31304;-0.715316;-3.03636;1;-0.154778;-0.443893;0.141109;0.0232326;-0.624099;-2.14441;-2.33242;13.5591;-2.33242;696.902;671;1110;1328;1024;863;1024;1024;1024;1;3;0;0.0166948;0;0;0;-0.309557;-0.577061;0.239884; 
621;622;2019/09/06 18:52:53;0;433.962;180.566;10.0982;445.091;188.666;0;32;1;-0.0535983;-0.896495;-1.92014;-0.108161;-1.01654;-1.97836;0.462701;2.26859;0.746628;8.35035;6.74642;9.03838;420;111;9.84112;415.589;112.417;0;65;1;0.0157979;-0.624448;-2.16298;0.0263377;-0.629572;-2.13954;-0.111692;0.107464;-0.694723;-2.35011;-0.614201;-2.57638;1;-0.123959;-0.392094;0.184621;0.0157979;-0.624448;-2.16298;1.15016;18.6672;1.15016;696.902;672;1165;1371;1024;863;1024;1024;1024;1;3;0;0.0166968;0;0;0;-0.247919;-0.509722;0.313855; 
622;623;2019/09/06 18:52:53;0;426;171;10.4646;439.285;180.524;0;33;1;-0.0137539;-0.826892;-1.87782;-0.0798392;-0.959648;-1.9482;0.688806;2.45265;0.90704;9.4227;7.84103;9.51974;420.667;110.667;9.91165;416.663;111.481;0;66;1;0.0123292;-0.618599;-2.1485;0.0221352;-0.62628;-2.14223;-0.151536;0.113449;-0.6463;-2.40259;-0.492939;-1.91966;1;-0.0921684;-0.341048;0.200307;0.0123292;-0.618599;-2.1485;4.93355;24.2433;4.93355;696.902;658;1223;1399;1024;863;1024;1024;1024;1;3;0;0.0166978;0;0;0;-0.184337;-0.443363;0.340522; 
623;624;2019/09/06 18:52:53;0;417.032;160.935;10.7541;432.233;171.546;0;34;1;0.0282273;-0.765519;-1.85279;-0.0474192;-0.901409;-1.91957;0.927372;2.6486;1.07135;10.4787;8.7893;9.76385;420.4;109.2;9.806;417.38;110.351;0;67;1;0.0138191;-0.619013;-2.17573;0.0196403;-0.6241;-2.15228;-0.176223;0.119834;-0.608403;-2.3741;-0.356827;-1.22131;1;-0.0612383;-0.282396;0.256156;0.0138191;-0.619013;-2.17573;8.7921;31.0639;8.7921;696.902;654;1281;1430;1024;863;1024;1024;1024;1;3;0;0.0166968;0;0;0;-0.122477;-0.367115;0.435465; 
624;625;2019/09/06 18:52:53;0;406.169;149.606;11.2782;423.686;161.568;0;35;1;0.0749792;-0.687954;-1.79406;-0.0106997;-0.837372;-1.88192;1.17318;2.86186;1.25955;11.4604;9.63099;9.91133;420;108;9.79896;417.792;109.166;0;68;1;0.0158659;-0.614339;-2.18063;0.018508;-0.621172;-2.16078;-0.182185;0.133607;-0.565168;-2.19474;-0.15189;-0.374165;1;-0.0210612;0.0118923;0.345821;0.0103615;-0.849265;-2.22774;12.4758;45.8069;12.4758;696.902;305;1335;1365;1024;863;1024;1024;1024;1;3;0;0.0166978;0;0;0;-0.0421224;0.0154599;0.587897; 
625;626;2019/09/06 18:52:53;0;394.225;136.425;11.6114;413.722;150.289;0;36;1;0.124157;-0.620769;-1.77353;0.0297574;-0.772391;-1.8494;1.42362;3.08331;1.44547;12.3365;10.3805;10.008;420;107;9.92673;418.11;108.008;0;69;1;0.0156617;-0.602221;-2.15531;0.0176541;-0.615486;-2.15914;-0.175061;0.158295;-0.48299;-1.90183;0.135742;0.693544;1;0.0232413;0.0798293;0.334275;0.00651604;-0.852221;-2.18368;15.629;50.7384;15.629;696.902;305;1363;1365;1024;863;1024;1024;1024;1;3;0;0.0166968;0;0;0;0.0464827;0.103778;0.568268; 
626;627;2019/09/06 18:52:53;0;381.388;121.929;12.2628;402.458;137.658;0;37;1;0.169796;-0.538382;-1.71153;0.0717691;-0.702189;-1.80804;1.66593;3.3105;1.6469;13.0477;11.0548;10.1778;419.2;106.4;9.8591;418.102;106.998;0;70;1;0.0198181;-0.603808;-2.17175;0.0183033;-0.611983;-2.16292;-0.15515;0.17397;-0.423258;-1.48841;0.349639;1.52281;1;0.0614606;0.151619;0.389946;0.0103086;-0.853808;-2.19799;18.468;55.8411;18.468;696.902;305;1363;1365;1024;863;1024;1024;1024;1;3;0;0.016698;0;0;0;0.122921;0.197105;0.662908; 
627;628;2019/09/06 18:52:53;0;366.533;105.378;12.8072;389.626;123.409;0;38;1;0.220458;-0.461482;-1.67401;0.116376;-0.629977;-1.76783;1.89605;3.52972;1.82868;13.5515;11.6682;10.4269;418.4;105.2;9.82373;417.856;105.905;0;71;1;0.0239531;-0.600877;-2.1829;0.0199982;-0.608651;-2.16892;-0.118401;0.187911;-0.371243;-0.919833;0.53098;2.20522;1;0.101465;0.2209;0.439734;0.0149111;-0.850877;-2.20757;21.0652;60.7648;21.0652;696.902;305;1364;1365;1024;863;1024;1024;1024;1;3;0;0.0166968;0;0;0;0.202929;0.28717;0.747548; 
628;629;2019/09/06 18:52:53;0;350.805;88.2069;13.5054;375.394;107.8;0;39;1;0.267174;-0.38448;-1.62212;0.161615;-0.556328;-1.72412;2.10167;3.72814;1.99187;13.772;12.0935;10.5875;417;105;9.90952;417.246;105.072;0;72;1;0.0307955;-0.594831;-2.16455;0.0232374;-0.604505;-2.16761;-0.0666398;0.199687;-0.324072;-0.212943;0.662902;2.60967;1;0.138132;0.288503;0.463363;0.023483;-0.844831;-2.18748;23.2235;65.3229;23.2235;696.902;305;1364;1365;1024;863;1024;1024;1024;1;3;0;0.0166978;0;0;0;0.276264;0.375054;0.787717; 
629;630;2019/09/06 18:52:53;0;333.403;68.2078;14.46;359.634;90.3266;0;40;1;0.309589;-0.301291;-1.55273;0.206007;-0.479817;-1.6727;2.27284;3.92015;2.18079;13.6352;12.3329;10.7821;416;103;9.87217;416.5;103.854;0;73;1;0.0359666;-0.588614;-2.17826;0.0270562;-0.599738;-2.1708;-0.0103752;0.217081;-0.268407;0.534404;0.786012;2.92328;1;0.174378;0.358797;0.526655;0.031629;-0.838614;-2.19936;25.0038;69.8344;25.0038;696.902;305;1365;1365;1024;863;1024;1024;1024;1;3;0;0.0166968;0;0;0;0.348757;0.466436;0.895314; 
630;631;2019/09/06 18:52:53;0;314.571;46.0779;15.1809;342.332;70.8411;0;41;1;0.356787;-0.226054;-1.51874;0.251241;-0.403688;-1.62651;2.40954;4.08364;2.32822;13.1175;12.2779;10.736;413.667;102.333;9.83621;415.231;102.783;0;74;1;0.0479353;-0.587933;-2.18807;0.0333199;-0.596196;-2.17599;0.0529133;0.229966;-0.221738;1.2593;0.856332;3.12515;1;0.204008;0.434245;0.579715;0.0472336;-0.837933;-2.20623;26.2641;73.9986;26.2641;696.902;305;1365;1365;1024;863;1024;1024;1024;1;3;0;0.0166978;0;0;0;0.408015;0.564519;0.985516; 
631;632;2019/09/06 18:52:53;0;295.692;23.4615;15.7798;323.919;49.7625;0;42;1;0.402944;-0.157567;-1.50015;0.296752;-0.329851;-1.5886;2.51174;4.21708;2.43821;12.215;11.8935;10.4053;411;101;9.8153;413.476;101.607;0;75;1;0.0615944;-0.583507;-2.19644;0.0418022;-0.59239;-2.18212;0.128162;0.230197;-0.224794;1.96624;0.800877;2.90597;1;0.231481;0.503656;0.623242;0.0652713;-0.833507;-2.21185;27.0421;77.5596;27.0421;696.902;305;1365;1365;1024;863;1024;1024;1024;1;3;0;0.0166968;0;0;0;0.462961;0.654752;1.05951; 
632;633;2019/09/06 18:52:53;0;285.481;8.74074;16.2516;307.474;30.0562;0;43;1;0.4226;-0.115133;-1.4813;0.334507;-0.265436;-1.55641;2.55606;4.27405;2.46759;10.8829;10.9832;9.51989;409;99;10.0877;411.584;100.144;0;76;1;0.0698243;-0.559464;-2.14253;0.0502089;-0.582512;-2.17024;0.204284;0.255785;-0.164105;2.61483;0.807182;2.77828;1;0.255704;0.544028;0.601868;0.078803;-0.809464;-2.15828;27.2002;79.302;27.2002;696.902;305;1365;1365;1024;863;1024;1024;1024;1;3;0;0.016698;0;0;0;0.511407;0.707237;1.02318; 
633;634;2019/09/06 18:52:53;0;280;0;16.6066;302.709;22.8153;1;0;1;0.4226;-0.115133;-1.4813;0.334507;-0.265436;-1.55641;2.55606;4.27405;2.46759;10.8829;10.9832;9.51989;408.4;98.8;10.0082;410.042;99.0469;0;77;1;0.0733702;-0.56307;-2.16009;0.0571573;-0.576679;-2.1672;0.270933;0.281122;-0.091596;3.12336;0.856464;2.7835;1;0.246982;0.547634;0.615042;0.0875244;-0.81307;-2.17146;26.4014;79.3766;26.4014;696.902;305;1365;1365;1024;863;1024;1024;1024;1;3;0;0.016698;0;0;0;0.493964;0.711924;1.04557; 
634;635;2019/09/06 18:52:53;0;280;0;16.6066;297.943;15.574;2;0;1;0.4226;-0.115133;-1.4813;0.334507;-0.265436;-1.55641;2.55606;4.27405;2.46759;10.8829;10.9832;9.51989;406;97;10.0172;408.182;97.7071;0;78;1;0.0852602;-0.555058;-2.16306;0.0655881;-0.570193;-2.16596;0.33165;0.305669;-0.0483627;3.46424;0.937025;2.7709;1;0.230685;0.539622;0.612921;0.103822;-0.805058;-2.16933;25.5149;79.2108;25.5149;696.902;305;1365;1365;1024;863;1024;1024;1024;1;3;0;0.016698;0;0;0;0.46137;0.701509;1.04197; 
635;636;2019/09/06 18:52:53;0;280;0;16.6066;293.178;8.33317;3;0;1;0.4226;-0.115133;-1.4813;0.334507;-0.265436;-1.55641;2.55606;4.27405;2.46759;10.8829;10.9832;9.51989;404.667;95.3333;10.1282;406.434;96.2346;0;79;1;0.0908948;-0.542096;-2.14383;0.0731801;-0.561764;-2.15932;0.383146;0.335017;0.0168371;3.64972;1.03309;2.80141;1;0.221078;0.52666;0.590708;0.113429;-0.792096;-2.14712;24.8431;78.9426;24.8431;696.902;305;1365;1365;1024;863;1024;1024;1024;1;3;0;0.016698;0;0;0;0.442156;0.684658;1.0042; 
636;637;2019/09/06 18:52:53;0;280;0;16.6066;288.412;1.09189;4;0;1;0.4226;-0.115133;-1.4813;0.334507;-0.265436;-1.55641;2.55606;4.27405;2.46759;10.8829;10.9832;9.51989;403.333;94.6667;10.0992;404.769;94.9861;0;80;1;0.0977434;-0.540891;-2.15178;0.0805491;-0.555502;-2.15706;0.418456;0.363487;0.085671;3.64931;1.15295;2.90822;1;0.210974;0.525456;0.594237;0.123533;-0.790891;-2.15065;24.3157;78.9176;24.3157;696.902;305;1365;1365;1024;863;1024;1024;1024;1;3;0;0.016698;0;0;0;0.421948;0.683092;1.0102; 
637;638;2019/09/06 18:52:54;0;280;0;16.6066;283.647;-6.14908;5;0;1;0.4226;-0.115133;-1.4813;0.334507;-0.265436;-1.55641;2.55606;4.27405;2.46759;10.8829;10.9832;9.51989;404;93;9.99725;403.805;93.5824;0;81;1;0.0954128;-0.53944;-2.17827;0.0850082;-0.550683;-2.16342;0.423578;0.384608;0.126056;3.36907;1.30828;3.14574;1;0.211164;0.524004;0.616143;0.123342;-0.78944;-2.17256;24.2707;78.8876;24.2707;696.902;305;1365;1365;1024;863;1024;1024;1024;1;3;0;0.016698;0;0;0;0.422329;0.681206;1.04744; 
638;639;2019/09/06 18:52:54;0;280;0;16.6066;278.881;-13.3904;6;0;1;0.4226;-0.115133;-1.4813;0.334507;-0.265436;-1.55641;2.55606;4.27405;2.46759;10.8829;10.9832;9.51989;404;91.5;9.83859;403.138;92.1204;0;82;1;0.0969514;-0.541767;-2.21756;0.0885912;-0.548008;-2.17966;0.407393;0.368524;0.0380284;2.83238;1.23509;2.69449;1;0.20939;0.526331;0.652762;0.125117;-0.791767;-2.20917;24.3907;78.9358;24.3907;696.902;305;1365;1365;1024;863;1024;1024;1024;1;3;0;0.016698;0;0;0;0.418779;0.68423;1.1097; 
639;640;2019/09/06 18:52:54;0;280;0;16.6066;274.116;-20.6312;7;0;1;0.4226;-0.115133;-1.4813;0.334507;-0.265436;-1.55641;2.55606;4.27405;2.46759;10.8829;10.9832;9.51989;403.5;90;10.0142;402.527;90.6173;0;83;1;0.0977423;-0.526003;-2.18274;0.0913365;-0.541407;-2.18059;0.380901;0.361944;-0.0306463;2.13849;1.06375;1.86004;1;0.209442;0.510567;0.62378;0.125065;-0.776003;-2.18019;24.6434;78.6095;24.6434;696.902;305;1365;1365;1024;863;1024;1024;1024;1;3;0;0.016698;0;0;0;0.418883;0.663738;1.06043; 
640;641;2019/09/06 18:52:54;0;280;0;16.6066;269.351;-27.8725;8;0;1;0.4226;-0.115133;-1.4813;0.334507;-0.265436;-1.55641;2.55606;4.27405;2.46759;10.8829;10.9832;9.51989;403.333;88.6667;10.0633;402.062;89.1388;0;84;1;0.098092;-0.5179;-2.17571;0.0933631;-0.534355;-2.17912;0.339436;0.360255;-0.070964;1.31418;0.856193;1.02579;1;0.210669;0.502464;0.621367;0.123838;-0.7679;-2.17778;25.0606;78.4418;25.0606;696.902;305;1365;1365;1024;863;1024;1024;1024;1;3;0;0.016698;0;0;0;0.421337;0.653203;1.05632; 
641;642;2019/09/06 18:52:54;0;280;0;16.6066;264.585;-35.1134;9;0;1;0.4226;-0.115133;-1.4813;0.334507;-0.265436;-1.55641;2.55606;4.27405;2.46759;10.8829;10.9832;9.51989;405;87;9.93744;402.289;87.5732;0;85;1;0.0909657;-0.517451;-2.20784;0.0926439;-0.529283;-2.18774;0.281373;0.345835;-0.15605;0.382165;0.556908;-0.0747997;1;0.220447;0.502015;0.656258;0.11406;-0.767451;-2.21267;25.798;78.4325;25.798;696.902;305;1365;1365;1024;863;1024;1024;1024;1;3;0;0.016698;0;0;0;0.440894;0.652619;1.11564; 
642;643;2019/09/06 18:52:54;0;280;0;16.6066;-1;-1;10;0;0;0;0;0;0;0;0;0;0;0;0;0;0;405;85;10.0944;402.484;85.8391;0;86;1;0.0895511;-0.501123;-2.17891;0.0917161;-0.520835;-2.18509;0.213409;0.345913;-0.205552;-0.589375;0.263979;-1.20763;0;-0.157934;0.751123;1.5;0.157934;-0.751123;-2.21684;-5.02812;15.5452;-5.02812;696.902;715;970;1336;1024;863;1024;1024;1024;1;3;0;0;0;0;0;-0.315867;0.976459;2.55; 
643;644;2019/09/06 18:52:54;0;280;0;16.6066;-1;-1;11;0;0;0;0;0;0;0;0;0;0;0;0;0;0;406.333;84.3333;9.87471;403.08;84.4099;0;87;1;0.0848058;-0.50945;-2.22923;0.089643;-0.51742;-2.19833;0.14655;0.340357;-0.26271;-1.45969;-0.0182906;-2.27677;0;-0.137481;0.75945;1.5;0.137481;-0.75945;-2.27997;-4.00438;15.7176;-4.00438;696.902;746;993;1355;1024;863;1024;1024;1024;1;3;0;0;0;0;0;-0.274963;0.987285;2.55; 
644;645;2019/09/06 18:52:54;0;280;0;16.6066;-1;-1;12;0;0;0;0;0;0;0;0;0;0;0;0;0;0;408;83;9.88737;404.071;82.9902;0;88;1;0.0762858;-0.503161;-2.23005;0.0856358;-0.513142;-2.20785;0.0761308;0.343422;-0.270155;-2.19842;-0.111198;-2.59652;0;-0.112487;0.753161;1.5;0.112487;-0.753161;-2.29494;-2.86049;15.5874;-2.86049;696.902;755;1015;1359;1024;863;1024;1024;1024;1;3;0;0;0;0;0;-0.224974;0.97911;2.55; 
645;646;2019/09/06 18:52:54;0;280;0;16.6066;-1;-1;13;0;0;0;0;0;0;0;0;0;0;0;0;0;0;409;82;9.89535;405.134;81.6848;0;89;1;0.0711816;-0.498532;-2.23101;0.0812996;-0.508759;-2.2148;0.00560473;0.336404;-0.298672;-2.81747;-0.168694;-2.62804;0;-0.0898885;0.748532;1.5;0.0898885;-0.748532;-2.29739;-1.76113;15.4916;-1.76113;696.902;763;1034;1363;1024;863;1024;1024;1024;1;3;0;0;0;0;0;-0.179777;0.973091;2.55; 
646;647;2019/09/06 18:52:54;0;280;0;16.6066;-1;-1;14;0;0;0;0;0;0;0;0;0;0;0;0;0;0;410;81;9.75859;406.245;80.463;0;90;1;0.0670657;-0.501235;-2.26506;0.0770294;-0.506502;-2.22988;-0.0618516;0.313049;-0.381836;-3.29267;-0.289694;-2.81802;0;-0.0684694;0.751235;1.5;0.0684694;-0.751235;-2.33986;-0.713327;15.5476;-0.713327;696.902;767;1052;1365;1024;863;1024;1024;1024;1;3;0;0;0;0;0;-0.136939;0.976605;2.55; 
647;648;2019/09/06 18:52:54;0;280;0;16.6066;-1;-1;15;0;0;0;0;0;0;0;0;0;0;0;0;0;0;411.6;79.2;9.83241;407.579;79.0473;0;91;1;0.0584421;-0.48982;-2.25305;0.0714532;-0.501497;-2.23683;-0.121717;0.298769;-0.425091;-3.58499;-0.361731;-2.76499;0;-0.0426938;0.73982;1.5;0.0426938;-0.73982;-2.35027;0.345133;15.3113;0.345133;696.902;770;1069;1365;1024;863;1024;1024;1024;1;3;0;0;0;0;0;-0.0853877;0.961766;2.55; 
648;649;2019/09/06 18:52:54;0;280;0;16.6066;-1;-1;16;0;0;0;0;0;0;0;0;0;0;0;0;0;0;413;78;9.71859;409.009;77.6828;0;92;1;0.0519384;-0.490396;-2.2828;0.0655988;-0.498167;-2.25062;-0.177307;0.269768;-0.516688;-3.71097;-0.521056;-2.90124;0;-0.0201138;0.740396;1.5;0.0201138;-0.740396;-2.39395;1.30225;15.3232;1.30225;696.902;770;1082;1365;1024;888;1024;1024;1024;1;3;0;0;0;0;0;-0.0402277;0.962514;2.55; 
649;650;2019/09/06 18:52:54;0;280;0;16.6066;-1;-1;17;0;0;0;0;0;0;0;0;0;0;0;0;0;0;413.333;77.3333;9.87985;410.165;76.5263;0;93;1;0.049407;-0.479571;-2.24738;0.0607412;-0.492588;-2.24965;-0.221778;0.261004;-0.5149;-3.69718;-0.629462;-2.74764;0;-0.00251777;0.729571;1.5;0.00251777;-0.729571;-2.38402;2.05905;15.0992;2.05905;696.902;772;1091;1365;1024;888;1024;1024;1024;1;3;0;0;0;0;0;-0.00503554;0.948443;2.55; 
650;651;2019/09/06 18:52:54;0;280;0;16.6066;-1;-1;18;0;0;0;0;0;0;0;0;0;0;0;0;0;0;415;77;9.78686;411.544;75.6276;0;94;1;0.0413788;-0.482704;-2.26966;0.0549325;-0.489623;-2.25565;-0.255654;0.250506;-0.499809;-3.543;-0.748657;-2.56551;0;0.0180474;0.732704;1.5;-0.0180474;-0.732704;-2.40763;2.77161;15.164;2.77161;696.902;771;1097;1365;1024;913;1024;1024;1024;1;3;0;0;0;0;0;0.0360947;0.952515;2.55; 
651;652;2019/09/06 18:52:54;0;280;0;16.6066;-1;-1;19;0;0;0;0;0;0;0;0;0;0;0;0;0;0;416;75;9.67692;412.869;74.3841;0;95;1;0.0366923;-0.479549;-2.30108;0.0494604;-0.486601;-2.26928;-0.280514;0.238773;-0.517429;-3.26816;-0.838997;-2.41272;0;0.0326889;0.729549;1.5;-0.0326889;-0.729549;-2.43672;3.28597;15.0988;3.28597;696.902;772;1100;1365;1024;913;1024;1024;1024;1;3;0;0;0;0;0;0.0653779;0.948414;2.55; 
652;653;2019/09/06 18:52:54;0;280;0;16.6066;-1;-1;20;0;0;0;0;0;0;0;0;0;0;0;0;0;0;416;74;9.85392;413.834;73.2096;0;96;1;0.0360332;-0.466694;-2.26251;0.0454323;-0.480629;-2.26725;-0.294464;0.246565;-0.459684;-2.88963;-0.768841;-1.75845;0;0.0393507;0.716694;1.5;-0.0393507;-0.716694;-2.40157;3.54507;14.8327;3.54507;696.902;775;1099;1365;1024;939;1024;1024;1024;1;3;0;0;0;0;0;0.0787014;0.931702;2.55; 
653;654;2019/09/06 18:52:54;0;280;0;16.6066;-1;-1;21;0;0;0;0;0;0;0;0;0;0;0;0;0;0;417;73;9.81709;414.853;72.0854;0;97;1;0.0310854;-0.464187;-2.27378;0.0411282;-0.475696;-2.26921;-0.297755;0.250953;-0.405101;-2.43663;-0.652218;-0.975258;0;0.0475187;0.714187;1.5;-0.0475187;-0.714187;-2.39649;3.73153;14.7808;3.73153;696.902;753;1096;1354;1024;939;1024;1024;1024;1;3;0;0;0;0;0;0.0950375;0.928443;2.55; 
654;655;2019/09/06 18:52:54;0;280;0;16.6066;-1;-1;22;0;0;0;0;0;0;0;0;0;0;0;0;0;0;417;73;9.94293;415.592;71.3169;0;98;1;0.030692;-0.458312;-2.245;0.0379974;-0.470481;-2.26195;-0.288855;0.26111;-0.288288;-1.90735;-0.425897;0.326762;0;0.0469332;0.708312;1.5;-0.0469332;-0.708312;-2.35061;3.63585;14.6592;3.63585;696.902;710;1088;1326;1024;947;1024;1024;1024;1;3;0;0;0;0;0;0.0938663;0.920806;2.55; 
655;656;2019/09/06 18:52:54;0;280;0;16.6066;-1;-1;23;0;0;0;0;0;0;0;0;0;0;0;0;0;0;418;71.5;9.95872;416.443;70.3278;0;99;1;0.0256327;-0.45129;-2.24555;0.034288;-0.464724;-2.25703;-0.278931;0.267918;-0.202436;-1.3726;-0.227932;1.44361;0;0.0478205;0.70129;1.5;-0.0478205;-0.70129;-2.31886;3.55843;14.5139;3.55843;696.902;683;1081;1303;1024;947;1024;1024;1024;1;3;0;0;0;0;0;0.095641;0.911677;2.55; 
656;657;2019/09/06 18:52:54;0;280;0;16.6066;-1;-1;24;0;0;0;0;0;0;0;0;0;0;0;0;0;0;419;71;9.81186;417.376;69.4972;0;100;1;0.0209307;-0.455914;-2.28055;0.0302808;-0.462081;-2.26408;-0.265784;0.270716;-0.15512;-0.864004;-0.056068;2.24238;0;0.049902;0.705914;1.5;-0.049902;-0.705914;-2.33195;3.47308;14.6096;3.47308;696.902;667;1075;1289;1024;947;1024;1024;1024;1;3;0;0;0;0;0;0.099804;0.917689;2.55; 
657;658;2019/09/06 18:52:54;0;280;0;16.6066;-1;-1;25;0;0;0;0;0;0;0;0;0;0;0;0;0;0;419;69;9.99193;418.046;68.303;0;101;1;0.0205535;-0.439332;-2.2449;0.0273626;-0.455256;-2.25833;-0.247699;0.287577;-0.0493458;-0.387383;0.161214;3.21431;0;0.0452231;0.689332;1.5;-0.0452231;-0.689332;-2.28329;3.21238;14.2664;3.21238;696.902;651;1066;1266;1024;947;1024;1024;1024;1;3;0;0;0;0;0;0.0904462;0.896132;2.55; 
658;659;2019/09/06 18:52:54;0;280;0;16.6066;-1;-1;26;0;0;0;0;0;0;0;0;0;0;0;0;0;0;420;68.5;9.67934;418.845;67.3233;0;102;1;0.016062;-0.451361;-2.31881;0.0239724;-0.454088;-2.27647;-0.2343;0.278514;-0.0664295;0.00778082;0.22429;3.4987;0;0.0463283;0.701361;1.5;-0.0463283;-0.701361;-2.33124;3.10609;14.5154;3.10609;696.902;647;1060;1264;1024;947;1024;1024;1024;1;3;0;0;0;0;0;0.0926565;0.911769;2.55; 
659;660;2019/09/06 18:52:54;0;280;0;16.6066;-1;-1;27;0;0;0;0;0;0;0;0;0;0;0;0;0;0;421;67;9.73415;419.734;66.1804;0;103;1;0.0108453;-0.442379;-2.30995;0.0200343;-0.450575;-2.28652;-0.2248;0.267408;-0.108962;0.295948;0.200273;3.28159;0;0.0477777;0.692379;1.5;-0.0477777;-0.692379;-2.32657;3.04338;14.3295;3.04338;696.902;655;1055;1271;1024;947;1024;1024;1024;1;3;0;0;0;0;0;0.0955553;0.900092;2.55; 
660;661;2019/09/06 18:52:54;0;280;0;16.6066;-1;-1;28;0;0;0;0;0;0;0;0;0;0;0;0;0;0;420;66.5;9.72075;420.051;65.238;0;104;1;0.0159935;-0.440839;-2.31454;0.018822;-0.447654;-2.29492;-0.21144;0.251585;-0.19704;0.486657;0.0821311;2.33327;0;0.0404431;0.690839;1.5;-0.0404431;-0.690839;-2.3419;2.7771;14.2976;2.7771;696.902;674;1050;1292;1024;947;1024;1024;1024;1;3;0;0;0;0;0;0.0808861;0.89809;2.55; 
661;662;2019/09/06 18:52:54;0;280;0;16.6066;-1;-1;29;0;0;0;0;0;0;0;0;0;0;0;0;0;0;421;65;9.66047;420.59;64.1223;0;105;1;0.010928;-0.437099;-2.33321;0.0164538;-0.444488;-2.30641;-0.198069;0.231746;-0.315396;0.614846;-0.0951443;0.948956;0;0.043084;0.687099;1.5;-0.043084;-0.687099;-2.38355;2.70025;14.2202;2.70025;696.902;709;1048;1322;1024;947;1024;1024;1024;1;3;0;0;0;0;0;0.086168;0.893229;2.55; 
662;663;2019/09/06 18:52:54;0;280;0;16.6066;-1;-1;30;0;0;0;0;0;0;0;0;0;0;0;0;0;0;421;65;9.57326;420.97;63.3591;0;106;1;0.0110275;-0.441081;-2.35447;0.0148259;-0.443466;-2.32083;-0.180547;0.213371;-0.415801;0.709226;-0.286043;-0.471428;0;0.0411225;0.691081;1.5;-0.0411225;-0.691081;-2.43751;2.49652;14.3026;2.49652;696.902;749;1044;1349;1024;947;1024;1024;1024;1;3;0;0;0;0;0;0.082245;0.898405;2.55; 
663;664;2019/09/06 18:52:54;0;-1;-1;-1;-1;-1;31;0;0;0;0;0;0;0;0;0;0;0;0;0;0;419.6;64.8;9.58612;420.788;62.7878;0;107;1;0.0183003;-0.439618;-2.35188;0.0158682;-0.442311;-2.33014;-0.154221;0.179707;-0.536209;0.798758;-0.602307;-2.22672;0;0.0301779;0.689618;1.5;-0.0301779;-0.689618;-2.46353;2.03848;14.2723;2.03848;696.902;780;1037;1365;1024;922;1024;1024;1024;1;3;0;0;0;0;0;0.0603557;0.896503;2.55; 
664;665;2019/09/06 18:52:54;0;-1;-1;-1;-1;-1;32;0;0;0;0;0;0;0;0;0;0;0;0;0;0;419;65;9.66701;420.453;62.4826;0;108;1;0.0212443;-0.436804;-2.33164;0.0174811;-0.440659;-2.33059;-0.11845;0.16144;-0.5378;0.941803;-0.828818;-3.21804;0;0.0209448;0.686804;1.5;-0.0209448;-0.686804;-2.47832;1.52322;14.2141;1.52322;696.902;782;1030;1365;1024;922;1024;1024;1024;1;3;0;0;0;0;0;0.0418895;0.892845;2.55; 
665;666;2019/09/06 18:52:54;0;-1;-1;-1;-1;-1;33;0;0;0;0;0;0;0;0;0;0;0;0;0;0;418.667;64.6667;9.61526;420.094;62.1993;0;109;1;0.0230886;-0.437705;-2.34513;0.0191633;-0.439773;-2.33495;-0.0745472;0.139993;-0.516066;1.16499;-1.00601;-3.55623;0;0.00943298;0.687705;1.5;-0.00943298;-0.687705;-2.49279;0.887425;14.2327;0.887425;696.902;782;1021;1365;1024;896;1024;1024;1024;1;3;0;0;0;0;0;0.018866;0.894017;2.55; 
666;667;2019/09/06 18:52:54;0;-1;-1;-1;-1;-1;34;0;0;0;0;0;0;0;0;0;0;0;0;0;0;419;64;9.56247;419.931;61.824;0;110;1;0.0214766;-0.437208;-2.35998;0.0198573;-0.439003;-2.34246;-0.040595;0.118534;-0.499434;1.38111;-1.13483;-3.34109;0;-0.0010427;0.687208;1.5;0.0010427;-0.687208;-2.50143;0.365841;14.2225;0.365841;696.902;782;1012;1365;1024;896;1024;1024;1024;1;3;0;0;0;0;0;-0.0020854;0.893371;2.55; 
667;668;2019/09/06 18:52:54;0;-1;-1;-1;-1;-1;35;0;0;0;0;0;0;0;0;0;0;0;0;0;0;418;63;9.55322;419.486;61.2745;0;111;1;0.0267207;-0.433256;-2.36511;0.0219163;-0.437279;-2.34926;-0.00254733;0.0999011;-0.470726;1.60931;-1.2073;-2.62483;0;-0.0156318;0.683256;1.5;0.0156318;-0.683256;-2.50154;-0.272805;14.1407;-0.272805;696.902;782;1002;1365;1024;896;1024;1024;1024;1;3;0;0;0;0;0;-0.0312636;0.888233;2.55; 
668;669;2019/09/06 18:52:54;0;-1;-1;-1;-1;-1;36;0;0;0;0;0;0;0;0;0;0;0;0;0;0;417.6;62.8;9.59207;419.028;60.8529;0;112;1;0.0286933;-0.43063;-2.3561;0.0239494;-0.435284;-2.35131;0.0348982;0.0926054;-0.404141;1.82578;-1.20655;-1.52834;0;-0.0280055;0.68063;1.5;0.0280055;-0.68063;-2.4832;-0.863638;14.0863;-0.863638;696.902;775;991;1361;1024;863;1024;1024;1024;1;3;0;0;0;0;0;-0.0560111;0.884819;2.55; 
669;670;2019/09/06 18:52:54;0;-1;-1;-1;-1;-1;37;0;0;0;0;0;0;0;0;0;0;0;0;0;0;417;62;9.63838;418.499;60.3318;0;113;1;0.0316618;-0.425091;-2.34704;0.0262631;-0.432226;-2.35003;0.0624418;0.0958283;-0.321887;1.96052;-1.05883;-0.0612947;0;-0.0408907;0.675091;1.5;0.0408907;-0.675091;-2.45392;-1.37012;13.9717;-1.37012;696.902;729;984;1334;1024;863;1024;1024;1024;1;3;0;0;0;0;0;-0.0817814;0.877618;2.55; 
670;671;2019/09/06 18:52:54;0;-1;-1;-1;-1;-1;38;0;0;0;0;0;0;0;0;0;0;0;0;0;0;417;61;9.70971;418.11;59.6739;0;114;1;0.0314292;-0.417664;-2.33261;0.027813;-0.427858;-2.34481;0.0787163;0.108608;-0.249881;1.96352;-0.846237;1.11277;0;-0.0475129;0.667664;1.5;0.0475129;-0.667664;-2.41552;-1.65055;13.818;-1.65055;696.902;701;980;1313;1024;863;1024;1024;1024;1;3;0;0;0;0;0;-0.0950258;0.867963;2.55; 
671;672;2019/09/06 18:52:54;0;-1;-1;-1;-1;-1;39;0;0;0;0;0;0;0;0;0;0;0;0;0;0;417;61;9.55493;417.825;59.2352;0;115;1;0.0319383;-0.42443;-2.3704;0.0290506;-0.426829;-2.35248;0.0867059;0.116844;-0.219919;1.82194;-0.600167;1.85006;0;-0.0521945;0.67443;1.5;0.0521945;-0.67443;-2.4347;-1.8154;13.958;-1.8154;696.902;685;980;1300;1024;846;1024;1024;1024;1;3;0;0;0;0;0;-0.104389;0.876758;2.55; 
672;673;2019/09/06 18:52:54;0;-1;-1;-1;-1;-1;40;0;0;0;0;0;0;0;0;0;0;0;0;0;0;417.2;59.6;9.58642;417.678;58.5082;0;116;1;0.0307923;-0.416931;-2.36659;0.0295731;-0.42386;-2.35672;0.0908151;0.130569;-0.188869;1.61783;-0.312052;2.35001;0;-0.0529137;0.666931;1.5;0.0529137;-0.666931;-2.4227;-1.8681;13.8028;-1.8681;696.902;677;982;1291;1024;812;1024;1024;1024;1;3;0;0;0;0;0;-0.105827;0.867011;2.55; 
673;674;2019/09/06 18:52:54;0;-1;-1;-1;-1;-1;41;0;0;0;0;0;0;0;0;0;0;0;0;0;0;418.667;59.3333;9.72923;418.038;57.9332;0;117;1;0.0228181;-0.409666;-2.3326;0.0275466;-0.419602;-2.34948;0.0769687;0.148921;-0.114219;1.28818;0.00848751;2.8334;0;-0.0455005;0.659666;1.5;0.0455005;-0.659666;-2.37977;-1.59571;13.6524;-1.59571;696.902;666;989;1277;1024;812;1024;1024;1024;1;3;0;0;0;0;0;-0.091001;0.857565;2.55; 
674;675;2019/09/06 18:52:54;0;-1;-1;-1;-1;-1;42;0;0;0;0;0;0;0;0;0;0;0;0;0;0;419;59;9.53374;418.403;57.4468;0;118;1;0.0215413;-0.416605;-2.38138;0.025745;-0.418703;-2.35905;0.0533503;0.155558;-0.0994391;0.846578;0.256437;2.9166;0;-0.0408073;0.666605;1.5;0.0408073;-0.666605;-2.40997;-1.28217;13.7961;-1.28217;696.902;663;998;1275;1024;761;1024;1024;1024;1;3;0;0;0;0;0;-0.0816147;0.866586;2.55; 
675;676;2019/09/06 18:52:54;0;-1;-1;-1;-1;-1;43;0;0;0;0;0;0;0;0;0;0;0;0;0;0;421;58;9.53844;419.303;56.8114;0;119;1;0.0110678;-0.412017;-2.38307;0.0213418;-0.416697;-2.36626;0.0123613;0.155338;-0.124445;0.307995;0.391462;2.53827;0;-0.0243426;0.662017;1.5;0.0243426;-0.662017;-2.40781;-0.579942;13.7011;-0.579942;696.902;670;1013;1282;1024;719;1024;1024;1024;1;1;0;0;0;0;0;-0.0486852;0.860622;2.55; 
676;677;2019/09/06 18:52:54;0;-1;-1;-1;-1;-1;44;0;0;0;0;0;0;0;0;0;0;0;0;0;0;421;57;9.52789;419.952;56.0673;0;120;1;0.01108;-0.408086;-2.38857;0.0182633;-0.414114;-2.37295;-0.0307114;0.148077;-0.187035;-0.252107;0.392463;1.77388;0;-0.0141714;0.658086;1.5;0.0141714;-0.658086;-2.41969;0.0225025;13.6198;0.0225025;696.902;686;1025;1298;1024;618;1024;1024;1024;1;1;0;0;0;0;0;-0.0283427;0.855512;2.55; 
677;678;2019/09/06 18:52:54;0;-1;-1;-1;-1;-1;45;0;0;0;0;0;0;0;0;0;0;0;0;0;0;422.667;56.6667;9.6579;420.949;55.457;0;121;1;0.00231973;-0.401151;-2.35735;0.0134802;-0.410225;-2.36827;-0.0805934;0.155142;-0.175256;-0.819227;0.388387;1.24265;0;0.0053848;0.651151;1.5;-0.0053848;-0.651151;-2.40428;0.867948;13.4762;0.867948;696.902;693;1042;1303;1024;592;1024;1024;1024;1;1;0;0;0;0;0;0.0107696;0.846496;2.55; 
678;679;2019/09/06 18:52:54;0;-1;-1;-1;-1;-1;46;0;0;0;0;0;0;0;0;0;0;0;0;0;0;424.667;55.3333;9.59932;422.304;54.6243;0;122;1;-0.00806263;-0.397793;-2.37553;0.00701737;-0.406495;-2.37045;-0.138413;0.162416;-0.159978;-1.40676;0.360185;0.860941;0;0.0284439;0.647793;1.5;-0.0284439;-0.647793;-2.41985;1.85535;13.4067;1.85535;696.902;697;1062;1306;1024;592;1024;1024;1024;1;1;0;0;0;0;0;0.0568877;0.842131;2.55; 
679;680;2019/09/06 18:52:54;0;-1;-1;-1;-1;-1;47;0;0;0;0;0;0;0;0;0;0;0;0;0;0;425.333;54.6667;9.55469;423.492;53.8429;0;123;1;-0.0115821;-0.396735;-2.38852;0.00143753;-0.403567;-2.37587;-0.187291;0.161469;-0.201349;-1.89914;0.266212;0.168687;0;0.0469341;0.646735;1.5;-0.0469341;-0.646735;-2.42938;2.67102;13.3848;2.67102;696.902;228;1062;1306;1024;559;1024;1024;1024;1;0;0;0;0;0;0;0.0938682;0.840755;2.55; 
680;681;2019/09/06 18:52:54;0;-1;-1;-1;-1;-1;48;0;0;0;0;0;0;0;0;0;0;0;0;0;0;427;53;9.50792;424.874;52.7794;0;124;1;-0.0203861;-0.39136;-2.40505;-0.00510955;-0.399905;-2.38463;-0.235561;0.171931;-0.222908;-2.29296;0.225099;-0.391733;0;0.0693058;0.64136;1.5;-0.0693058;-0.64136;-2.45764;3.55464;13.2736;3.55464;696.902;228;1062;1306;1024;508;1024;1024;1024;1;0;0;0;0;0;0;0.138612;0.833767;2.55; 
681;682;2019/09/06 18:52:54;0;-1;-1;-1;-1;-1;49;0;0;0;0;0;0;0;0;0;0;0;0;0;0;428;53;9.58394;426.183;52.0437;0;125;1;-0.025431;-0.388255;-2.38598;-0.011206;-0.39641;-2.38503;-0.271283;0.184154;-0.208698;-2.50821;0.250105;-0.571415;0;0.0693058;0.64136;1.5;-0.0693058;-0.64136;-2.45764;3.55464;13.2736;3.55464;696.902;228;1062;1306;1024;449;1024;1024;1024;1;0;0;0;0;0;0;0.138612;0.833767;2.55; 
682;683;2019/09/06 18:52:54;0;429;51;9.51302;429;51;0;1;1;-0.030866;-0.382362;-2.40949;-0.030866;-0.382362;-2.40949;0;0;0;0;0;0;428;53;9.58394;428.865;52.2469;0;125;1;-0.025431;-0.388255;-2.38598;-0.011206;-0.39641;-2.38503;-0.271283;0.184154;-0.208698;-2.50821;0.250105;-0.571415;1;0.0384399;0.258997;0.0481524;-0.0693058;-0.64136;-2.45764;2.96818;5.36021;2.96818;696.902;228;1062;1306;1024;440;1024;1024;1024;1;0;0;0.834869;0;0;0;0.0768798;0.336697;0.0818592; 
683;684;2019/09/06 18:52:54;0;430.25;50.25;9.54162;429.114;50.9318;0;2;1;-0.0373106;-0.377931;-2.40441;-0.0327993;-0.381033;-2.40797;0;0;0;0;0;0;428;53;9.58394;428.865;52.2469;0;125;1;-0.025431;-0.388255;-2.38598;-0.011206;-0.39641;-2.38503;-0.271283;0.184154;-0.208698;-2.50821;0.250105;-0.571415;1;0.0365065;0.260327;0.0496759;-0.0693058;-0.64136;-2.45764;2.93145;5.38772;2.93145;696.902;228;1062;1306;1024;381;1024;1024;1024;1;0;0;0.0166968;0;0;0;0.073013;0.338425;0.0844491; 
684;685;2019/09/06 18:52:54;0;430.667;49.7778;9.60353;429.363;50.7463;0;3;1;-0.039235;-0.373439;-2.39025;-0.03473;-0.378754;-2.40265;0;0;0;0;0;0;428;53;9.58394;428.865;52.2469;0;125;1;-0.025431;-0.388255;-2.38598;-0.011206;-0.39641;-2.38503;-0.271283;0.184154;-0.208698;-2.50821;0.250105;-0.571415;1;0.0345758;0.262605;0.0549908;-0.0693058;-0.64136;-2.45764;2.89477;5.43487;2.89477;696.902;228;1062;1306;1024;297;1024;1024;1024;1;0;0;0.0166978;0;0;0;0.0691516;0.341386;0.0934843; 
685;686;2019/09/06 18:52:54;0;431;49;9.56856;429.704;50.3829;0;4;1;-0.0411167;-0.371406;-2.4012;-0.036646;-0.37655;-2.40222;0;0;0;0;0;0;428;53;9.58394;428.865;52.2469;0;125;1;-0.025431;-0.388255;-2.38598;-0.011206;-0.39641;-2.38503;-0.271283;0.184154;-0.208698;-2.50821;0.250105;-0.571415;1;0.0326598;0.26481;0.0554256;-0.0693058;-0.64136;-2.45764;2.85836;5.4805;2.85836;696.902;228;1062;1306;1024;229;1024;1024;1024;1;0;0;0.0166968;0;0;0;0.0653196;0.344252;0.0942236; 
686;687;2019/09/06 18:52:54;0;432;49;9.52335;430.25;50.0532;0;5;1;-0.0465517;-0.37317;-2.4126;-0.0396177;-0.375536;-2.40533;0;0;0;0;0;0;428;53;9.58394;428.865;52.2469;0;125;1;-0.025431;-0.388255;-2.38598;-0.011206;-0.39641;-2.38503;-0.271283;0.184154;-0.208698;-2.50821;0.250105;-0.571415;1;0.0296881;0.265824;0.05231;-0.0693058;-0.64136;-2.45764;2.8019;5.50149;2.8019;696.902;228;1062;1306;1024;204;1024;1024;1024;1;0;0;0.0166978;0;0;0;0.0593762;0.345571;0.088927; 
687;688;2019/09/06 18:52:54;0;432;49;9.52335;430.254;50.0503;1;0;1;-0.0465517;-0.37317;-2.4126;-0.0396177;-0.375536;-2.40533;0;0;0;0;0;0;428;53;9.58394;428.865;52.2469;0;125;1;-0.025431;-0.388255;-2.38598;-0.011206;-0.39641;-2.38503;-0.271283;0.184154;-0.208698;-2.50821;0.250105;-0.571415;1;0.0296881;0.265824;0.05231;-0.0693058;-0.64136;-2.45764;2.8019;5.50149;2.8019;696.902;228;1062;1306;1024;204;1024;1024;1024;1;0;0;0.0166978;0;0;0;0.0593762;0.345571;0.088927; 
688;689;2019/09/06 18:52:54;0;-1;-1;-1;-1;-1;1;0;0;0;0;0;0;0;0;0;0;0;0;0;0;428;53;9.58394;428.865;52.2469;0;125;1;-0.025431;-0.388255;-2.38598;-0.011206;-0.39641;-2.38503;-0.271283;0.184154;-0.208698;-2.50821;0.250105;-0.571415;0;0.0693058;0.64136;1.5;-0.0693058;-0.64136;-2.45764;3.55464;13.2736;3.55464;696.902;228;1062;1306;1024;204;1024;1024;1024;1;0;0;0;0;0;0;0.138612;0.833767;2.55; 
689;690;2019/09/06 18:52:54;0;-1;-1;-1;-1;-1;1;0;0;0;0;0;0;0;0;0;0;0;0;0;0;428;53;9.58394;428.865;52.2469;0;125;1;-0.025431;-0.388255;-2.38598;-0.011206;-0.39641;-2.38503;-0.271283;0.184154;-0.208698;-2.50821;0.250105;-0.571415;0;0.0693058;0.64136;1.5;-0.0693058;-0.64136;-2.45764;3.55464;13.2736;3.55464;696.902;228;1062;1306;1024;204;1024;1024;1024;1;0;0;0;0;0;0;0.138612;0.833767;2.55; 
690;691;2019/09/06 18:52:54;0;-1;-1;-1;-1;-1;1;0;0;0;0;0;0;0;0;0;0;0;0;0;0;428;53;9.58394;428.865;52.2469;0;125;1;-0.025431;-0.388255;-2.38598;-0.011206;-0.39641;-2.38503;-0.271283;0.184154;-0.208698;-2.50821;0.250105;-0.571415;0;0.0693058;0.64136;1.5;-0.0693058;-0.64136;-2.45764;3.55464;13.2736;3.55464;696.902;228;1062;1306;1024;204;1024;1024;1024;1;0;0;0;0;0;0;0.138612;0.833767;2.55; 
691;692;2019/09/06 18:52:54;0;-1;-1;-1;-1;-1;1;0;0;0;0;0;0;0;0;0;0;0;0;0;0;428;53;9.58394;428.865;52.2469;0;125;1;-0.025431;-0.388255;-2.38598;-0.011206;-0.39641;-2.38503;-0.271283;0.184154;-0.208698;-2.50821;0.250105;-0.571415;0;0.0693058;0.64136;1.5;-0.0693058;-0.64136;-2.45764;3.55464;13.2736;3.55464;696.902;228;1062;1306;1024;204;1024;1024;1024;0;0;0;0;0;0;0;0.138612;0.833767;2.55; 
692;693;2019/09/06 18:52:54;0;-1;-1;-1;-1;-1;1;0;0;0;0;0;0;0;0;0;0;0;0;0;0;428;53;9.58394;428.865;52.2469;0;125;1;-0.025431;-0.388255;-2.38598;-0.011206;-0.39641;-2.38503;-0.271283;0.184154;-0.208698;-2.50821;0.250105;-0.571415;0;0.0693058;0.64136;1.5;-0.0693058;-0.64136;-2.45764;3.55464;13.2736;3.55464;696.902;228;1062;1306;1024;204;1024;1024;1024;0;0;0;0;0;0;0;0.138612;0.833767;2.55; 
693;694;2019/09/06 18:52:54;0;-1;-1;-1;-1;-1;1;0;0;0;0;0;0;0;0;0;0;0;0;0;0;428;53;9.58394;428.865;52.2469;0;125;1;-0.025431;-0.388255;-2.38598;-0.011206;-0.39641;-2.38503;-0.271283;0.184154;-0.208698;-2.50821;0.250105;-0.571415;0;0.0693058;0.64136;1.5;-0.0693058;-0.64136;-2.45764;3.55464;13.2736;3.55464;696.902;228;1062;1306;1024;204;1024;1024;1024;0;0;0;0;0;0;0;0.138612;0.833767;2.55; 
694;695;2019/09/06 18:52:54;0;-1;-1;-1;-1;-1;1;0;0;0;0;0;0;0;0;0;0;0;0;0;0;428;53;9.58394;428.865;52.2469;0;125;1;-0.025431;-0.388255;-2.38598;-0.011206;-0.39641;-2.38503;-0.271283;0.184154;-0.208698;-2.50821;0.250105;-0.571415;0;0.0693058;0.64136;1.5;-0.0693058;-0.64136;-2.45764;3.55464;13.2736;3.55464;696.902;228;1062;1306;1024;204;1024;1024;1024;0;0;0;0;0;0;0;0.138612;0.833767;2.55; 
695;696;2019/09/06 18:52:54;0;-1;-1;-1;-1;-1;1;0;0;0;0;0;0;0;0;0;0;0;0;0;0;428;53;9.58394;428.865;52.2469;0;125;1;-0.025431;-0.388255;-2.38598;-0.011206;-0.39641;-2.38503;-0.271283;0.184154;-0.208698;-2.50821;0.250105;-0.571415;0;0.0693058;0.64136;1.5;-0.0693058;-0.64136;-2.45764;3.55464;13.2736;3.55464;696.902;228;1062;1306;1024;204;1024;1024;1024;0;0;0;0;0;0;0;0.138612;0.833767;2.55; 
696;697;2019/09/06 18:52:54;0;-1;-1;-1;-1;-1;1;0;0;0;0;0;0;0;0;0;0;0;0;0;0;428;53;9.58394;428.865;52.2469;0;125;1;-0.025431;-0.388255;-2.38598;-0.011206;-0.39641;-2.38503;-0.271283;0.184154;-0.208698;-2.50821;0.250105;-0.571415;0;0.0693058;0.64136;1.5;-0.0693058;-0.64136;-2.45764;3.55464;13.2736;3.55464;696.902;228;1062;1306;1024;204;1024;1024;1024;0;0;0;0;0;0;0;0.138612;0.833767;2.55; 
697;698;2019/09/06 18:52:54;0;-1;-1;-1;-1;-1;1;0;0;0;0;0;0;0;0;0;0;0;0;0;0;428;53;9.58394;428.865;52.2469;0;125;1;-0.025431;-0.388255;-2.38598;-0.011206;-0.39641;-2.38503;-0.271283;0.184154;-0.208698;-2.50821;0.250105;-0.571415;0;0.0693058;0.64136;1.5;-0.0693058;-0.64136;-2.45764;3.55464;13.2736;3.55464;696.902;228;1062;1306;1024;204;1024;1024;1024;0;0;0;0;0;0;0;0.138612;0.833767;2.55; 
