ID;RS_ID;time;insect_log;imLx_drone; imLy_drone; disparity_drone; imLx_pred_drone; imLy_pred_drone; n_frames_lost_drone; n_frames_tracking_drone; foundL_drone; posX_drone; posY_drone; posZ_drone; sposX_drone; sposY_drone; sposZ_drone; svelX_drone; svelY_drone; svelZ_drone; saccX_drone; saccY_drone; saccZ_drone; imLx_insect; imLy_insect; disparity_insect; imLx_pred_insect; imLy_pred_insect; n_frames_lost_insect; n_frames_tracking_insect; foundL_insect; posX_insect; posY_insect; posZ_insect; sposX_insect; sposY_insect; sposZ_insect; svelX_insect; svelY_insect; svelZ_insect; saccX_insect; saccY_insect; saccZ_insect; valid; posErrX; posErrY; posErrZ; velX; velY; velZ; accX; accY; accZ; hoverthrottle; autoThrottle; autoRoll; autoPitch; autoYaw; joyThrottle; joyRoll; joyPitch; joyYaw; joyArmSwitch; joyModeSwitch; joyTakeoffSwitch; dt; velx_sp; vely_sp; velz_sp;
813;817;2019/10/02 16:15:44;0;425.696;325.57;9.27234;411.383;324.731;0;7;1;-0.0138875;-1.63778;-1.65724;0.0580557;-1.70192;-1.72505;-0.921051;0.332745;0.593798;-9.29926;4.5987;7.23931;397;126;7.2849;397;126;0;1;1;0.178885;-0.943059;-2.86143;0.178885;-0.943059;-2.86143;0;0;0;0;0;0;1;0;0;0;0.178885;-1.19306;-2.86143;0;0;0;640.322;650;1024;1024;1024;913;1024;1024;1024;1;3;0;0.016707;0;0;0; 
814;818;2019/10/02 16:15:44;0;433.408;326.282;9.42354;417.485;325.172;0;8;1;-0.0545028;-1.61465;-1.62858;0.0242881;-1.67574;-1.69611;-1.09037;0.566436;0.795695;-11.9999;12.7543;12.6909;395;126;7.4908;396.818;126;0;2;1;0.187292;-0.917138;-2.78278;0.181407;-0.935283;-2.83784;0;0;0;0;0;0;1;0;0;0;0.187292;-1.16714;-2.78278;0;0;0;640.322;650;1024;1024;1024;913;1024;1024;1024;1;3;0;0.0167061;0;0;0; 
815;819;2019/10/02 16:15:44;0;441.667;326.667;9.52402;424.353;325.609;0;9;1;-0.0971954;-1.5993;-1.61029;-0.0121569;-1.6528;-1.67036;-1.31395;0.822186;1.01678;-11.0402;12.3716;11.5047;393;128;7.42364;396.204;126.321;0;3;1;0.202429;-0.936661;-2.80056;0.187714;-0.935696;-2.82666;0;0;0;0;0;0;1;0;0;0;0.202429;-1.18666;-2.80056;0;0;0;640.322;650;1024;1024;1024;913;1024;1024;1024;1;3;0;0.016707;0;0;0; 
816;820;2019/10/02 16:15:44;0;450.426;327.279;9.67315;431.923;326.106;0;10;1;-0.140884;-1.57728;-1.58373;-0.0507751;-1.63015;-1.64437;-1.54331;1.04522;1.2173;-9.25749;10.347;9.61433;390.667;128.667;7.48752;395.052;126.81;0;4;1;0.216253;-0.932379;-2.77422;0.196276;-0.934701;-2.81093;0;0;0;0;0;0;1;0;0;0;0.216253;-1.18238;-2.77422;0;0;0;640.322;650;1024;1024;1024;913;1024;1024;1024;1;3;0;0.0167061;0;0;0; 
817;821;2019/10/02 16:15:44;0;459.194;327.29;10.0029;440.016;326.477;0;11;1;-0.179977;-1.52534;-1.53149;-0.0895355;-1.5987;-1.61051;-1.74568;1.25224;1.41199;-7.13838;8.07674;7.76664;388;130;7.52242;393.373;127.569;0;5;1;0.232939;-0.93544;-2.75649;0.207274;-0.934923;-2.7946;0;0;0;0;0;0;1;0;0;0;0.232939;-1.18544;-2.75649;0;0;0;640.322;650;850;1291;1024;913;1024;1024;1024;1;3;0;0.016707;0;0;0; 
818;822;2019/10/02 16:15:44;0;468.333;327.433;10.1072;448.609;326.791;0;12;1;-0.223242;-1.51018;-1.51529;-0.129647;-1.57214;-1.58194;-1.91945;1.37888;1.53422;-5.49497;4.14962;4.28369;384.8;131.6;7.40317;391.173;128.603;0;6;1;0.25826;-0.959514;-2.79496;0.22257;-0.9423;-2.7947;0;0;0;0;0;0;1;-0.387907;-0.362631;1.21301;0.25826;-1.20951;-2.79496;-25.605;14.4468;-25.605;640.322;662;681;1188;1024;913;1024;1024;1024;1;3;0;0.0167061;-0.775814;-0.47142;1.50171; 
819;823;2019/10/02 16:15:44;0;478.286;327.302;10.3952;457.812;326.983;0;13;1;-0.264831;-1.46781;-1.47366;-0.170202;-1.54084;-1.54946;-2.06251;1.47007;1.62123;-7.85183;7.02815;6.67006;382;133;7.52083;388.706;129.785;0;7;1;0.272797;-0.952259;-2.74612;0.237638;-0.945288;-2.78013;0.586124;-0.0222336;0.811114;-3.86472;50.9783;163.443;1;-0.442999;-0.338585;1.19666;0.272797;-1.20226;-2.74612;-33.579;16.3962;-33.579;640.322;609;680;683;1024;913;1024;1024;1024;1;3;0;0.016707;-0.885999;-0.440161;1.48147; 
820;824;2019/10/02 16:15:44;0;488.062;327.262;10.5117;467.423;327.112;0;14;1;-0.308302;-1.45138;-1.45743;-0.211632;-1.51401;-1.52185;-2.17892;1.52741;1.66811;-9.05485;8.05156;7.48333;379;135;7.49637;386.01;131.23;0;8;1;0.293657;-0.966484;-2.74776;0.254444;-0.951646;-2.77042;0.643123;-0.0786395;0.755714;-0.354838;28.4157;95.4457;1;-0.610846;-0.297522;1.07983;0.399214;-1.21648;-2.60168;-38.4155;18.1589;-38.4155;640.322;579;680;683;1024;913;1024;1024;1024;1;3;0;0.0167058;-1.22169;-0.386779;1.33683; 
821;825;2019/10/02 16:15:44;0;498.369;327.108;10.5472;477.499;327.161;0;15;1;-0.356032;-1.44589;-1.45293;-0.254952;-1.49357;-1.50117;-2.2762;1.55185;1.67601;-9.27268;7.74257;7.12057;377;136;7.47627; -nan; -nan;0;9;1;0.307795;-0.974655;-2.75147;0.270449;-0.958549;-2.76473;0.716026;-0.138378;0.70053;1.13804;16.596;57.3919;1;-0.679298;-0.268916;1.11334;0.424346;-1.22466;-2.61452;-41.3328;19.1399;-41.3328;640.322;573;680;683;1024;913;1024;1024;1024;1;3;0;0.016707;-1.3586;-0.349591;1.37832; 
822;826;2019/10/02 16:15:44;0;508.585;326.923;10.5243;487.896;327.14;0;16;1;-0.40524;-1.4483;-1.45656;-0.300038;-1.47999;-1.48779;-2.36038;1.53029;1.63043;-8.82404;6.58115;5.92091;377;136;7.47627; -nan; -nan;1;0;1;0.307795;-0.974655;-2.75147;0.270449;-0.958549;-2.76473;0.716026;-0.138378;0.70053;1.13804;16.596;57.3919;1;-0.679298;-0.268916;1.11334;-0.356032;-1.44589;-1.45293;-41.3328;19.1399;-41.3328;640.322;573;680;683;1024;913;1024;1024;1024;1;3;0;0.0167061;-1.3586;-0.349591;1.37832; 
823;827;2019/10/02 16:15:44;0;519.057;326.457;11.1296;498.609;326.985;0;17;1;-0.430157;-1.3678;-1.37851;-0.339074;-1.44633;-1.455;-2.41199;1.52619;1.59878;-7.95326;5.04184;4.29793;371.333;138.667;7.69762; -nan; -nan;0;1;1;0.335678;-0.961063;-2.66284;0.290018;-0.959303;-2.73417;0.75025;-0.167176;0.682872;1.49607;9.18207;33.5504;1;-0.679298;-0.268916;1.11334;0.465823;-1.21106;-2.53551;-41.3328;19.1399;-41.3328;640.322;650;736;1238;1024;913;1024;1024;1024;1;3;0;0.016707;-1.3586;-0.349591;1.37832; 
824;828;2019/10/02 16:15:45;0;529.714;325.792;11.1718;509.613;326.671;0;18;1;-0.47613;-1.36014;-1.37492;-0.380191;-1.42048;-1.43098;-2.44696;1.52093;1.56167;-6.87693;3.59194;2.68827;371;140;7.52287; -nan; -nan;0;2;1;0.345687;-0.990774;-2.71983;0.306719;-0.968745;-2.72987;0.790289;-0.21599;0.631128;1.34896;4.81586;18.9455;1;-0.679298;-0.268916;1.11334;0.488478;-1.24077;-2.58986;-41.3328;19.1399;-41.3328;640.322;650;735;1240;1024;913;1024;1024;1024;1;3;0;0.0167061;-1.3586;-0.349591;1.37832; 
825;829;2019/10/02 16:15:45;0;539.371;326.09;11.4196;520.53;326.528;0;19;1;-0.507995;-1.33172;-1.34438;-0.418532;-1.39385;-1.405;-2.45911;1.49913;1.51345;-5.70876;2.27111;1.18286;370;142;7.85465; -nan; -nan;0;3;1;0.337438;-0.959534;-2.59796;0.315934;-0.965982;-2.69029;0.793515;-0.210594;0.735803;0.39189;3.67962;13.9062;1;-0.679298;-0.268916;1.11334;0.481591;-1.20953;-2.48284;-41.3328;19.1399;-41.3328;640.322;650;729;1226;1024;913;1024;1024;1024;1;3;0;0.016707;-1.3586;-0.349591;1.37832; 
826;830;2019/10/02 16:15:45;0;549.757;324.897;11.5504;531.601;326.062;0;20;1;-0.547111;-1.31233;-1.33198;-0.457106;-1.36939;-1.38309;-2.455;1.47654;1.46175;-4.52691;1.15966;-0.113728;370;142;7.71973; -nan; -nan;0;4;1;0.343335;-0.976304;-2.64336;0.324155;-0.969078;-2.67621;0.772032;-0.20773;0.796916;0.871015;1.5733;8.29514;1;-0.679298;-0.268916;1.11334;0.49711;-1.2263;-2.50077;-41.3328;19.1399;-41.3328;640.322;650;730;1226;1024;913;1024;1024;1024;1;3;0;0.0167061;-1.3586;-0.349591;1.37832; 
827;831;2019/10/02 16:15:45;0;559.446;322.862;11.7477;542.57;325.102;0;21;1;-0.57908;-1.28307;-1.31437;-0.493698;-1.3435;-1.36248;-2.42569;1.48478;1.4305;-3.31266;0.428156;-1.04793;370;143;7.68599; -nan; -nan;0;5;1;0.344843;-0.986011;-2.65139;0.330361;-0.974158;-2.66877;0.722885;-0.201636;0.825832;0.795423;0.523284;5.21691;1;-0.679298;-0.268916;1.11334;0.499135;-1.23601;-2.49213;-41.3328;19.1399;-41.3328;640.322;650;731;1228;1024;913;1024;1024;1024;1;3;0;0.016707;-1.3586;-0.349591;1.37832; 
828;832;2019/10/02 16:15:45;0;568.179;321.731;12.2732;553.169;324.054;0;22;1;-0.58979;-1.2243;-1.26062;-0.522526;-1.30774;-1.33192;-2.34323;1.57822;1.48027;-1.91914;0.448165;-1.22795;369;144;8.0892; -nan; -nan;0;6;1;0.333823;-0.942015;-2.51584;0.3314;-0.964515;-2.62289;0.642206;-0.141388;0.980666;0.224762;0.303675;4.08833;1;-0.679298;-0.268916;1.11334;0.472041;-1.19201;-2.35794;-41.3328;19.1399;-41.3328;640.322;1824;731;1228;1024;913;1024;1024;1024;1;3;0;0.0167058;-1.3586;-0.349591;1.37832; 
829;833;2019/10/02 16:15:45;0;576.592;321.808;12.4999;563.39;323.312;0;23;1;-0.612682;-1.20236;-1.2376;-0.549573;-1.27612;-1.30362;-2.24591;1.62614;1.49223;-0.488766;0.667738;-1.16194;370;145;7.81066; -nan; -nan;0;7;1;0.339339;-0.980943;-2.60204;0.333781;-0.969443;-2.61664;0.55996;-0.125296;1.0574;-0.624485;0.349325;3.94753;1;-0.679298;-0.268916;1.11334;0.473119;-1.23094;-2.39776;-41.3328;19.1399;-41.3328;640.322;1824;731;1228;1024;913;1024;1024;1024;1;3;0;0.016707;-1.3586;-0.349591;1.37832; 
830;834;2019/10/02 16:15:45;0;584.277;323.881;12.6758;573.105;323.409;0;24;1;-0.63443;-1.19248;-1.21593;-0.57503;-1.25103;-1.27731;-2.12503;1.65184;1.50852;0.99137;0.923024;-0.90923;369;146;8.10166; -nan; -nan;0;8;1;0.333309;-0.950852;-2.50519;0.33364;-0.963866;-2.5832;0.443404;-0.055709;1.21969;-1.75893;0.849192;4.71716;1;-0.679298;-0.268916;1.11334;0.448177;-1.20085;-2.28828;-41.3328;19.1399;-41.3328;640.322;1824;731;1228;1024;913;1024;1024;1024;1;3;0;0.0167061;-1.3586;-0.349591;1.37832; 
831;835;2019/10/02 16:15:45;0;590.795;326.227;13.1091;582.083;324.207;0;25;1;-0.638273;-1.16052;-1.17082;-0.594003;-1.22388;-1.24537;-1.97521;1.66936;1.5421;2.52576;1.23309;-0.431178;369;146;8.10166; -nan; -nan;1;0;1;0.333309;-0.950852;-2.50519;0.33364;-0.963866;-2.5832;0.443404;-0.055709;1.21969;-1.75893;0.849192;4.71716;1;-0.679298;-0.268916;1.11334;0.429464;-1.20085;-2.24069;-41.3328;19.1399;-41.3328;640.322;1824;731;1228;1024;913;1024;1024;1024;1;3;0;0.016707;-1.3586;-0.349591;1.37832; 
832;836;2019/10/02 16:15:45;0;596.706;328.824;13.4205;590.325;325.595;0;26;1;-0.645438;-1.14166;-1.13835;-0.609433;-1.19921;-1.21326;-1.79298;1.68071;1.60296;4.15719;1.55457;0.304764;369;148;8.02907; -nan; -nan;0;1;1;0.336322;-0.969828;-2.521;0.334444;-0.965654;-2.56454;0.329354;-0.0323067;1.16193;-2.64298;1.11933;4.28783;1;-0.679298;-0.268916;1.11334;0.435669;-1.21983;-2.24772;-41.3328;19.1399;-41.3328;640.322;1824;731;1228;1024;913;1024;1024;1024;1;3;0;0.0167061;-1.3586;-0.349591;1.37832; 
833;837;2019/10/02 16:15:45;0;600.7;331.8;13.5211;597.428;327.533;0;27;1;-0.655377;-1.14233;-1.12383;-0.623216;-1.18215;-1.18643;-1.59261;1.65227;1.66426;5.81861;1.60112;1.11569;368.8;148.4;8.0529; -nan; -nan;0;2;1;0.336567;-0.969028;-2.51218;0.335081;-0.966667;-2.54883;0.234985;-0.0111352;1.13285;-3.42269;1.34403;3.7217;1;-0.679298;-0.268916;1.11334;0.410104;-1.21903;-2.25275;-41.3328;19.1399;-41.3328;640.322;1824;731;1228;1024;913;1024;1024;1024;1;3;0;0.016707;-1.3586;-0.349591;1.37832; 
834;838;2019/10/02 16:15:45;0;602.75;332.786;13.7137;603.087;329.251;0;28;1;-0.653634;-1.12929;-1.10608;-0.632342;-1.16629;-1.16233;-1.39378;1.55579;1.6753;7.27984;0.871158;1.44764;368.8;148.4;8.0529; -nan; -nan;1;0;1;0.336567;-0.969028;-2.51218;0.335081;-0.966667;-2.54883;0.234985;-0.0111352;1.13285;-3.42269;1.34403;3.7217;1;-0.679298;-0.268916;1.11334;0.389385;-1.21903;-2.25755;-41.3328;19.1399;-41.3328;640.322;1824;731;1228;1024;913;1024;1024;1024;1;3;0;0.0167061;-1.3586;-0.349591;1.37832; 
835;839;2019/10/02 16:15:45;0;603.208;332.226;13.9371;607.191;330.326;0;29;1;-0.644791;-1.10951;-1.08945;-0.636076;-1.14926;-1.14046;-1.18145;1.43972;1.65625;8.6155;-0.22119;1.52309;368;152;8.00571; -nan; -nan;0;1;1;0.343537;-0.993477;-2.51464;0.337618;-0.97471;-2.53858;0.162709;-0.00833265;1.06935;-3.73013;1.38494;2.96183;1;-0.679298;-0.268916;1.11334;0.397169;-1.24348;-2.25608;-41.3328;19.1399;-41.3328;640.322;1824;731;1228;1024;913;1024;1024;1024;1;3;0;0.016707;-1.3586;-0.349591;1.37832; 
836;840;2019/10/02 16:15:45;0;601.911;330.711;14.204;609.608;330.628;0;30;1;-0.628121;-1.08422;-1.0719;-0.63369;-1.12974;-1.1199;-0.942945;1.34781;1.62192;9.88628;-1.34593;1.36633;366;153;8.05671; -nan; -nan;0;2;1;0.353749;-0.992361;-2.49532;0.342457;-0.980005;-2.5256;0.130719;-0.0513586;0.932784;-3.76888;1.10041;1.63379;1;-0.679298;-0.268916;1.11334;0.390361;-1.24236;-2.2547;-41.3328;19.1399;-41.3328;640.322;1824;731;1228;1024;913;1024;1024;1024;1;3;0;0.0167058;-1.3586;-0.349591;1.37832; 
837;841;2019/10/02 16:15:45;0;599.792;328.083;14.4304;610.537;330.018;0;31;1;-0.61094;-1.05962;-1.06009;-0.626865;-1.10871;-1.10195;-0.6969;1.26826;1.54542;11.0327;-2.4081;0.833046;365;155;7.96001; -nan; -nan;0;3;1;0.364316;-1.01489;-2.51873;0.349015;-0.990469;-2.52354;0.124023;-0.093742;0.838295;-3.56602;0.754683;0.324532;1;-0.679298;-0.268916;1.11334;0.393324;-1.26489;-2.31173;-41.3328;19.1399;-41.3328;640.322;1824;731;1228;1024;913;1024;1024;1024;1;3;0;0.016707;-1.3586;-0.349591;1.37832; 
838;842;2019/10/02 16:15:45;0;596.222;324.667;14.5682;609.927;328.494;0;32;1;-0.592933;-1.03982;-1.0565;-0.616685;-1.08804;-1.08832;-0.447078;1.20456;1.42583;11.9903;-3.34488;-0.207002;364;156;7.89998; -nan; -nan;0;4;1;0.3734;-1.02787;-2.5344;0.35633;-1.00169;-2.5268;0.142324;-0.169447;0.671792;-3.0407;0.112408;-1.44506;1;-0.679298;-0.268916;1.11334;0.400588;-1.27787;-2.35063;-41.3328;19.1399;-41.3328;640.322;1824;731;1228;1024;913;1024;1024;1024;1;3;0;0.0167061;-1.3586;-0.349591;1.37832; 
839;843;2019/10/02 16:15:45;0;590.312;321.125;14.5849;607.466;326.266;0;33;1;-0.572037;-1.02852;-1.06196;-0.603291;-1.07019;-1.08041;-0.188736;1.16951;1.27857;12.7962;-3.93334;-1.66327;364;156;7.89998; -nan; -nan;1;0;1;0.3734;-1.02787;-2.5344;0.35633;-1.00169;-2.5268;0.142324;-0.169447;0.671792;-3.0407;0.112408;-1.44506;1;-0.679298;-0.268916;1.11334;0.403329;-1.27787;-2.39313;-41.3328;19.1399;-41.3328;640.322;1824;731;1228;1024;913;1024;1024;1024;1;3;0;0.016707;-1.3586;-0.349591;1.37832; 
840;844;2019/10/02 16:15:45;0;584.051;316.051;14.5761;603.55;323.046;0;34;1;-0.550944;-1.01463;-1.07216;-0.587587;-1.05352;-1.07793;0.0653475;1.15171;1.10391;13.5002;-3.97245;-3.27805;360;160;8.07969; -nan; -nan;0;1;1;0.389799;-1.02564;-2.46443;0.366371;-1.00887;-2.50809;0.180945;-0.23102;0.572035;-2.26858;-0.527273;-2.63251;1;-0.679298;-0.268916;1.11334;0.418589;-1.27564;-2.32854;-41.3328;19.1399;-41.3328;640.322;1824;731;1228;1024;913;1024;1024;1024;1;3;0;0.0167061;-1.3586;-0.349591;1.37832; 
841;845;2019/10/02 16:15:45;0;575.876;309.732;14.506;597.984;318.714;0;35;1;-0.525487;-1.00138;-1.08929;-0.568957;-1.03788;-1.08134;0.307042;1.13547;0.898263;14.0398;-3.59755;-4.99151;358.667;160.667;8.12365; -nan; -nan;0;2;1;0.39588;-1.02351;-2.44885;0.375223;-1.01326;-2.49032;0.228707;-0.278074;0.518357;-1.37994;-1.11527;-3.41857;1;-0.679298;-0.268916;1.11334;0.431073;-1.27351;-2.33759;-41.3328;19.1399;-41.3328;640.322;1824;731;1228;1024;913;1024;1024;1024;1;3;0;0.016707;-1.3586;-0.349591;1.37832; 
842;846;2019/10/02 16:15:45;0;567.284;301.633;14.3886;591.095;313.017;0;36;1;-0.499978;-0.986099;-1.11363;-0.548263;-1.02234;-1.09103;0.52511;1.10985;0.654145;14.282;-3.10808;-6.85668;356;162;8.39618; -nan; -nan;0;3;1;0.398878;-0.996904;-2.365;0.38232;-1.00836;-2.45272;0.290124;-0.28193;0.604675;-0.392152;-1.60497;-3.64051;1;-0.679298;-0.268916;1.11334;0.440458;-1.2469;-2.27076;-41.3328;19.1399;-41.3328;640.322;1824;731;1228;1024;913;1024;1024;1024;1;3;0;0.0167061;-1.3586;-0.349591;1.37832; 
843;847;2019/10/02 16:15:45;0;556.583;292.533;14.1314;582.593;306.017;0;37;1;-0.471293;-0.977218;-1.15159;-0.525172;-1.00881;-1.1092;0.72086;1.06455;0.363589;14.2266;-2.6777;-8.82999;355.333;162.667;8.13356; -nan; -nan;0;4;1;0.415848;-1.03251;-2.43911;0.392378;-1.0156;-2.44864;0.344822;-0.290913;0.626037;0.497022;-1.78235;-3.2335;1;-0.679298;-0.268916;1.11334;0.470636;-1.28251;-2.32492;-41.3328;19.1399;-41.3328;640.322;1824;731;1228;1024;913;1024;1024;1024;1;3;0;0.016707;-1.3586;-0.349591;1.37832; 
844;848;2019/10/02 16:15:45;0;544.766;282.75;13.7671;572.579;297.863;0;38;1;-0.440928;-0.973461;-1.20156;-0.499899;-0.998203;-1.13691;0.89854;0.997231;0.0242692;13.9055;-2.43394;-10.8908;353;163;8.35189; -nan; -nan;0;5;1;0.418917;-1.00718;-2.37425;0.40034;-1.01308;-2.42632;0.382447;-0.25187;0.708138;1.18213;-1.61027;-2.38529;1;-0.679298;-0.268916;1.11334;0.480419;-1.25718;-2.2626;-41.3328;19.1399;-41.3328;640.322;1824;731;1228;1024;913;1024;1024;1024;1;3;0;0.0167058;-1.3586;-0.349591;1.37832; 
845;849;2019/10/02 16:15:45;0;531.561;272.195;13.5001;561.047;288.636;0;39;1;-0.400841;-0.960137;-1.24679;-0.470181;-0.986783;-1.16987;1.07028;0.931148;-0.342424;13.3673;-2.41152;-13.0029;352;163;8.32687; -nan; -nan;0;6;1;0.426169;-1.01021;-2.38139;0.408089;-1.01221;-2.41284;0.406501;-0.18712;0.814644;1.61286;-1.02661;-0.942565;1;-0.679298;-0.268916;1.11334;0.493688;-1.26021;-2.25637;-41.3328;19.1399;-41.3328;640.322;1824;731;1228;1024;913;1024;1024;1024;1;3;0;0.016707;-1.3586;-0.349591;1.37832; 
846;850;2019/10/02 16:15:45;0;517.008;261.58;13.2843;548.005;278.622;0;40;1;-0.352689;-0.942437;-1.28898;-0.434934;-0.973479;-1.20561;1.25132;0.878081;-0.714912;12.7528;-2.53879;-15.0595;351;163;8.36993; -nan; -nan;0;7;1;0.429938;-1.00501;-2.36914;0.414643;-1.01005;-2.39973;0.43653;-0.116974;0.921177;1.98762;-0.160874;0.827698;1;-0.679298;-0.268916;1.11334;0.499765;-1.25501;-2.2292;-41.3328;19.1399;-41.3328;640.322;1824;731;1228;1024;913;1024;1024;1024;1;3;0;0.0167061;-1.3586;-0.349591;1.37832; 
847;851;2019/10/02 16:15:45;0;501.712;250.203;12.8138;533.652;267.811;0;41;1;-0.30607;-0.940042;-1.36068;-0.396275;-0.963448;-1.25213;1.43986;0.823855;-1.11045;12.1721;-2.76673;-17.0513;350;164;8.48413; -nan; -nan;0;8;1;0.430033;-0.996393;-2.33401;0.41926;-1.00595;-2.38002;0.437645;-0.0410148;0.992853;2.02633;0.84945;2.39008;1;-0.679298;-0.268916;1.11334;0.499591;-1.24639;-2.18723;-41.3328;19.1399;-41.3328;640.322;1824;731;1228;1024;913;1024;1024;1024;1;3;0;0.016707;-1.3586;-0.349591;1.37832; 
848;852;2019/10/02 16:15:45;0;485.424;238.712;12.4938;518.056;256.397;0;42;1;-0.248857;-0.925799;-1.42079;-0.352049;-0.952153;-1.30273;1.64689;0.774404;-1.51102;11.7796;-2.99859;-18.8706;348.667;162.667;8.44401; -nan; -nan;0;9;1;0.439955;-0.994547;-2.34944;0.425469;-1.00253;-2.37084;0.434771;-0.00136805;0.922445;1.79301;1.62924;2.7021;1;-0.679298;-0.268916;1.11334;0.505124;-1.24455;-2.20159;-41.3328;19.1399;-41.3328;640.322;1824;731;1228;1024;913;1024;1024;1024;1;3;0;0.0167061;-1.3586;-0.349591;1.37832; 
849;853;2019/10/02 16:15:45;0;468.466;227.276;12.2299;501.371;244.581;0;43;1;-0.185034;-0.90681;-1.47712;-0.301945;-0.93855;-1.35504;1.8789;0.744993;-1.88764;11.6888;-3.07433;-20.3057;346.667;163.333;8.45606; -nan; -nan;0;10;1;0.45113;-0.996415;-2.34392;0.433167;-1.0007;-2.36277;0.423629;0.058656;0.896134;1.39028;2.37249;2.69907;1;-0.679298;-0.268916;1.11334;0.508247;-1.24642;-2.22274;-41.3328;19.1399;-41.3328;640.322;1824;731;1228;1024;913;1024;1024;1024;1;3;0;0.016707;-1.3586;-0.349591;1.37832; 
850;854;2019/10/02 16:15:45;0;451.018;216.491;11.7022;483.768;232.694;0;44;1;-0.11898;-0.909297;-1.56902;-0.247055;-0.929774;-1.41924;2.13628;0.720052;-2.25919;11.9523;-2.95065;-21.2953;345;163;8.11477; -nan; -nan;0;11;1;0.480353;-1.03661;-2.44363;0.447323;-1.01147;-2.38703;0.441661;0.0415946;0.694492;1.07046;2.59455;1.56499;1;-0.679298;-0.268916;1.11334;0.531874;-1.28661;-2.33465;-41.3328;19.1399;-41.3328;640.322;1824;731;1228;1024;913;1024;1024;1024;1;3;0;0.0167061;-1.3586;-0.349591;1.37832; 
851;855;2019/10/02 16:15:45;0;432.706;205.345;11.465;465.25;220.658;0;45;1;-0.0417402;-0.887601;-1.62818;-0.185461;-0.917122;-1.48192;2.41791;0.710005;-2.60071;12.549;-2.65283;-21.7886;343;163;8.49572; -nan; -nan;0;12;1;0.470561;-0.990129;-2.33406;0.454294;-1.00507;-2.37114;0.449377;0.0534735;0.583123;0.813371;2.51681;0.0151209;1;-0.679298;-0.268916;1.11334;0.509769;-1.24013;-2.27241;-41.3328;19.1399;-41.3328;640.322;1824;731;1228;1024;913;1024;1024;1024;1;3;0;0.016707;-1.3586;-0.349591;1.37832; 
852;856;2019/10/02 16:15:45;0;414.157;194.87;11.0408;446.023;208.744;0;46;1;0.0404913;-0.882167;-1.71678;-0.117675;-0.906635;-1.55238;2.71673;0.692735;-2.94418;13.377;-2.3313;-21.9688;340;164;8.21183; -nan; -nan;0;13;1;0.505058;-1.02943;-2.41141;0.469523;-1.01238;-2.38322;0.488622;0.022807;0.41577;0.695891;2.06788;-2.00773;1;-0.679298;-0.268916;1.11334;0.538986;-1.27943;-2.36738;-41.3328;19.1399;-41.3328;640.322;1824;731;1228;1024;913;1024;1024;1024;1;3;0;0.0167061;-1.3586;-0.349591;1.37832; 
853;857;2019/10/02 16:15:45;0;395.274;184.814;10.6203;426.204;197.067;0;47;1;0.130812;-0.87764;-1.81074;-0.0431289;-0.897937;-1.62988;3.03923;0.677057;-3.27391;14.4083;-1.98456;-21.8143;338;164;8.47984; -nan; -nan;0;14;1;0.500864;-0.996896;-2.33519;0.478926;-1.00773;-2.36881;0.531265;0.00658676;0.294176;0.791123;1.43068;-3.99268;1;-0.679298;-0.268916;1.11334;0.528571;-1.2469;-2.31162;-41.3328;19.1399;-41.3328;640.322;1824;731;1228;1024;913;1024;1024;1024;1;3;0;0.0167068;-1.3586;-0.349591;1.37832; 
854;858;2019/10/02 16:15:45;0;376.4;175.333;10.469;405.989;185.76;0;48;1;0.222667;-0.852593;-1.86178;0.0366099;-0.884333;-1.69945;3.37444;0.676863;-3.54744;15.5386;-1.57997;-21.2147;335;165;8.47511; -nan; -nan;0;15;1;0.518807;-1.00237;-2.33326;0.49089;-1.00612;-2.35814;0.579821;-0.0103817;0.227173;1.05349;0.822438;-5.17007;1;-0.679298;-0.268916;1.11334;0.550862;-1.25237;-2.31551;-41.3328;19.1399;-41.3328;640.322;650;731;1228;1024;913;1024;1024;1024;1;3;0;0.0167061;-1.3586;-0.349591;1.37832; 
855;859;2019/10/02 16:15:45;0;357.474;166.147;10.1284;385.498;174.828;0;49;1;0.3234;-0.843471;-1.94929;0.122647;-0.872075;-1.7744;3.71895;0.671381;-3.80188;16.6657;-1.24172;-20.3674;332.4;165.2;8.27342; -nan; -nan;0;16;1;0.547136;-1.02781;-2.38948;0.507764;-1.01263;-2.36754;0.645569;-0.0538504;0.117243;1.51774;0.0445102;-6.21018;1;-0.679298;-0.268916;1.11334;0.584473;-1.27781;-2.37485;-41.3328;19.1399;-41.3328;640.322;650;731;1228;1024;913;1024;1024;1024;1;3;0;0.016707;-1.3586;-0.349591;1.37832; 
856;860;2019/10/02 16:15:45;0;338.962;157.139;9.60457;364.968;164.238;0;50;1;0.437213;-0.850391;-2.08134;0.217017;-0.86557;-1.86648;4.0832;0.659029;-4.06582;17.7684;-0.98854;-19.4296;332.4;165.2;8.27342; -nan; -nan;1;0;1;0.547136;-1.02781;-2.38948;0.507764;-1.01263;-2.36754;0.645569;-0.0538504;0.117243;1.51774;0.0445102;-6.21018;1;-0.679298;-0.268916;1.11334;0.591151;-1.27781;-2.38148;-41.3328;19.1399;-41.3328;640.322;650;731;1228;1024;913;1024;1024;1024;1;3;0;0.0167061;-1.3586;-0.349591;1.37832; 
857;861;2019/10/02 16:15:45;0;320.428;147.941;9.53838;344.432;153.847;0;51;1;0.537208;-0.816109;-2.12226;0.313074;-0.850731;-1.94322;4.43927;0.660343;-4.28025;18.7271;-0.791297;-18.3598;326;166;8.56567; -nan; -nan;0;1;1;0.565752;-0.996637;-2.30538;0.52516;-1.00783;-2.3489;0.653575;-0.0198656;0.200769;1.63547;-0.183511;-5.41483;1;-0.679298;-0.268916;1.11334;0.61292;-1.24664;-2.29682;-41.3328;19.1399;-41.3328;640.322;650;731;1228;1024;913;1024;1024;1024;1;3;0;0.016707;-1.3586;-0.349591;1.37832; 
858;862;2019/10/02 16:15:45;0;302.107;140.214;9.57953;323.986;144.08;0;52;1;0.630333;-0.778994;-2.13529;0.408252;-0.82921;-2.00084;4.76222;0.705163;-4.35769;19.3986;-0.425185;-16.6564;325.333;166.667;8.48512; -nan; -nan;0;2;1;0.575044;-1.00937;-2.32511;0.540125;-1.00829;-2.34176;0.685723;-0.0229546;0.220939;1.78968;-0.371522;-4.48772;1;-0.679298;-0.268916;1.11334;0.625509;-1.25937;-2.30961;-41.3328;19.1399;-41.3328;640.322;650;731;1228;1024;913;1024;1024;1024;1;3;0;0.0167061;-1.3586;-0.349591;1.37832; 
859;863;2019/10/02 16:15:45;0;283;133;9.45262;303.381;134.937;0;53;1;0.739661;-0.75765;-2.18491;0.507675;-0.807742;-2.05606;5.05525;0.783009;-4.31522;19.6838;0.167676;-14.1491;323;167;8.49748; -nan; -nan;0;3;1;0.587909;-1.00954;-2.32065;0.554461;-1.00867;-2.33543;0.701952;-0.00108342;0.29602;1.80348;-0.304628;-3.10222;1;-0.679298;-0.268916;1.11334;0.642312;-1.25954;-2.30313;-41.3328;19.1399;-41.3328;640.322;650;731;1228;1024;913;1024;1024;1024;1;3;0;0.016707;-1.3586;-0.349591;1.37832; 
860;864;2019/10/02 16:15:45;0;267.128;126.564;8.88214;283.718;126.503;0;54;1;0.876335;-0.776119;-2.34513;0.618273;-0.798255;-2.14278;5.35421;0.81329;-4.35818;19.7103;0.645005;-11.7246;323;167;8.50066; -nan; -nan;0;4;1;0.587689;-1.00916;-2.31978;0.564429;-1.00882;-2.33074;0.713627;-0.00435155;0.307844;1.70584;-0.22019;-1.81458;1;-0.679298;-0.268916;1.11334;0.645869;-1.25916;-2.29525;-41.3328;19.1399;-41.3328;640.322;650;731;1228;1024;913;1024;1024;1024;1;3;0;0.0167061;-1.3586;-0.349591;1.37832; 
861;865;2019/10/02 16:15:45;0;252.311;120.711;9.05788;265.096;118.775;0;55;1;0.94096;-0.734135;-2.31737;0.715079;-0.779019;-2.19516;5.57657;0.859303;-4.29389;19.2388;1.13689;-8.99808;321.333;166.667;8.50542; -nan; -nan;0;5;1;0.597138;-1.00696;-2.31956;0.574242;-1.00826;-2.32738;0.713271;-0.00991521;0.28992;1.47995;-0.130518;-0.874131;1;-0.679298;-0.268916;1.11334;-0.356032;-1.44589;-1.45293;-41.3328;19.1399;-41.3328;640.322;650;1327;798;1024;913;1024;1024;1024;1;3;0;0.0167068;-1.3586;-0.349591;1.37832; 
862;866;2019/10/02 16:15:45;0;238.17;115.319;8.73785;247.467;111.712;0;56;1;1.05618;-0.735311;-2.41919;0.817409;-0.765907;-2.26237;5.74174;0.913276;-4.15606;18.1615;1.69668;-5.75893;321;167;8.65492; -nan; -nan;0;6;1;0.588746;-0.991174;-2.27844;0.578593;-1.00313;-2.3127;0.670227;0.0265343;0.361538;0.972312;0.196638;0.311112;1;-0.679298;-0.268916;1.11334;-0.356032;-1.44589;-1.45293;-41.3328;19.1399;-41.3328;640.322;650;1331;804;1024;913;1024;1024;1024;1;3;0;0.0167061;-1.3586;-0.349591;1.37832; 
863;867;2019/10/02 16:15:45;0;224.545;110.818;8.49259;230.753;105.424;0;57;1;1.16674;-0.734461;-2.5036;0.922207;-0.756473;-2.33474;5.87624;0.924173;-4.05629;16.6322;2.07102;-2.56145;320.667;166.667;8.49122; -nan; -nan;0;7;1;0.602055;-1.00865;-2.32344;0.585631;-1.00479;-2.31592;0.643495;0.028073;0.348526;0.543153;0.30932;0.77641;1;-0.679298;-0.268916;1.11334;-0.356032;-1.44589;-1.45293;-41.3328;19.1399;-41.3328;640.322;650;1333;810;1024;913;1024;1024;1024;1;3;0;0.0166858;-1.3586;-0.349591;1.37832; 
864;868;2019/10/02 16:15:45;0;211.512;106.634;8.38655;214.883;99.7876;0;58;1;1.25903;-0.722959;-2.54895;1.02326;-0.746419;-2.399;5.98037;0.884943;-4.02294;14.8412;1.96016;-0.200783;319;167;8.52183; -nan; -nan;0;8;1;0.609651;-1.00665;-2.31402;0.592837;-1.00535;-2.31535;0.596487;0.0286056;0.314518;-0.0302775;0.391385;0.839349;1;-0.679298;-0.268916;1.11334;-0.356032;-1.44589;-1.45293;-41.3328;19.1399;-41.3328;640.322;650;1334;814;1024;913;1024;1024;1024;1;3;0;0.0167061;-1.3586;-0.349591;1.37832; 
865;869;2019/10/02 16:15:45;0;199.73;102.757;8.20486;200.049;94.728;0;59;1;1.35857;-0.719277;-2.61837;1.12385;-0.738276;-2.46481;6.04754;0.808222;-4.0452;12.8652;1.27673;0.957242;320;166;8.62428; -nan; -nan;0;9;1;0.596623;-0.989864;-2.28972;0.593973;-1.0007;-2.30766;0.515599;0.048956;0.299538;-0.761957;0.434554;0.517651;1;-0.679298;-0.268916;1.11334;-0.356032;-1.44589;-1.45293;-41.3328;19.1399;-41.3328;640.322;650;1331;817;1024;913;1024;1024;1024;1;3;0;0.0167068;-1.3586;-0.349591;1.37832; 
866;870;2019/10/02 16:15:45;0;188.467;99.5333;8.1736;186.142;90.2952;0;60;1;1.43253;-0.705595;-2.63921;1.21645;-0.728472;-2.51713;6.01602;0.763456;-3.92125;10.3606;0.567135;2.31824;318.667;166.667;8.60766; -nan; -nan;0;10;1;0.605505;-0.995002;-2.29201;0.597432;-0.998993;-2.30297;0.441087;0.0685811;0.290557;-1.54497;0.55183;0.241595;1;-0.679298;-0.268916;1.11334;-0.356032;-1.44589;-1.45293;-41.3328;19.1399;-41.3328;640.322;1824;1331;817;1024;913;1024;1024;1024;1;3;0;0.0167061;-1.3586;-0.349591;1.37832; 
867;871;2019/10/02 16:15:45;0;177.739;96.8696;7.50044;173.088;86.4927;0;61;1;1.63247;-0.754122;-2.88583;1.63247;-0.754122;-2.88583;0;0;0;0;0;0;318;167;8.64313; -nan; -nan;0;11;1;0.606868;-0.992526;-2.28155;0.600263;-0.997053;-2.29654;0.368512;0.0858809;0.297439;-2.30302;0.71345;0.17497;1;-0.679298;-0.268916;1.11334;-0.356032;-1.44589;-1.45293;-41.3328;19.1399;-41.3328;640.322;1824;1331;817;1024;913;1024;1024;1024;1;3;0;0.016707;-1.3586;-0.349591;1.37832; 
868;872;2019/10/02 16:15:45;0;167.158;94.8421;6.63294;160.706;83.3477;0;62;1;1.92558;-0.840015;-3.27165;1.92558;-0.840015;-3.27165;0;0;0;0;0;0;317;167;8.60495; -nan; -nan;0;12;1;0.61536;-0.99693;-2.29167;0.604792;-0.997016;-2.29508;0.325677;0.0759495;0.248796;-2.75702;0.625301;-0.345008;1;-0.679298;-0.268916;1.11334;-0.356032;-1.44589;-1.45293;-41.3328;19.1399;-41.3328;640.322;1824;1331;817;1024;888;1024;1024;1024;1;3;0;0.0167061;-1.3586;-0.349591;1.37832; 
869;873;2019/10/02 16:15:45;0;159.826;93.1304;6.47858;149.852;80.7755;0;63;1;2.02793;-0.84902;-3.35685;1.95628;-0.842716;-3.29721;0;0;0;0;0;0;315;168;8.5179; -nan; -nan;0;13;1;0.633366;-1.01201;-2.31187;0.613364;-1.00151;-2.30012;0.306073;0.0586348;0.212357;-3.00068;0.497137;-0.750381;1;-0.679298;-0.268916;1.11334;-0.356032;-1.44589;-1.45293;-41.3328;19.1399;-41.3328;640.322;1824;1331;817;1024;888;1024;1024;1024;1;3;0;0.0167068;-1.3586;-0.349591;1.37832; 
870;874;2019/10/02 16:15:45;0;151;91;6.39438;139.632;78.4803;0;64;1;2.1235;-0.846316;-3.4102;2.00645;-0.843796;-3.33111;0;0;0;0;0;0;314;168;8.6324; -nan; -nan;0;14;1;0.630745;-0.998587;-2.2812;0.618578;-1.00064;-2.29444;0.286362;0.0539844;0.210862;-3.03796;0.399556;-0.863864;1;-0.679298;-0.268916;1.11334;-0.356032;-1.44589;-1.45293;-41.3328;19.1399;-41.3328;640.322;1824;1331;817;1024;888;1024;1024;1024;1;3;0;0.0167061;-1.3586;-0.349591;1.37832; 
871;875;2019/10/02 16:15:45;0;143.8;88.1;6.30646;130.391;76.1341;0;65;1;2.21008;-0.838954;-3.47037;2.06754;-0.842344;-3.37289;0;0;0;0;0;0;311;169;8.49457; -nan; -nan;0;15;1;0.658603;-1.0197;-2.31499;0.630586;-1.00635;-2.3006;0.317918;0.00983961;0.154679;-2.61161;0.083641;-1.09638;1;-0.679298;-0.268916;1.11334;-0.356032;-1.44589;-1.45293;-41.3328;19.1399;-41.3328;640.322;1824;1331;817;1024;888;1024;1024;1024;1;3;0;0.016707;-1.3586;-0.349591;1.37832; 
872;876;2019/10/02 16:15:45;0;137.6;85;6.04733;122.178;73.6816;0;66;1;2.35594;-0.853543;-3.63315;2.15406;-0.845703;-3.45096;0;0;0;0;0;0;309;170;9.22612; -nan; -nan;0;16;1;0.617198;-0.943358;-2.12845;0.626569;-0.987455;-2.24896;0.30702;0.0519436;0.308326;-2.10196;-0.016207;-0.586922;1;-0.679298;-0.268916;1.11334;-0.356032;-1.44589;-1.45293;-41.3328;19.1399;-41.3328;640.322;1824;1331;817;1024;888;1024;1024;1024;1;3;0;0.0167058;-1.3586;-0.349591;1.37832; 
873;877;2019/10/02 16:15:45;0;133;81;5.51966;115.217;70.8584;0;67;1;2.62275;-0.904944;-4.00037;2.62275;-0.904944;-4.00037;0;0;0;0;0;0;306.667;171.333;8.70815; -nan; -nan;0;17;1;0.66728;-1.00585;-2.25085;0.638782;-0.992974;-2.24953;0.337922;0.0474427;0.372606;-1.38324;-0.163111;-0.0522013;1;-0.679298;-0.268916;1.11334;-0.356032;-1.44589;-1.45293;-41.3328;19.1399;-41.3328;640.322;1824;1331;817;1024;888;1024;1024;1024;1;3;0;0.016707;-1.3586;-0.349591;1.37832; 
874;878;2019/10/02 16:15:45;0;128.25;80.25;5.35032;109.112;68.7985;0;68;1;2.75007;-0.927744;-4.13083;2.66095;-0.911784;-4.03951;0;0;0;0;0;0;304.667;172.667;8.59031; -nan; -nan;0;18;1;0.688051;-1.02612;-2.27747;0.653563;-1.00292;-2.25791;0.397372;0.00491843;0.371894;-0.543847;-0.381314;0.459901;1;-0.679298;-0.268916;1.11334;-0.356032;-1.44589;-1.45293;-41.3328;19.1399;-41.3328;640.322;1824;1331;817;1024;888;1024;1024;1024;1;3;0;0.0167061;-1.3586;-0.349591;1.37832; 
875;879;2019/10/02 16:15:45;0;124.667;80.6667;5.2484;103.992;67.6588;0;69;1;2.83754;-0.949067;-4.20886;2.71392;-0.922969;-4.09031;0;0;0;0;0;0;304.667;172.667;8.59031; -nan; -nan;1;0;1;0.688051;-1.02612;-2.27747;0.653563;-1.00292;-2.25791;0.397372;0.00491843;0.371894;-0.543847;-0.381314;0.459901;1;-0.679298;-0.268916;1.11334;-0.356032;-1.44589;-1.45293;-41.3328;19.1399;-41.3328;640.322;224;1024;1024;1024;888;1024;1024;1024;1;3;0;0.016707;-1.3586;-0.349591;1.37832; 
876;880;2019/10/02 16:15:45;0;124.667;80.6667;5.2484;94.128;62.8993;1;0;1;2.83754;-0.949067;-4.20886;2.71392;-0.922969;-4.09031;0;0;0;0;0;0;299;175;8.5305; -nan; -nan;0;1;1;0.726023;-1.04471;-2.28593;0.675301;-1.01545;-2.26631;0.450273;-0.0447299;0.338754;0.166918;-0.582339;0.708271;1;-0.679298;-0.268916;1.11334;-0.356032;-1.44589;-1.45293;-41.3328;19.1399;-41.3328;640.322;224;1024;1024;1024;888;1024;1024;1024;1;3;0;0.016707;-1.3586;-0.349591;1.37832; 
877;881;2019/10/02 16:15:45;0;-1;-1;-1;-1;-1;1;0;0;0;0;0;0;0;0;0;0;0;0;0;0;297;175;8.77966; -nan; -nan;0;2;1;0.716786;-1.01506;-2.22105;0.687747;-1.01534;-2.25274;0.506747;-0.0771191;0.345904;0.853952;-0.797828;0.886861;0;-0.679298;-0.268916;1.11334;-0.356032;-1.44589;-1.45293;-41.3328;19.1399;-41.3328;640.322;224;1024;1024;1024;888;1024;1024;1024;1;3;0;0;-1.3586;-0.349591;1.37832; 
878;882;2019/10/02 16:15:45;0;-1;-1;-1;-1;-1;1;0;0;0;0;0;0;0;0;0;0;0;0;0;0;294;176;8.86712; -nan; -nan;0;3;1;0.726599;-1.00975;-2.19605;0.699402;-1.01366;-2.23573;0.53943;-0.0712613;0.429443;1.27003;-0.756096;1.47192;0;-0.679298;-0.268916;1.11334;-0.356032;-1.44589;-1.45293;-41.3328;19.1399;-41.3328;640.322;224;1024;1024;1024;888;1024;1024;1024;1;3;0;0;-1.3586;-0.349591;1.37832; 
879;883;2019/10/02 16:15:45;0;-1;-1;-1;-1;-1;1;0;0;0;0;0;0;0;0;0;0;0;0;0;0;292;176;8.73667; -nan; -nan;0;4;1;0.748871;-1.02482;-2.22884;0.714243;-1.01701;-2.23366;0.623537;-0.143844;0.309984;1.84463;-1.12333;0.888826;0;-0.679298;-0.268916;1.11334;-0.356032;-1.44589;-1.45293;-41.3328;19.1399;-41.3328;640.322;224;1024;1024;1024;888;1024;1024;1024;1;3;0;0;-1.3586;-0.349591;1.37832; 
880;884;2019/10/02 16:15:45;0;-1;-1;-1;-1;-1;1;0;0;0;0;0;0;0;0;0;0;0;0;0;0;290;177;8.93685; -nan; -nan;0;5;1;0.743264;-1.00653;-2.17584;0.722949;-1.01387;-2.21632;0.662007;-0.157767;0.29958;2.21529;-1.3759;0.283516;0;-0.679298;-0.268916;1.11334;-0.356032;-1.44589;-1.45293;-41.3328;19.1399;-41.3328;640.322;224;1024;1024;1024;888;1024;1024;1024;1;3;0;0;-1.3586;-0.349591;1.37832; 
881;885;2019/10/02 16:15:45;0;-1;-1;-1;-1;-1;1;0;0;0;0;0;0;0;0;0;0;0;0;0;0;288;176;8.91455; -nan; -nan;0;6;1;0.756318;-1.00438;-2.18436;0.73296;-1.01102;-2.20673;0.668772;-0.122374;0.354793;2.25746;-1.26093;0.111618;0;-0.679298;-0.268916;1.11334;-0.356032;-1.44589;-1.45293;-41.3328;19.1399;-41.3328;640.322;224;1024;1024;1024;888;1024;1024;1024;1;3;0;0;-1.3586;-0.349591;1.37832; 
882;886;2019/10/02 16:15:45;0;-1;-1;-1;-1;-1;1;0;0;0;0;0;0;0;0;0;0;0;0;0;0;286;176;8.9048; -nan; -nan;0;7;1;0.768354;-1.00548;-2.18676;0.743578;-1.00936;-2.20074;0.67372;-0.0490893;0.474549;2.24614;-0.773954;0.608856;0;-0.679298;-0.268916;1.11334;-0.356032;-1.44589;-1.45293;-41.3328;19.1399;-41.3328;640.322;224;1024;1024;1024;888;1024;1024;1024;1;3;0;0;-1.3586;-0.349591;1.37832; 
883;887;2019/10/02 16:15:46;0;-1;-1;-1;-1;-1;1;0;0;0;0;0;0;0;0;0;0;0;0;0;0;285;176;9.01233; -nan; -nan;0;8;1;0.764723;-0.993479;-2.16067;0.749922;-1.00459;-2.18872;0.652339;0.0134185;0.540192;1.92867;-0.103085;1.14061;0;-0.679298;-0.268916;1.11334;-0.356032;-1.44589;-1.45293;-41.3328;19.1399;-41.3328;640.322;224;1024;1024;1024;888;1024;1024;1024;1;3;0;0;-1.3586;-0.349591;1.37832; 
884;888;2019/10/02 16:15:46;0;-1;-1;-1;-1;-1;1;0;0;0;0;0;0;0;0;0;0;0;0;0;0;283;175;8.93847; -nan; -nan;0;9;1;0.782207;-0.997026;-2.18159;0.759607;-1.00232;-2.18658;0.631649;0.0532927;0.520251;1.5252;0.435179;1.04674;0;-0.679298;-0.268916;1.11334;-0.356032;-1.44589;-1.45293;-41.3328;19.1399;-41.3328;640.322;224;1024;1024;1024;888;1024;1024;1024;1;3;0;0;-1.3586;-0.349591;1.37832; 
885;889;2019/10/02 16:15:46;0;-1;-1;-1;-1;-1;1;0;0;0;0;0;0;0;0;0;0;0;0;0;0;281;175;8.97356; -nan; -nan;0;10;1;0.79027;-0.993128;-2.17306;0.768806;-0.999564;-2.18252;0.596721;0.101591;0.51622;0.808111;1.24051;1.45102;0;-0.679298;-0.268916;1.11334;-0.356032;-1.44589;-1.45293;-41.3328;19.1399;-41.3328;640.322;224;1024;1024;1024;888;1024;1024;1024;1;3;0;0;-1.3586;-0.349591;1.37832; 
886;890;2019/10/02 16:15:46;0;-1;-1;-1;-1;-1;1;0;0;0;0;0;0;0;0;0;0;0;0;0;0;280;174;8.79253; -nan; -nan;0;11;1;0.812216;-1.00884;-2.22092;0.781829;-1.00235;-2.19404;0.592991;0.106927;0.398613;0.209459;1.80056;1.2658;0;-0.679298;-0.268916;1.11334;-0.356032;-1.44589;-1.45293;-41.3328;19.1399;-41.3328;640.322;224;1024;1024;1024;888;1024;1024;1024;1;3;0;0;-1.3586;-0.349591;1.37832; 
887;891;2019/10/02 16:15:46;0;-1;-1;-1;-1;-1;1;0;0;0;0;0;0;0;0;0;0;0;0;0;0;278;173;8.73417; -nan; -nan;0;12;1;0.82907;-1.01081;-2.23891;0.796001;-1.00488;-2.2075;0.60736;0.0886389;0.236089;-0.11939;1.92238;0.285796;0;-0.679298;-0.268916;1.11334;-0.356032;-1.44589;-1.45293;-41.3328;19.1399;-41.3328;640.322;224;1024;1024;1024;888;1024;1024;1024;1;3;0;0;-1.3586;-0.349591;1.37832; 
888;892;2019/10/02 16:15:46;0;-1;-1;-1;-1;-1;1;0;0;0;0;0;0;0;0;0;0;0;0;0;0;276;173;8.86927; -nan; -nan;0;13;1;0.827693;-0.995409;-2.2048;0.805509;-1.00204;-2.20669;0.611549;0.0823718;0.117895;-0.319728;1.67802;-1.25174;0;-0.679298;-0.268916;1.11334;-0.356032;-1.44589;-1.45293;-41.3328;19.1399;-41.3328;640.322;224;1024;1024;1024;888;1024;1024;1024;1;3;0;0;-1.3586;-0.349591;1.37832; 
889;893;2019/10/02 16:15:46;0;-1;-1;-1;-1;-1;1;0;0;0;0;0;0;0;0;0;0;0;0;0;0;275;173;8.8246; -nan; -nan;0;14;1;0.837537;-1.00045;-2.21596;0.815117;-1.00156;-2.20947;0.627091;0.0615126;-0.012092;-0.292589;1.19873;-2.95492;0;-0.679298;-0.268916;1.11334;-0.356032;-1.44589;-1.45293;-41.3328;19.1399;-41.3328;640.322;224;1024;1024;1024;888;1024;1024;1024;1;3;0;0;-1.3586;-0.349591;1.37832; 
890;894;2019/10/02 16:15:46;0;-1;-1;-1;-1;-1;1;0;0;0;0;0;0;0;0;0;0;0;0;0;0;273;173;8.56821; -nan; -nan;0;15;1;0.874247;-1.03038;-2.28227;0.832856;-1.01021;-2.23131;0.668554;0.00543513;-0.185767;-0.0282857;0.528263;-4.5903;0;-0.679298;-0.268916;1.11334;-0.356032;-1.44589;-1.45293;-41.3328;19.1399;-41.3328;640.322;224;1024;1024;1024;888;1024;1024;1024;1;3;0;0;-1.3586;-0.349591;1.37832; 
891;895;2019/10/02 16:15:46;0;-1;-1;-1;-1;-1;1;0;0;0;0;0;0;0;0;0;0;0;0;0;0;271;171;8.6364; -nan; -nan;0;16;1;0.8789;-1.0126;-2.27061;0.846669;-1.01093;-2.2431;0.711844;-0.0420795;-0.353198;0.442422;-0.256355;-6.22357;0;-0.679298;-0.268916;1.11334;-0.356032;-1.44589;-1.45293;-41.3328;19.1399;-41.3328;640.322;224;1024;1024;1024;888;1024;1024;1024;1;3;0;0;-1.3586;-0.349591;1.37832; 
892;896;2019/10/02 16:15:46;0;-1;-1;-1;-1;-1;1;0;0;0;0;0;0;0;0;0;0;0;0;0;0;269;172;8.49195; -nan; -nan;0;17;1;0.905603;-1.03473;-2.306;0.864349;-1.01807;-2.26197;0.756401;-0.087986;-0.482986;0.917537;-0.93161;-7.25214;0;-0.679298;-0.268916;1.11334;-0.356032;-1.44589;-1.45293;-41.3328;19.1399;-41.3328;640.322;224;1024;1024;1024;888;1024;1024;1024;1;3;0;0;-1.3586;-0.349591;1.37832; 
893;897;2019/10/02 16:15:46;0;-1;-1;-1;-1;-1;1;0;0;0;0;0;0;0;0;0;0;0;0;0;0;267;171;8.62959; -nan; -nan;0;18;1;0.902723;-1.0134;-2.2724;0.875862;-1.01667;-2.2651;0.772521;-0.0998109;-0.519636;1.20959;-1.31097;-7.36699;0;-0.679298;-0.268916;1.11334;-0.356032;-1.44589;-1.45293;-41.3328;19.1399;-41.3328;640.322;224;1024;1024;1024;888;1024;1024;1024;1;3;0;0;-1.3586;-0.349591;1.37832; 
894;898;2019/10/02 16:15:46;0;-1;-1;-1;-1;-1;1;0;0;0;0;0;0;0;0;0;0;0;0;0;0;265;171;8.5176; -nan; -nan;0;19;1;0.92631;-1.02672;-2.30228;0.890996;-1.01968;-2.27625;0.804647;-0.130288;-0.589368;1.49631;-1.63519;-7.24251;0;-0.679298;-0.268916;1.11334;-0.356032;-1.44589;-1.45293;-41.3328;19.1399;-41.3328;640.322;224;1024;1024;1024;888;1024;1024;1024;1;3;0;0;-1.3586;-0.349591;1.37832; 
895;899;2019/10/02 16:15:46;0;-1;-1;-1;-1;-1;1;0;0;0;0;0;0;0;0;0;0;0;0;0;0;264;170;8.67604; -nan; -nan;0;20;1;0.915145;-1.00317;-2.2634;0.898241;-1.01473;-2.2724;0.814488;-0.130713;-0.60472;1.64559;-1.74818;-6.71037;0;-0.679298;-0.268916;1.11334;-0.356032;-1.44589;-1.45293;-41.3328;19.1399;-41.3328;640.322;224;1024;1024;1024;888;1024;1024;1024;1;3;0;0;-1.3586;-0.349591;1.37832; 
896;900;2019/10/02 16:15:46;0;-1;-1;-1;-1;-1;1;0;0;0;0;0;0;0;0;0;0;0;0;0;0;262;170;8.58947; -nan; -nan;0;21;1;0.935987;-1.01328;-2.28621;0.909565;-1.01429;-2.27654;0.794795;-0.0947304;-0.54332;1.49112;-1.44862;-5.45302;0;-0.679298;-0.268916;1.11334;-0.356032;-1.44589;-1.45293;-41.3328;19.1399;-41.3328;640.322;224;1024;1024;1024;888;1024;1024;1024;1;3;0;0;-1.3586;-0.349591;1.37832; 
897;901;2019/10/02 16:15:46;0;-1;-1;-1;-1;-1;1;0;0;0;0;0;0;0;0;0;0;0;0;0;0;261;168;8.78266; -nan; -nan;0;22;1;0.92108;-0.981502;-2.24217;0.913019;-1.00446;-2.26623;0.741644;-0.0310233;-0.418292;1.01359;-0.825052;-3.53157;0;-0.679298;-0.268916;1.11334;-0.356032;-1.44589;-1.45293;-41.3328;19.1399;-41.3328;640.322;224;1024;1024;1024;888;1024;1024;1024;1;3;0;0;-1.3586;-0.349591;1.37832; 
898;902;2019/10/02 16:15:46;0;-1;-1;-1;-1;-1;1;0;0;0;0;0;0;0;0;0;0;0;0;0;0;260;168;8.54243; -nan; -nan;0;23;1;0.952824;-1.0091;-2.30523;0.924961;-1.00585;-2.27793;0.686853;0.0301348;-0.31466;0.330623;-0.0236741;-1.44724;0;-0.679298;-0.268916;1.11334;-0.356032;-1.44589;-1.45293;-41.3328;19.1399;-41.3328;640.322;224;1024;1024;1024;863;1024;1024;1024;1;3;0;0;-1.3586;-0.349591;1.37832; 
899;903;2019/10/02 16:15:46;0;-1;-1;-1;-1;-1;1;0;0;0;0;0;0;0;0;0;0;0;0;0;0;259;167;8.57769; -nan; -nan;0;24;1;0.954724;-1.0001;-2.29895;0.93389;-1.00413;-2.28424;0.643671;0.0681266;-0.26516;-0.315798;0.655946;0.147137;0;-0.679298;-0.268916;1.11334;-0.356032;-1.44589;-1.45293;-41.3328;19.1399;-41.3328;640.322;224;1024;1024;1024;829;1024;1024;1024;1;3;0;0;-1.3586;-0.349591;1.37832; 
900;904;2019/10/02 16:15:46;0;-1;-1;-1;-1;-1;1;0;0;0;0;0;0;0;0;0;0;0;0;0;0;259.333;167.333;8.51839; -nan; -nan;0;25;1;0.959418;-1.00869;-2.31388;0.941548;-1.0055;-2.29313;0.58793;0.0974949;-0.22644;-1.05428;1.30253;1.53654;0;-0.679298;-0.268916;1.11334;-0.356032;-1.44589;-1.45293;-41.3328;19.1399;-41.3328;640.322;224;1024;1024;1024;719;1024;1024;1024;1;3;0;0;-1.3586;-0.349591;1.37832; 
901;905;2019/10/02 16:15:46;0;-1;-1;-1;-1;-1;1;0;0;0;0;0;0;0;0;0;0;0;0;0;0;259;167;8.54478; -nan; -nan;0;26;1;0.958401;-1.00395;-2.30781;0.946604;-1.00503;-2.29753;0.545751;0.0971962;-0.236167;-1.70496;1.69098;2.39263;0;-0.679298;-0.268916;1.11334;-0.356032;-1.44589;-1.45293;-41.3328;19.1399;-41.3328;640.322;224;1024;1024;1024;660;1024;1024;1024;1;3;0;0;-1.3586;-0.349591;1.37832; 
902;906;2019/10/02 16:15:46;0;-1;-1;-1;-1;-1;1;0;0;0;0;0;0;0;0;0;0;0;0;0;0;259.333;167.333;8.49525; -nan; -nan;0;27;1;0.962031;-1.01144;-2.32019;0.951232;-1.00695;-2.30433;0.493724;0.0876128;-0.252581;-2.22439;1.74222;2.59576;0;-0.679298;-0.268916;1.11334;-0.356032;-1.44589;-1.45293;-41.3328;19.1399;-41.3328;640.322;224;1024;1024;1024;559;1024;1024;1024;1;3;0;0;-1.3586;-0.349591;1.37832; 
903;907;2019/10/02 16:15:46;0;-1;-1;-1;-1;-1;1;0;0;0;0;0;0;0;0;0;0;0;0;0;0;259.333;167.333;8.49525; -nan; -nan;1;0;1;0.962031;-1.01144;-2.32019;0.951232;-1.00695;-2.30433;0.493724;0.0876128;-0.252581;-2.22439;1.74222;2.59576;0;-0.679298;-0.268916;1.11334;-0.356032;-1.44589;-1.45293;-41.3328;19.1399;-41.3328;640.322;224;1024;1024;1024;500;1024;1024;1024;1;3;0;0;-1.3586;-0.349591;1.37832; 
904;908;2019/10/02 16:15:46;0;-1;-1;-1;-1;-1;1;0;0;0;0;0;0;0;0;0;0;0;0;0;0;260;168;8.5; -nan; -nan;0;1;1;0.95758;-1.01414;-2.31674;0.953137;-1.00911;-2.30805;0.433453;0.036653;-0.294587;-2.38878;1.27681;1.98058;0;-0.679298;-0.268916;1.11334;-0.356032;-1.44589;-1.45293;-41.3328;19.1399;-41.3328;640.322;224;1024;1024;1024;432;1024;1024;1024;1;3;0;0;-1.3586;-0.349591;1.37832; 
905;909;2019/10/02 16:15:46;0;-1;-1;-1;-1;-1;1;0;0;0;0;0;0;0;0;0;0;0;0;0;0;260.667;167.333;8.57; -nan; -nan;0;2;1;0.945877;-1.00262;-2.29995;0.950959;-1.00716;-2.30562;0.348996;0.0175082;-0.271461;-2.58887;0.722901;1.3361;0;-0.679298;-0.268916;1.11334;-0.356032;-1.44589;-1.45293;-41.3328;19.1399;-41.3328;640.322;224;1024;1024;1024;373;1024;1024;1024;1;3;0;0;-1.3586;-0.349591;1.37832; 
906;910;2019/10/02 16:15:46;0;-1;-1;-1;-1;-1;1;0;0;0;0;0;0;0;0;0;0;0;0;0;0;262;168;8.52506; -nan; -nan;0;3;1;0.943058;-1.01116;-2.30993;0.948589;-1.00836;-2.30691;0.259674;-0.0039847;-0.240433;-2.86675;0.18709;0.886237;0;-0.679298;-0.268916;1.11334;-0.356032;-1.44589;-1.45293;-41.3328;19.1399;-41.3328;640.322;224;1024;1024;1024;238;1024;1024;1024;1;3;0;0;-1.3586;-0.349591;1.37832; 
907;911;2019/10/02 16:15:46;0;-1;-1;-1;-1;-1;1;0;0;0;0;0;0;0;0;0;0;0;0;0;0;263;167;8.36773; -nan; -nan;0;4;1;0.954826;-1.02519;-2.35664;0.95046;-1.01341;-2.32183;0.186286;-0.0294657;-0.24242;-3.09383;-0.322001;0.477085;0;-0.679298;-0.268916;1.11334;1.03255;-1.27519;-2.4286;-41.3328;19.1399;-41.3328;640.322;224;1024;1024;1024;204;1024;1024;1024;1;1;0;0;-1.3586;-0.349591;1.37832; 
908;912;2019/10/02 16:15:46;0;-1;-1;-1;-1;-1;1;0;0;0;0;0;0;0;0;0;0;0;0;0;0;263.333;167.333;8.46807; -nan; -nan;0;5;1;0.941548;-1.01469;-2.32763;0.947786;-1.01379;-2.32357;0.115816;-0.0476475;-0.234508;-3.32685;-0.688626;0.291925;0;-0.679298;-0.268916;1.11334;0.995972;-1.26469;-2.39846;-41.3328;19.1399;-41.3328;640.322;224;1024;1024;1024;204;1024;1024;1024;1;1;0;0;-1.3586;-0.349591;1.37832; 
909;913;2019/10/02 16:15:46;0;-1;-1;-1;-1;-1;1;0;0;0;0;0;0;0;0;0;0;0;0;0;0;265;167;8.46651; -nan; -nan;0;6;1;0.931899;-1.01323;-2.32914;0.94302;-1.01362;-2.32524;0.0414019;-0.0514062;-0.212236;-3.54323;-0.888675;0.313152;0;-0.679298;-0.268916;1.11334;0.965332;-1.26323;-2.39684;-41.3328;19.1399;-41.3328;640.322;224;1024;1024;1024;204;1024;1024;1024;1;1;0;0;-1.3586;-0.349591;1.37832; 
910;914;2019/10/02 16:15:46;0;-1;-1;-1;-1;-1;1;0;0;0;0;0;0;0;0;0;0;0;0;0;0;266;166;8.43733; -nan; -nan;0;7;1;0.929207;-1.0118;-2.34045;0.938876;-1.01308;-2.3298;-0.0320634;-0.0466712;-0.214148;-3.98357;-0.865708;0.508881;0;-0.679298;-0.268916;1.11334;0.94106;-1.2618;-2.40121;-41.3328;19.1399;-41.3328;640.322;224;1024;1024;1024;204;1024;1024;1024;1;1;0;0;-1.3586;-0.349591;1.37832; 
911;915;2019/10/02 16:15:46;0;-1;-1;-1;-1;-1;1;0;0;0;0;0;0;0;0;0;0;0;0;0;0;267;166;8.18004; -nan; -nan;0;8;1;0.952334;-1.04362;-2.41407;0.942914;-1.02224;-2.35508;-0.0513412;-0.0881695;-0.325869;-3.98767;-0.941129;0.0882154;0;-0.679298;-0.268916;1.11334;-0.356032;-1.44589;-1.45293;-41.3328;19.1399;-41.3328;640.322;224;1024;1024;1024;204;1024;1024;1024;0;1;0;0;-1.3586;-0.349591;1.37832; 
912;916;2019/10/02 16:15:46;0;-1;-1;-1;-1;-1;1;0;0;0;0;0;0;0;0;0;0;0;0;0;0;267;165;8.15413; -nan; -nan;0;9;1;0.955361;-1.04183;-2.42511;0.946648;-1.02812;-2.37609;-0.0385492;-0.131732;-0.471574;-3.58265;-1.07445;-0.86943;0;-0.679298;-0.268916;1.11334;-0.356032;-1.44589;-1.45293;-41.3328;19.1399;-41.3328;640.322;224;1024;1024;1024;204;1024;1024;1024;0;1;0;0;-1.3586;-0.349591;1.37832; 
913;917;2019/10/02 16:15:46;0;-1;-1;-1;-1;-1;1;0;0;0;0;0;0;0;0;0;0;0;0;0;0;269;165;8.06741; -nan; -nan;0;10;1;0.953259;-1.05303;-2.45117;0.948631;-1.03559;-2.39861;-0.0304268;-0.167542;-0.589354;-3.01438;-1.19566;-1.90609;0;-0.679298;-0.268916;1.11334;-0.356032;-1.44589;-1.45293;-41.3328;19.1399;-41.3328;640.322;224;1024;1024;1024;204;1024;1024;1024;0;1;0;0;-1.3586;-0.349591;1.37832; 
914;918;2019/10/02 16:15:46;0;-1;-1;-1;-1;-1;1;0;0;0;0;0;0;0;0;0;0;0;0;0;0;270;164;8.24737; -nan; -nan;0;11;1;0.926408;-1.025;-2.40101;0.941964;-1.03241;-2.39933;-0.0414893;-0.17482;-0.655948;-2.43635;-1.22487;-2.8254;0;-0.679298;-0.268916;1.11334;-0.356032;-1.44589;-1.45293;-41.3328;19.1399;-41.3328;640.322;224;1024;1024;1024;204;1024;1024;1024;0;1;0;0;-1.3586;-0.349591;1.37832; 
915;919;2019/10/02 16:15:46;0;-1;-1;-1;-1;-1;1;0;0;0;0;0;0;0;0;0;0;0;0;0;0;270.667;163.333;8.20523; -nan; -nan;0;12;1;0.927112;-1.02688;-2.41558;0.937509;-1.03075;-2.40421;-0.0468881;-0.173232;-0.708678;-1.81413;-1.22107;-3.67628;0;-0.679298;-0.268916;1.11334;-0.356032;-1.44589;-1.45293;-41.3328;19.1399;-41.3328;640.322;224;1024;1024;1024;204;1024;1024;1024;0;1;0;0;-1.3586;-0.349591;1.37832; 
916;920;2019/10/02 16:15:46;0;-1;-1;-1;-1;-1;1;0;0;0;0;0;0;0;0;0;0;0;0;0;0;272;162;8.07897; -nan; -nan;0;13;1;0.933366;-1.03605;-2.45786;0.936266;-1.03234;-2.4203;-0.0385505;-0.180808;-0.78634;-1.11436;-1.26791;-4.48909;0;-0.679298;-0.268916;1.11334;-0.356032;-1.44589;-1.45293;-41.3328;19.1399;-41.3328;640.322;224;1024;1024;1024;204;1024;1024;1024;0;1;0;0;-1.3586;-0.349591;1.37832; 
917;921;2019/10/02 16:15:46;0;-1;-1;-1;-1;-1;1;0;0;0;0;0;0;0;0;0;0;0;0;0;0;272;161;7.97273; -nan; -nan;0;14;1;0.945804;-1.04463;-2.49406;0.939127;-1.03603;-2.44243;-0.0382407;-0.163496;-0.820354;-0.616341;-1.06133;-4.66668;0;-0.679298;-0.268916;1.11334;-0.356032;-1.44589;-1.45293;-41.3328;19.1399;-41.3328;640.322;224;1024;1024;1024;204;1024;1024;1024;0;0;0;0;-1.3586;-0.349591;1.37832; 
918;922;2019/10/02 16:15:46;0;-1;-1;-1;-1;-1;1;0;0;0;0;0;0;0;0;0;0;0;0;0;0;273;160;8.16172; -nan; -nan;0;15;1;0.917788;-1.01533;-2.43967;0.932725;-1.02982;-2.4416;-0.0785016;-0.104884;-0.753628;-0.529234;-0.529665;-3.92554;0;-0.679298;-0.268916;1.11334;-0.356032;-1.44589;-1.45293;-41.3328;19.1399;-41.3328;640.322;224;1024;1024;1024;204;1024;1024;1024;0;0;0;0;-1.3586;-0.349591;1.37832; 
919;923;2019/10/02 16:15:46;0;-1;-1;-1;-1;-1;1;0;0;0;0;0;0;0;0;0;0;0;0;0;0;274;159;7.93238; -nan; -nan;0;16;1;0.938033;-1.03943;-2.51366;0.934318;-1.0327;-2.46322;-0.104219;-0.0514084;-0.709978;-0.612005;0.145626;-2.83667;0;-0.679298;-0.268916;1.11334;-0.356032;-1.44589;-1.45293;-41.3328;19.1399;-41.3328;640.322;224;1024;1024;1024;204;1024;1024;1024;0;0;0;0;-1.3586;-0.349591;1.37832; 
920;924;2019/10/02 16:15:46;0;-1;-1;-1;-1;-1;1;0;0;0;0;0;0;0;0;0;0;0;0;0;0;276;158;7.90854; -nan; -nan;0;17;1;0.928241;-1.0373;-2.52471;0.932495;-1.03408;-2.48167;-0.100319;-0.0375058;-0.75453;-0.601962;0.635326;-2.09539;0;-0.679298;-0.268916;1.11334;-0.356032;-1.44589;-1.45293;-41.3328;19.1399;-41.3328;640.322;224;1024;1024;1024;204;1024;1024;1024;0;0;0;0;-1.3586;-0.349591;1.37832; 
921;925;2019/10/02 16:15:46;0;-1;-1;-1;-1;-1;1;0;0;0;0;0;0;0;0;0;0;0;0;0;0;276;158;8.18462; -nan; -nan;0;18;1;0.89693;-1.00231;-2.43955;0.921825;-1.02455;-2.46903;-0.122775;0.0022444;-0.711394;-0.664001;1.08143;-1.26807;0;-0.679298;-0.268916;1.11334;-0.356032;-1.44589;-1.45293;-41.3328;19.1399;-41.3328;640.322;224;1024;1024;1024;204;1024;1024;1024;0;0;0;0;-1.3586;-0.349591;1.37832; 
922;926;2019/10/02 16:15:46;0;-1;-1;-1;-1;-1;1;0;0;0;0;0;0;0;0;0;0;0;0;0;0;277.333;157.333;7.77039; -nan; -nan;0;19;1;0.936182;-1.05216;-2.57195;0.926132;-1.03283;-2.49991;-0.114102;-0.000625615;-0.744495;-0.699887;1.36787;-0.593861;0;-0.679298;-0.268916;1.11334;-0.356032;-1.44589;-1.45293;-41.3328;19.1399;-41.3328;640.322;224;1024;1024;1024;204;1024;1024;1024;0;0;0;0;-1.3586;-0.349591;1.37832; 
923;927;2019/10/02 16:15:46;0;-1;-1;-1;-1;-1;1;0;0;0;0;0;0;0;0;0;0;0;0;0;0;279;157;7.92597; -nan; -nan;0;20;1;0.907313;-1.02976;-2.52262;0.920487;-1.03191;-2.50672;-0.142869;0.0160457;-0.70334;-0.837579;1.5374;0.110771;0;-0.679298;-0.268916;1.11334;-0.356032;-1.44589;-1.45293;-41.3328;19.1399;-41.3328;640.322;224;1024;1024;1024;204;1024;1024;1024;0;0;0;0;-1.3586;-0.349591;1.37832; 
924;928;2019/10/02 16:15:46;0;-1;-1;-1;-1;-1;1;0;0;0;0;0;0;0;0;0;0;0;0;0;0;279;157;7.92597; -nan; -nan;1;0;1;0.907313;-1.02976;-2.52262;0.920487;-1.03191;-2.50672;-0.142869;0.0160457;-0.70334;-0.837579;1.5374;0.110771;0;-0.679298;-0.268916;1.11334;-0.356032;-1.44589;-1.45293;-41.3328;19.1399;-41.3328;640.322;224;1024;1024;1024;204;1024;1024;1024;0;0;0;0;-1.3586;-0.349591;1.37832; 
925;929;2019/10/02 16:15:46;0;-1;-1;-1;-1;-1;1;0;0;0;0;0;0;0;0;0;0;0;0;0;0;282;158;8.02338; -nan; -nan;0;1;1;0.877639;-1.02245;-2.48857;0.907632;-1.02907;-2.50128;-0.171572;0.0121716;-0.626182;-0.820971;1.32292;0.502497;0;-0.679298;-0.268916;1.11334;-0.356032;-1.44589;-1.45293;-41.3328;19.1399;-41.3328;640.322;224;1024;1024;1024;204;1024;1024;1024;0;0;0;0;-1.3586;-0.349591;1.37832; 
926;930;2019/10/02 16:15:46;0;-1;-1;-1;-1;-1;1;0;0;0;0;0;0;0;0;0;0;0;0;0;0;282;158;8.02338; -nan; -nan;1;0;1;0.877639;-1.02245;-2.48857;0.907632;-1.02907;-2.50128;-0.171572;0.0121716;-0.626182;-0.820971;1.32292;0.502497;0;-0.679298;-0.268916;1.11334;-0.356032;-1.44589;-1.45293;-41.3328;19.1399;-41.3328;640.322;224;1024;1024;1024;204;1024;1024;1024;0;0;0;0;-1.3586;-0.349591;1.37832; 
927;931;2019/10/02 16:15:46;0;-1;-1;-1;-1;-1;1;0;0;0;0;0;0;0;0;0;0;0;0;0;0;286;159;7.85746; -nan; -nan;0;1;1;0.870769;-1.04934;-2.53763;0.896573;-1.03515;-2.51218;-0.215933;-3.87169E-05;-0.522287;-0.827006;0.947533;0.863361;0;-0.679298;-0.268916;1.11334;-0.356032;-1.44589;-1.45293;-41.3328;19.1399;-41.3328;640.322;224;1024;1024;1024;204;1024;1024;1024;0;0;0;0;-1.3586;-0.349591;1.37832; 
928;932;2019/10/02 16:15:46;0;-1;-1;-1;-1;-1;1;0;0;0;0;0;0;0;0;0;0;0;0;0;0;289;159;7.83906; -nan; -nan;0;2;1;0.853717;-1.05181;-2.54359;0.883716;-1.04015;-2.5216;-0.275581;-0.0181931;-0.432928;-1.02086;0.626334;1.48075;0;-0.679298;-0.268916;1.11334;-0.356032;-1.44589;-1.45293;-41.3328;19.1399;-41.3328;640.322;224;1024;1024;1024;204;1024;1024;1024;0;0;0;0;-1.3586;-0.349591;1.37832; 
929;933;2019/10/02 16:15:46;0;-1;-1;-1;-1;-1;1;0;0;0;0;0;0;0;0;0;0;0;0;0;0;292;161;7.74052; -nan; -nan;0;3;1;0.845245;-1.07596;-2.56887;0.872175;-1.05089;-2.53579;-0.31398;-0.0897824;-0.459589;-1.1849;0.100312;1.64224;0;-0.679298;-0.268916;1.11334;-0.356032;-1.44589;-1.45293;-41.3328;19.1399;-41.3328;640.322;224;1024;1024;1024;204;1024;1024;1024;0;0;0;0;-1.3586;-0.349591;1.37832; 
930;934;2019/10/02 16:15:46;0;-1;-1;-1;-1;-1;1;0;0;0;0;0;0;0;0;0;0;0;0;0;0;295.333;161.333;8.18806; -nan; -nan;0;4;1;0.778732;-1.01885;-2.42735;0.844142;-1.04128;-2.50325;-0.433831;-0.0791573;-0.28577;-1.66807;-0.174902;2.35857;0;-0.679298;-0.268916;1.11334;-0.356032;-1.44589;-1.45293;-41.3328;19.1399;-41.3328;640.322;224;1024;1024;1024;204;1024;1024;1024;0;0;0;0;-1.3586;-0.349591;1.37832; 
931;935;2019/10/02 16:15:46;0;-1;-1;-1;-1;-1;1;0;0;0;0;0;0;0;0;0;0;0;0;0;0;299;163;7.60585; -nan; -nan;0;5;1;0.814286;-1.10597;-2.60714;0.835185;-1.06069;-2.53442;-0.515593;-0.13362;-0.254357;-2.11635;-0.552869;2.75889;0;-0.679298;-0.268916;1.11334;-0.356032;-1.44589;-1.45293;-41.3328;19.1399;-41.3328;640.322;224;1024;1024;1024;204;1024;1024;1024;0;0;0;0;-1.3586;-0.349591;1.37832; 
932;936;2019/10/02 16:15:46;0;-1;-1;-1;-1;-1;1;0;0;0;0;0;0;0;0;0;0;0;0;0;0;303;164;7.67247; -nan; -nan;0;6;1;0.781201;-1.1018;-2.58092;0.81899;-1.07302;-2.54837;-0.612551;-0.230494;-0.313692;-2.77815;-1.16174;2.72418;0;-0.679298;-0.268916;1.11334;-0.356032;-1.44589;-1.45293;-41.3328;19.1399;-41.3328;640.322;224;1024;1024;1024;204;1024;1024;1024;0;0;0;0;-1.3586;-0.349591;1.37832; 
933;937;2019/10/02 16:15:46;0;-1;-1;-1;-1;-1;1;0;0;0;0;0;0;0;0;0;0;0;0;0;0;307;164;7.68043; -nan; -nan;0;7;1;0.754403;-1.10066;-2.57825;0.799614;-1.08131;-2.55733;-0.754445;-0.32249;-0.36839;-3.81581;-1.98378;2.24863;0;-0.679298;-0.268916;1.11334;-0.356032;-1.44589;-1.45293;-41.3328;19.1399;-41.3328;640.322;224;1024;1024;1024;204;1024;1024;1024;0;0;0;0;-1.3586;-0.349591;1.37832; 
934;938;2019/10/02 16:15:46;0;-1;-1;-1;-1;-1;1;0;0;0;0;0;0;0;0;0;0;0;0;0;0;310;166;7.70696; -nan; -nan;0;8;1;0.732383;-1.10768;-2.56225;0.779445;-1.08922;-2.55881;-0.868762;-0.389321;-0.369501;-4.65657;-2.67125;1.60229;0;-0.679298;-0.268916;1.11334;-0.356032;-1.44589;-1.45293;-41.3328;19.1399;-41.3328;640.322;224;1024;1024;1024;204;1024;1024;1024;0;0;0;0;-1.3586;-0.349591;1.37832; 
935;939;2019/10/02 16:15:46;0;-1;-1;-1;-1;-1;1;0;0;0;0;0;0;0;0;0;0;0;0;0;0;314;165.5;7.71077; -nan; -nan;0;9;1;0.706135;-1.10443;-2.56276;0.757452;-1.09379;-2.56;-0.979059;-0.404754;-0.318315;-5.44793;-2.85964;1.52512;0;-0.679298;-0.268916;1.11334;-0.356032;-1.44589;-1.45293;-41.3328;19.1399;-41.3328;640.322;224;1024;1024;1024;204;1024;1024;1024;0;0;0;0;-1.3586;-0.349591;1.37832; 
936;940;2019/10/02 16:15:46;0;-1;-1;-1;-1;-1;1;0;0;0;0;0;0;0;0;0;0;0;0;0;0;317;167;7.54651; -nan; -nan;0;10;1;0.701668;-1.13676;-2.61309;0.740717;-1.10668;-2.57592;-1.00015;-0.503814;-0.480979;-5.52865;-3.41037;0.136097;0;-0.679298;-0.268916;1.11334;-0.356032;-1.44589;-1.45293;-41.3328;19.1399;-41.3328;640.322;224;1024;1024;1024;204;1024;1024;1024;0;0;0;0;-1.3586;-0.349591;1.37832; 
937;941;2019/10/02 16:15:46;0;-1;-1;-1;-1;-1;1;0;0;0;0;0;0;0;0;0;0;0;0;0;0;321;167;7.66036; -nan; -nan;0;11;1;0.665183;-1.11986;-2.57425;0.718057;-1.11063;-2.57542;-1.06749;-0.501588;-0.452209;-5.51954;-3.51459;-0.70787;0;-0.679298;-0.268916;1.11334;-0.356032;-1.44589;-1.45293;-41.3328;19.1399;-41.3328;640.322;224;1024;1024;1024;204;1024;1024;1024;0;0;0;0;-1.3586;-0.349591;1.37832; 
938;942;2019/10/02 16:15:46;0;-1;-1;-1;-1;-1;1;0;0;0;0;0;0;0;0;0;0;0;0;0;0;323;169;7.7588; -nan; -nan;0;12;1;0.643881;-1.11639;-2.53451;0.695804;-1.11236;-2.56315;-1.13207;-0.457933;-0.330303;-5.38484;-3.01635;-0.49101;0;-0.679298;-0.268916;1.11334;-0.356032;-1.44589;-1.45293;-41.3328;19.1399;-41.3328;640.322;224;1024;1024;1024;204;1024;1024;1024;0;0;0;0;-1.3586;-0.349591;1.37832; 
939;943;2019/10/02 16:15:46;0;-1;-1;-1;-1;-1;1;0;0;0;0;0;0;0;0;0;0;0;0;0;0;327;170;7.52934; -nan; -nan;0;13;1;0.636995;-1.15595;-2.60811;0.678161;-1.12544;-2.57664;-1.1639;-0.450839;-0.275215;-4.86481;-2.32198;0.0772074;0;-0.679298;-0.268916;1.11334;-0.356032;-1.44589;-1.45293;-41.3328;19.1399;-41.3328;640.322;224;1024;1024;1024;204;1024;1024;1024;0;0;0;0;-1.3586;-0.349591;1.37832; 
940;944;2019/10/02 16:15:46;0;-1;-1;-1;-1;-1;1;0;0;0;0;0;0;0;0;0;0;0;0;0;0;327;170;7.62707; -nan; -nan;0;14;1;0.628832;-1.14114;-2.57469;0.663363;-1.13015;-2.57606;-1.16156;-0.43381;-0.233946;-4.0873;-1.57072;0.587253;0;-0.679298;-0.268916;1.11334;-0.356032;-1.44589;-1.45293;-41.3328;19.1399;-41.3328;640.322;224;1024;1024;1024;204;1024;1024;1024;0;0;0;0;-1.3586;-0.349591;1.37832; 
941;945;2019/10/02 16:15:46;0;-1;-1;-1;-1;-1;1;0;0;0;0;0;0;0;0;0;0;0;0;0;0;331;172;7.62922; -nan; -nan;0;15;1;0.602492;-1.15174;-2.56677;0.645101;-1.13663;-2.57327;-1.14527;-0.431234;-0.193331;-3.11564;-1.0481;0.851099;0;-0.679298;-0.268916;1.11334;-0.356032;-1.44589;-1.45293;-41.3328;19.1399;-41.3328;640.322;224;1024;1024;1024;204;1024;1024;1024;0;0;0;0;-1.3586;-0.349591;1.37832; 
942;946;2019/10/02 16:15:46;0;-1;-1;-1;-1;-1;1;0;0;0;0;0;0;0;0;0;0;0;0;0;0;331;173;7.80577; -nan; -nan;0;16;1;0.588865;-1.13103;-2.5052;0.628231;-1.13495;-2.55285;-1.13604;-0.371548;-0.0239068;-2.41162;-0.101053;2.3346;0;-0.679298;-0.268916;1.11334;-0.356032;-1.44589;-1.45293;-41.3328;19.1399;-41.3328;640.322;224;1024;1024;1024;204;1024;1024;1024;0;0;0;0;-1.3586;-0.349591;1.37832; 
943;947;2019/10/02 16:15:47;0;-1;-1;-1;-1;-1;1;0;0;0;0;0;0;0;0;0;0;0;0;0;0;333;175;7.72624; -nan; -nan;0;17;1;0.58201;-1.15346;-2.52388;0.614364;-1.1405;-2.54416;-1.0954;-0.342114;0.110427;-1.55836;0.575746;3.64595;0;-0.679298;-0.268916;1.11334;-0.356032;-1.44589;-1.45293;-41.3328;19.1399;-41.3328;640.322;224;1024;1024;1024;204;1024;1024;1024;0;0;0;0;-1.3586;-0.349591;1.37832; 
944;948;2019/10/02 16:15:47;0;-1;-1;-1;-1;-1;1;0;0;0;0;0;0;0;0;0;0;0;0;0;0;333.6;176.8;7.85532; -nan; -nan;0;18;1;0.568635;-1.14405;-2.47611;0.600645;-1.14157;-2.52374;-1.03697;-0.32181;0.223511;-0.555536;0.888643;4.39756;0;-0.679298;-0.268916;1.11334;-0.356032;-1.44589;-1.45293;-41.3328;19.1399;-41.3328;640.322;224;1024;1024;1024;204;1024;1024;1024;0;0;0;0;-1.3586;-0.349591;1.37832; 
945;949;2019/10/02 16:15:47;0;-1;-1;-1;-1;-1;1;0;0;0;0;0;0;0;0;0;0;0;0;0;0;334;178;8.13734; -nan; -nan;0;19;1;0.546475;-1.11055;-2.38625;0.584394;-1.13226;-2.4825;-0.996359;-0.220311;0.509784;0.335233;1.4531;5.77106;0;-0.679298;-0.268916;1.11334;-0.356032;-1.44589;-1.45293;-41.3328;19.1399;-41.3328;640.322;224;1024;1024;1024;204;1024;1024;1024;0;0;0;0;-1.3586;-0.349591;1.37832; 
946;950;2019/10/02 16:15:47;0;-1;-1;-1;-1;-1;1;0;0;0;0;0;0;0;0;0;0;0;0;0;0;335;181;7.78308; -nan; -nan;0;20;1;0.564937;-1.17716;-2.48428;0.578557;-1.14573;-2.48303;-0.936231;-0.194363;0.677077;1.10032;1.82737;7.09807;0;-0.679298;-0.268916;1.11334;-0.356032;-1.44589;-1.45293;-41.3328;19.1399;-41.3328;640.322;224;1024;1024;1024;204;1024;1024;1024;0;0;0;0;-1.3586;-0.349591;1.37832; 
947;951;2019/10/02 16:15:47;0;-1;-1;-1;-1;-1;1;0;0;0;0;0;0;0;0;0;0;0;0;0;0;334.8;182.4;7.91555; -nan; -nan;0;21;1;0.556743;-1.16483;-2.43785;0.572013;-1.15146;-2.46948;-0.853397;-0.175808;0.820422;1.8249;2.1157;8.3042;0;-0.679298;-0.268916;1.11334;-0.356032;-1.44589;-1.45293;-41.3328;19.1399;-41.3328;640.322;224;1024;1024;1024;204;1024;1024;1024;0;0;0;0;-1.3586;-0.349591;1.37832; 
948;952;2019/10/02 16:15:47;0;-1;-1;-1;-1;-1;1;0;0;0;0;0;0;0;0;0;0;0;0;0;0;335;185;8.02405; -nan; -nan;0;22;1;0.547971;-1.16258;-2.39599;0.5648;-1.15479;-2.44743;-0.765155;-0.184686;0.912909;2.57494;2.01509;8.72087;0;-0.679298;-0.268916;1.11334;-0.356032;-1.44589;-1.45293;-41.3328;19.1399;-41.3328;640.322;224;1024;1024;1024;204;1024;1024;1024;0;0;0;0;-1.3586;-0.349591;1.37832; 
949;953;2019/10/02 16:15:47;0;-1;-1;-1;-1;-1;1;0;0;0;0;0;0;0;0;0;0;0;0;0;0;333;187;8.01291; -nan; -nan;0;23;1;0.561188;-1.17459;-2.39247;0.563717;-1.16073;-2.43094;-0.661202;-0.191557;0.999519;3.27764;1.80985;8.78043;0;-0.679298;-0.268916;1.11334;-0.356032;-1.44589;-1.45293;-41.3328;19.1399;-41.3328;640.322;224;1024;1024;1024;204;1024;1024;1024;0;0;0;0;-1.3586;-0.349591;1.37832; 
950;954;2019/10/02 16:15:47;0;-1;-1;-1;-1;-1;1;0;0;0;0;0;0;0;0;0;0;0;0;0;0;333;189;8.19892; -nan; -nan;0;24;1;0.548456;-1.15811;-2.3315;0.559138;-1.15995;-2.40111;-0.562354;-0.188287;1.08908;3.86054;1.61873;8.72231;0;-0.679298;-0.268916;1.11334;-0.356032;-1.44589;-1.45293;-41.3328;19.1399;-41.3328;640.322;224;1024;1024;1024;204;1024;1024;1024;0;0;0;0;-1.3586;-0.349591;1.37832; 
951;955;2019/10/02 16:15:47;0;-1;-1;-1;-1;-1;1;0;0;0;0;0;0;0;0;0;0;0;0;0;0;331;193;7.88272; -nan; -nan;0;25;1;0.583117;-1.22571;-2.41109;0.566332;-1.17968;-2.4041;-0.409489;-0.302186;0.966275;4.65821;0.644517;7.055;0;-0.679298;-0.268916;1.11334;-0.356032;-1.44589;-1.45293;-41.3328;19.1399;-41.3328;640.322;224;1024;1024;1024;204;1024;1024;1024;0;0;0;0;-1.3586;-0.349591;1.37832; 
952;956;2019/10/02 16:15:47;0;-1;-1;-1;-1;-1;1;0;0;0;0;0;0;0;0;0;0;0;0;0;0;330;193;8.31073; -nan; -nan;0;26;1;0.55909;-1.16258;-2.28691;0.564159;-1.17455;-2.36895;-0.303148;-0.296317;1.03502;5.32124;-0.020133;5.66138;0;-0.679298;-0.268916;1.11334;-0.356032;-1.44589;-1.45293;-41.3328;19.1399;-41.3328;640.322;224;1024;1024;1024;204;1024;1024;1024;0;0;0;0;-1.3586;-0.349591;1.37832; 
953;957;2019/10/02 16:15:47;0;-1;-1;-1;-1;-1;1;0;0;0;0;0;0;0;0;0;0;0;0;0;0;330;193;8.31073; -nan; -nan;1;0;1;0.55909;-1.16258;-2.28691;0.564159;-1.17455;-2.36895;-0.303148;-0.296317;1.03502;5.32124;-0.020133;5.66138;0;-0.679298;-0.268916;1.11334;-0.356032;-1.44589;-1.45293;-41.3328;19.1399;-41.3328;640.322;224;1024;1024;1024;204;1024;1024;1024;0;0;0;0;-1.3586;-0.349591;1.37832; 
954;958;2019/10/02 16:15:47;0;-1;-1;-1;-1;-1;1;0;0;0;0;0;0;0;0;0;0;0;0;0;0;326;197;8.27809; -nan; -nan;0;1;1;0.585407;-1.1873;-2.28267;0.570534;-1.17838;-2.34306;-0.186949;-0.269859;1.05341;5.47228;-0.333777;4.19375;0;-0.679298;-0.268916;1.11334;-0.356032;-1.44589;-1.45293;-41.3328;19.1399;-41.3328;640.322;224;1024;1024;1024;204;1024;1024;1024;0;0;0;0;-1.3586;-0.349591;1.37832; 
955;959;2019/10/02 16:15:47;0;-1;-1;-1;-1;-1;1;0;0;0;0;0;0;0;0;0;0;0;0;0;0;324;199;8.47832; -nan; -nan;0;2;1;0.583352;-1.16909;-2.22228;0.574379;-1.17559;-2.30683;-0.0794062;-0.23305;1.11297;5.6289;-0.365689;3.20052;0;-0.679298;-0.268916;1.11334;-0.356032;-1.44589;-1.45293;-41.3328;19.1399;-41.3328;640.322;224;1024;1024;1024;204;1024;1024;1024;0;0;0;0;-1.3586;-0.349591;1.37832; 
956;960;2019/10/02 16:15:47;0;-1;-1;-1;-1;-1;1;0;0;0;0;0;0;0;0;0;0;0;0;0;0;321.333;201.333;8.40415; -nan; -nan;0;3;1;0.604334;-1.19098;-2.23427;0.583365;-1.18021;-2.28506;0.0195642;-0.20644;1.16676;5.70585;-0.27032;2.49234;0;-0.679298;-0.268916;1.11334;-0.356032;-1.44589;-1.45293;-41.3328;19.1399;-41.3328;640.322;224;1024;1024;1024;204;1024;1024;1024;0;0;0;0;-1.3586;-0.349591;1.37832; 
957;961;2019/10/02 16:15:47;0;-1;-1;-1;-1;-1;1;0;0;0;0;0;0;0;0;0;0;0;0;0;0;320;202;8.61825; -nan; -nan;0;4;1;0.597041;-1.16462;-2.17664;0.587468;-1.17553;-2.25254;0.108637;-0.177166;1.20823;5.71857;-0.124154;1.90294;0;-0.679298;-0.268916;1.11334;-0.356032;-1.44589;-1.45293;-41.3328;19.1399;-41.3328;640.322;224;1024;1024;1024;204;1024;1024;1024;0;0;0;0;-1.3586;-0.349591;1.37832; 
958;962;2019/10/02 16:15:47;0;-1;-1;-1;-1;-1;1;0;0;0;0;0;0;0;0;0;0;0;0;0;0;317;205;8.52298; -nan; -nan;0;5;1;0.621278;-1.1923;-2.19131;0.597611;-1.18056;-2.23417;0.172171;-0.10933;1.30619;5.42067;0.585159;2.3044;0;-0.679298;-0.268916;1.11334;-0.356032;-1.44589;-1.45293;-41.3328;19.1399;-41.3328;640.322;224;1024;1024;1024;204;1024;1024;1024;0;0;0;0;-1.3586;-0.349591;1.37832; 
959;963;2019/10/02 16:15:47;0;-1;-1;-1;-1;-1;1;0;0;0;0;0;0;0;0;0;0;0;0;0;0;315.2;206.4;8.58381; -nan; -nan;0;6;1;0.62734;-1.19065;-2.17131;0.60653;-1.18359;-2.21531;0.248226;-0.0965167;1.30921;5.13832;1.03449;2.32046;0;-0.679298;-0.268916;1.11334;-0.356032;-1.44589;-1.45293;-41.3328;19.1399;-41.3328;640.322;224;1024;1024;1024;204;1024;1024;1024;0;0;0;0;-1.3586;-0.349591;1.37832; 
960;964;2019/10/02 16:15:47;0;-1;-1;-1;-1;-1;1;0;0;0;0;0;0;0;0;0;0;0;0;0;0;314;208;8.88868; -nan; -nan;0;7;1;0.612559;-1.15731;-2.09189;0.608339;-1.17571;-2.17828;0.299796;-0.0472552;1.44307;5.02534;1.50899;2.94721;0;-0.679298;-0.268916;1.11334;-0.356032;-1.44589;-1.45293;-41.3328;19.1399;-41.3328;640.322;224;1024;1024;1024;204;1024;1024;1024;0;0;0;0;-1.3586;-0.349591;1.37832; 
961;965;2019/10/02 16:15:47;0;-1;-1;-1;-1;-1;1;0;0;0;0;0;0;0;0;0;0;0;0;0;0;311;210;8.84123; -nan; -nan;0;8;1;0.632779;-1.17295;-2.09691;0.615671;-1.17488;-2.15387;0.344651;-0.0255099;1.47622;4.7074;1.73358;3.21788;0;-0.679298;-0.268916;1.11334;-0.356032;-1.44589;-1.45293;-41.3328;19.1399;-41.3328;640.322;224;1024;1024;1024;204;1024;1024;1024;0;0;0;0;-1.3586;-0.349591;1.37832; 
962;966;2019/10/02 16:15:47;0;-1;-1;-1;-1;-1;1;0;0;0;0;0;0;0;0;0;0;0;0;0;0;311;212;8.93757; -nan; -nan;0;9;1;0.625958;-1.16963;-2.06816;0.618757;-1.1733;-2.12816;0.348019;0.0122439;1.51185;4.13513;1.9128;3.30783;0;-0.679298;-0.268916;1.11334;-0.356032;-1.44589;-1.45293;-41.3328;19.1399;-41.3328;640.322;224;1024;1024;1024;204;1024;1024;1024;0;0;0;0;-1.3586;-0.349591;1.37832; 
963;967;2019/10/02 16:15:47;0;-1;-1;-1;-1;-1;1;0;0;0;0;0;0;0;0;0;0;0;0;0;0;309;215;9.14717; -nan; -nan;0;10;1;0.622525;-1.1565;-2.01177;0.619887;-1.16826;-2.09324;0.33818;0.0363537;1.54278;3.39706;1.99973;3.31971;0;-0.679298;-0.268916;1.11334;-0.356032;-1.44589;-1.45293;-41.3328;19.1399;-41.3328;640.322;224;1024;1024;1024;204;1024;1024;1024;0;0;0;0;-1.3586;-0.349591;1.37832; 
964;968;2019/10/02 16:15:47;0;-1;-1;-1;-1;-1;1;0;0;0;0;0;0;0;0;0;0;0;0;0;0;309;216;9.07757; -nan; -nan;0;11;1;0.627298;-1.16995;-2.02417;0.622111;-1.16877;-2.07252;0.300672;0.0688726;1.57073;2.55102;1.91095;3.04749;0;-0.679298;-0.268916;1.11334;-0.356032;-1.44589;-1.45293;-41.3328;19.1399;-41.3328;640.322;224;1024;1024;1024;204;1024;1024;1024;0;0;0;0;-1.3586;-0.349591;1.37832; 
965;969;2019/10/02 16:15:47;0;-1;-1;-1;-1;-1;1;0;0;0;0;0;0;0;0;0;0;0;0;0;0;309;218;9.48994; -nan; -nan;0;12;1;0.60004;-1.1279;-1.93042;0.615489;-1.15651;-2.02989;0.216156;0.149391;1.68235;1.40264;2.12786;3.31753;0;-0.679298;-0.268916;1.11334;-0.356032;-1.44589;-1.45293;-41.3328;19.1399;-41.3328;640.322;224;1024;1024;1024;204;1024;1024;1024;0;0;0;0;-1.3586;-0.349591;1.37832; 
966;970;2019/10/02 16:15:47;0;-1;-1;-1;-1;-1;1;0;0;0;0;0;0;0;0;0;0;0;0;0;0;310;220;9.40168; -nan; -nan;0;13;1;0.600365;-1.14735;-1.94271;0.610952;-1.15376;-2.00374;0.140122;0.17721;1.70595;0.204406;2.17244;3.03953;0;-0.679298;-0.268916;1.11334;-0.356032;-1.44589;-1.45293;-41.3328;19.1399;-41.3328;640.322;224;1024;1024;1024;204;1024;1024;1024;0;0;0;0;-1.3586;-0.349591;1.37832; 
967;971;2019/10/02 16:15:47;0;-1;-1;-1;-1;-1;1;0;0;0;0;0;0;0;0;0;0;0;0;0;0;311;221;9.37553; -nan; -nan;0;14;1;0.596718;-1.15499;-1.9452;0.606682;-1.15413;-1.98617;0.0482029;0.189124;1.69276;-1.06033;2.15996;2.68783;0;-0.679298;-0.268916;1.11334;-0.356032;-1.44589;-1.45293;-41.3328;19.1399;-41.3328;640.322;224;1024;1024;1024;204;1024;1024;1024;0;0;0;0;-1.3586;-0.349591;1.37832; 
968;972;2019/10/02 16:15:47;0;-1;-1;-1;-1;-1;1;0;0;0;0;0;0;0;0;0;0;0;0;0;0;313;223;9.48457; -nan; -nan;0;15;1;0.579335;-1.1505;-1.91704;0.598478;-1.15304;-1.96544;-0.0520021;0.194333;1.665;-2.23247;2.0226;2.22382;0;-0.679298;-0.268916;1.11334;-0.356032;-1.44589;-1.45293;-41.3328;19.1399;-41.3328;640.322;224;1024;1024;1024;204;1024;1024;1024;0;0;0;0;-1.3586;-0.349591;1.37832; 
969;973;2019/10/02 16:15:47;0;-1;-1;-1;-1;-1;1;0;0;0;0;0;0;0;0;0;0;0;0;0;0;314;224;9.45012; -nan; -nan;0;16;1;0.576167;-1.15911;-1.92113;0.591784;-1.15486;-1.95214;-0.143346;0.170076;1.56205;-3.26101;1.74718;1.41118;0;-0.679298;-0.268916;1.11334;-0.356032;-1.44589;-1.45293;-41.3328;19.1399;-41.3328;640.322;224;1024;1024;1024;204;1024;1024;1024;0;0;0;0;-1.3586;-0.349591;1.37832; 
970;974;2019/10/02 16:15:47;0;-1;-1;-1;-1;-1;1;0;0;0;0;0;0;0;0;0;0;0;0;0;0;317;226;9.75664; -nan; -nan;0;17;1;0.542722;-1.13123;-1.85515;0.577066;-1.14777;-1.92304;-0.265759;0.185834;1.5337;-4.21694;1.51504;0.698947;0;-0.679298;-0.268916;1.11334;-0.356032;-1.44589;-1.45293;-41.3328;19.1399;-41.3328;640.322;224;1024;1024;1024;204;1024;1024;1024;0;0;0;0;-1.3586;-0.349591;1.37832; 
971;975;2019/10/02 16:15:47;0;-1;-1;-1;-1;-1;1;0;0;0;0;0;0;0;0;0;0;0;0;0;0;319;227;9.4937; -nan; -nan;0;18;1;0.547242;-1.16695;-1.90364;0.568118;-1.15353;-1.91722;-0.348488;0.123395;1.36982;-4.78337;0.805288;-0.827782;0;-0.679298;-0.268916;1.11334;-0.356032;-1.44589;-1.45293;-41.3328;19.1399;-41.3328;640.322;224;1024;1024;1024;204;1024;1024;1024;0;0;0;0;-1.3586;-0.349591;1.37832; 
972;976;2019/10/02 16:15:47;0;-1;-1;-1;-1;-1;1;0;0;0;0;0;0;0;0;0;0;0;0;0;0;321;229;9.51401; -nan; -nan;0;19;1;0.535583;-1.17322;-1.8938;0.558358;-1.15943;-1.9102;-0.418969;0.0513924;1.19516;-5.10107;-0.0188991;-2.53494;0;-0.679298;-0.268916;1.11334;-0.356032;-1.44589;-1.45293;-41.3328;19.1399;-41.3328;640.322;224;1024;1024;1024;204;1024;1024;1024;0;0;0;0;-1.3586;-0.349591;1.37832; 
973;977;2019/10/02 16:15:47;0;-1;-1;-1;-1;-1;1;0;0;0;0;0;0;0;0;0;0;0;0;0;0;323.667;232.333;9.49223; -nan; -nan;0;20;1;0.522794;-1.19055;-1.88851;0.547689;-1.16877;-1.90369;-0.486792;-0.0275772;1.04626;-5.19553;-0.876083;-4.10084;0;-0.679298;-0.268916;1.11334;-0.356032;-1.44589;-1.45293;-41.3328;19.1399;-41.3328;640.322;224;1024;1024;1024;204;1024;1024;1024;0;0;0;0;-1.3586;-0.349591;1.37832; 
974;978;2019/10/02 16:15:47;0;-1;-1;-1;-1;-1;1;0;0;0;0;0;0;0;0;0;0;0;0;0;0;325.333;234.667;9.50511; -nan; -nan;0;21;1;0.513336;-1.19916;-1.87921;0.537383;-1.17789;-1.89634;-0.535873;-0.115687;0.90346;-5.0482;-1.76278;-5.49941;0;-0.679298;-0.268916;1.11334;-0.356032;-1.44589;-1.45293;-41.3328;19.1399;-41.3328;640.322;224;1024;1024;1024;204;1024;1024;1024;0;0;0;0;-1.3586;-0.349591;1.37832; 
975;979;2019/10/02 16:15:47;0;-1;-1;-1;-1;-1;1;0;0;0;0;0;0;0;0;0;0;0;0;0;0;328;238;9.58106; -nan; -nan;0;22;1;0.495378;-1.20415;-1.85476;0.524781;-1.18577;-1.88387;-0.588898;-0.192738;0.814526;-4.80689;-2.50547;-6.28261;0;-0.679298;-0.268916;1.11334;-0.356032;-1.44589;-1.45293;-41.3328;19.1399;-41.3328;640.322;224;1024;1024;1024;204;1024;1024;1024;0;0;0;0;-1.3586;-0.349591;1.37832; 
976;980;2019/10/02 16:15:47;0;-1;-1;-1;-1;-1;1;0;0;0;0;0;0;0;0;0;0;0;0;0;0;329.75;240.25;9.6044; -nan; -nan;0;23;1;0.485082;-1.21099;-1.84382;0.512872;-1.19333;-1.87185;-0.609504;-0.29745;0.69299;-4.25584;-3.43182;-7.12442;0;-0.679298;-0.268916;1.11334;-0.356032;-1.44589;-1.45293;-41.3328;19.1399;-41.3328;640.322;224;1024;1024;1024;204;1024;1024;1024;0;0;0;0;-1.3586;-0.349591;1.37832; 
977;981;2019/10/02 16:15:47;0;-1;-1;-1;-1;-1;1;0;0;0;0;0;0;0;0;0;0;0;0;0;0;333;244;9.51106; -nan; -nan;0;24;1;0.472792;-1.2393;-1.85109;0.500848;-1.20712;-1.86563;-0.634146;-0.392347;0.621689;-3.69342;-4.11715;-7.26007;0;-0.679298;-0.268916;1.11334;-0.356032;-1.44589;-1.45293;-41.3328;19.1399;-41.3328;640.322;224;1024;1024;1024;204;1024;1024;1024;0;0;0;0;-1.3586;-0.349591;1.37832; 
978;982;2019/10/02 16:15:47;0;-1;-1;-1;-1;-1;1;0;0;0;0;0;0;0;0;0;0;0;0;0;0;334;247;9.70071; -nan; -nan;0;25;1;0.458404;-1.22796;-1.80641;0.488115;-1.21337;-1.84786;-0.660792;-0.450652;0.621756;-3.18104;-4.47369;-6.64422;0;-0.679298;-0.268916;1.11334;-0.356032;-1.44589;-1.45293;-41.3328;19.1399;-41.3328;640.322;224;1024;1024;1024;204;1024;1024;1024;0;0;0;0;-1.3586;-0.349591;1.37832; 
979;983;2019/10/02 16:15:47;0;-1;-1;-1;-1;-1;1;0;0;0;0;0;0;0;0;0;0;0;0;0;0;335;249;9.61104; -nan; -nan;0;26;1;0.457489;-1.24809;-1.81755;0.478927;-1.22379;-1.83877;-0.670868;-0.489948;0.632113;-2.64318;-4.5293;-5.63916;0;-0.679298;-0.268916;1.11334;-0.356032;-1.44589;-1.45293;-41.3328;19.1399;-41.3328;640.322;224;1024;1024;1024;204;1024;1024;1024;0;0;0;0;-1.3586;-0.349591;1.37832; 
980;984;2019/10/02 16:15:47;0;-1;-1;-1;-1;-1;1;0;0;0;0;0;0;0;0;0;0;0;0;0;0;337;253;9.7892; -nan; -nan;0;27;1;0.438969;-1.2424;-1.77326;0.46694;-1.22937;-1.81912;-0.683624;-0.499422;0.687446;-2.1755;-4.24887;-4.2455;0;-0.679298;-0.268916;1.11334;-0.356032;-1.44589;-1.45293;-41.3328;19.1399;-41.3328;640.322;224;1024;1024;1024;204;1024;1024;1024;0;0;0;0;-1.3586;-0.349591;1.37832; 
981;985;2019/10/02 16:15:47;0;-1;-1;-1;-1;-1;1;0;0;0;0;0;0;0;0;0;0;0;0;0;0;337;255;9.9591; -nan; -nan;0;28;1;0.431479;-1.22957;-1.73749;0.456302;-1.22943;-1.79463;-0.683442;-0.473902;0.768579;-1.68258;-3.6713;-2.73065;0;-0.679298;-0.268916;1.11334;-0.356032;-1.44589;-1.45293;-41.3328;19.1399;-41.3328;640.322;224;1024;1024;1024;204;1024;1024;1024;0;0;0;0;-1.3586;-0.349591;1.37832; 
982;986;2019/10/02 16:15:47;0;-1;-1;-1;-1;-1;1;0;0;0;0;0;0;0;0;0;0;0;0;0;0;338;258;9.70756; -nan; -nan;0;29;1;0.43752;-1.27431;-1.77403;0.450667;-1.24289;-1.78845;-0.658291;-0.482121;0.793974;-1.20423;-2.93971;-1.23542;0;-0.679298;-0.268916;1.11334;-0.356032;-1.44589;-1.45293;-41.3328;19.1399;-41.3328;640.322;224;1024;1024;1024;204;1024;1024;1024;0;0;0;0;-1.3586;-0.349591;1.37832; 
983;987;2019/10/02 16:15:47;0;-1;-1;-1;-1;-1;1;0;0;0;0;0;0;0;0;0;0;0;0;0;0;338;259;10.1606; -nan; -nan;0;30;1;0.418011;-1.22159;-1.69223;0.44087;-1.2365;-1.75958;-0.634405;-0.406562;0.89971;-0.723571;-1.82057;0.368617;0;-0.679298;-0.268916;1.11334;-0.356032;-1.44589;-1.45293;-41.3328;19.1399;-41.3328;640.322;224;1024;1024;1024;204;1024;1024;1024;0;0;0;0;-1.3586;-0.349591;1.37832; 
984;988;2019/10/02 16:15:47;0;-1;-1;-1;-1;-1;1;0;0;0;0;0;0;0;0;0;0;0;0;0;0;339;262;9.88889; -nan; -nan;0;31;1;0.424451;-1.2678;-1.7304;0.435944;-1.24589;-1.75083;-0.588907;-0.373751;0.927193;-0.147176;-0.78535;1.44049;0;-0.679298;-0.268916;1.11334;-0.356032;-1.44589;-1.45293;-41.3328;19.1399;-41.3328;640.322;224;1024;1024;1024;204;1024;1024;1024;0;0;0;0;-1.3586;-0.349591;1.37832; 
985;989;2019/10/02 16:15:47;0;-1;-1;-1;-1;-1;1;0;0;0;0;0;0;0;0;0;0;0;0;0;0;338;264;10.3358; -nan; -nan;0;32;1;0.410926;-1.22104;-1.65026;0.428439;-1.23844;-1.72066;-0.554895;-0.28273;1.02782;0.374662;0.356011;2.44398;0;-0.679298;-0.268916;1.11334;-0.356032;-1.44589;-1.45293;-41.3328;19.1399;-41.3328;640.322;224;1024;1024;1024;204;1024;1024;1024;0;0;0;0;-1.3586;-0.349591;1.37832; 
986;990;2019/10/02 16:15:47;0;-1;-1;-1;-1;-1;1;0;0;0;0;0;0;0;0;0;0;0;0;0;0;337;266;10.379; -nan; -nan;0;33;1;0.414024;-1.22399;-1.63811;0.424115;-1.2341;-1.69589;-0.503896;-0.18853;1.10861;0.942277;1.4547;3.14768;0;-0.679298;-0.268916;1.11334;-0.356032;-1.44589;-1.45293;-41.3328;19.1399;-41.3328;640.322;224;1024;1024;1024;204;1024;1024;1024;0;0;0;0;-1.3586;-0.349591;1.37832; 
987;991;2019/10/02 16:15:47;0;-1;-1;-1;-1;-1;1;0;0;0;0;0;0;0;0;0;0;0;0;0;0;336.667;268.667;10.2193; -nan; -nan;0;34;1;0.42212;-1.25399;-1.65654;0.423516;-1.24007;-1.68409;-0.433217;-0.155584;1.10646;1.56427;2.14356;3.23744;0;-0.679298;-0.268916;1.11334;-0.356032;-1.44589;-1.45293;-41.3328;19.1399;-41.3328;640.322;224;1024;1024;1024;204;1024;1024;1024;0;0;0;0;-1.3586;-0.349591;1.37832; 
988;992;2019/10/02 16:15:47;0;-1;-1;-1;-1;-1;1;0;0;0;0;0;0;0;0;0;0;0;0;0;0;335.333;269.333;10.4421; -nan; -nan;0;35;1;0.419485;-1.22989;-1.61944;0.422307;-1.23702;-1.66469;-0.373146;-0.0698806;1.15792;2.07688;2.93182;3.39537;0;-0.679298;-0.268916;1.11334;-0.356032;-1.44589;-1.45293;-41.3328;19.1399;-41.3328;640.322;224;1024;1024;1024;204;1024;1024;1024;0;0;0;0;-1.3586;-0.349591;1.37832; 
989;993;2019/10/02 16:15:47;0;-1;-1;-1;-1;-1;1;0;0;0;0;0;0;0;0;0;0;0;0;0;0;333;273;10.4621; -nan; -nan;0;36;1;0.429811;-1.24214;-1.60672;0.424558;-1.23855;-1.6473;-0.288981;-0.0501091;1.14282;2.62454;3.18152;3.00736;0;-0.679298;-0.268916;1.11334;-0.356032;-1.44589;-1.45293;-41.3328;19.1399;-41.3328;640.322;224;1024;1024;1024;204;1024;1024;1024;0;0;0;0;-1.3586;-0.349591;1.37832; 
990;994;2019/10/02 16:15:47;0;-1;-1;-1;-1;-1;1;0;0;0;0;0;0;0;0;0;0;0;0;0;0;331.333;274.667;10.6012; -nan; -nan;0;37;1;0.432018;-1.2324;-1.58132;0.426796;-1.23671;-1.62751;-0.209896;0.00658618;1.1778;3.08717;3.42665;2.80447;0;-0.679298;-0.268916;1.11334;-0.356032;-1.44589;-1.45293;-41.3328;19.1399;-41.3328;640.322;224;1024;1024;1024;204;1024;1024;1024;0;0;0;0;-1.3586;-0.349591;1.37832; 
991;995;2019/10/02 16:15:47;0;-1;-1;-1;-1;-1;1;0;0;0;0;0;0;0;0;0;0;0;0;0;0;329.333;279.333;10.6798; -nan; -nan;0;38;1;0.438185;-1.24154;-1.5577;0.430213;-1.23816;-1.60656;-0.118859;0.00506343;1.16197;3.59231;3.20443;2.21799;0;-0.679298;-0.268916;1.11334;-0.356032;-1.44589;-1.45293;-41.3328;19.1399;-41.3328;640.322;224;1024;1024;1024;204;1024;1024;1024;0;0;0;0;-1.3586;-0.349591;1.37832; 
992;996;2019/10/02 16:15:47;0;-1;-1;-1;-1;-1;1;0;0;0;0;0;0;0;0;0;0;0;0;0;0;327;281;10.7257; -nan; -nan;0;39;1;0.447165;-1.2427;-1.54676;0.435299;-1.23952;-1.58862;-0.0266854;-0.0185827;1.12523;4.05969;2.60083;1.39714;0;-0.679298;-0.268916;1.11334;-0.356032;-1.44589;-1.45293;-41.3328;19.1399;-41.3328;640.322;224;1024;1024;1024;204;1024;1024;1024;0;0;0;0;-1.3586;-0.349591;1.37832; 
993;997;2019/10/02 16:15:47;0;-1;-1;-1;-1;-1;1;0;0;0;0;0;0;0;0;0;0;0;0;0;0;325;285;10.7994; -nan; -nan;0;40;1;0.453354;-1.24965;-1.52604;0.440715;-1.24256;-1.56985;0.0526204;-0.0210947;1.13101;4.37455;2.09718;0.936241;0;-0.679298;-0.268916;1.11334;-0.356032;-1.44589;-1.45293;-41.3328;19.1399;-41.3328;640.322;224;1024;1024;1024;204;1024;1024;1024;0;0;0;0;-1.3586;-0.349591;1.37832; 
994;998;2019/10/02 16:15:47;0;-1;-1;-1;-1;-1;1;0;0;0;0;0;0;0;0;0;0;0;0;0;0;322;289;10.9884; -nan; -nan;0;41;1;0.45918;-1.24333;-1.4898;0.446254;-1.24279;-1.54583;0.127136;-0.0357062;1.15291;4.62111;1.39468;0.541723;0;-0.679298;-0.268916;1.11334;-0.356032;-1.44589;-1.45293;-41.3328;19.1399;-41.3328;640.322;224;1024;1024;1024;204;1024;1024;1024;0;0;0;0;-1.3586;-0.349591;1.37832; 
995;999;2019/10/02 16:15:47;0;-1;-1;-1;-1;-1;1;0;0;0;0;0;0;0;0;0;0;0;0;0;0;319.667;292.333;11.0289; -nan; -nan;0;42;1;0.468052;-1.25136;-1.47603;0.452794;-1.24536;-1.52489;0.188956;-0.0485937;1.18021;4.67988;0.842856;0.47422;0;-0.679298;-0.268916;1.11334;-0.356032;-1.44589;-1.45293;-41.3328;19.1399;-41.3328;640.322;224;1024;1024;1024;204;1024;1024;1024;0;0;0;0;-1.3586;-0.349591;1.37832; 
996;1000;2019/10/02 16:15:47;0;-1;-1;-1;-1;-1;1;0;0;0;0;0;0;0;0;0;0;0;0;0;0;316;297;11.1339; -nan; -nan;0;43;1;0.480071;-1.25703;-1.45061;0.460977;-1.24886;-1.50261;0.249773;-0.0776567;1.20654;4.64223;0.169542;0.399198;0;-0.679298;-0.268916;1.11334;-0.356032;-1.44589;-1.45293;-41.3328;19.1399;-41.3328;640.322;224;1024;1024;1024;204;1024;1024;1024;0;0;0;0;-1.3586;-0.349591;1.37832; 
997;1001;2019/10/02 16:15:47;0;-1;-1;-1;-1;-1;1;0;0;0;0;0;0;0;0;0;0;0;0;0;0;313.75;299.75;11.201; -nan; -nan;0;44;1;0.487219;-1.25973;-1.43518;0.468849;-1.25212;-1.48238;0.304043;-0.102311;1.21949;4.47293;-0.326752;0.469053;0;-0.679298;-0.268916;1.11334;-0.356032;-1.44589;-1.45293;-41.3328;19.1399;-41.3328;640.322;224;1024;1024;1024;204;1024;1024;1024;0;0;0;0;-1.3586;-0.349591;1.37832; 
998;1002;2019/10/02 16:15:47;0;-1;-1;-1;-1;-1;1;0;0;0;0;0;0;0;0;0;0;0;0;0;0;310;304;11.4825; -nan; -nan;0;45;1;0.491568;-1.24426;-1.38982;0.475665;-1.24976;-1.45461;0.343509;-0.102249;1.26647;4.16102;-0.529922;0.845046;0;-0.679298;-0.268916;1.11334;-0.356032;-1.44589;-1.45293;-41.3328;19.1399;-41.3328;640.322;224;1024;1024;1024;204;1024;1024;1024;0;0;0;0;-1.3586;-0.349591;1.37832; 
999;1003;2019/10/02 16:15:47;0;-1;-1;-1;-1;-1;1;0;0;0;0;0;0;0;0;0;0;0;0;0;0;308.25;306.25;11.4307; -nan; -nan;0;46;1;0.501434;-1.2581;-1.39071;0.483396;-1.25226;-1.43544;0.376423;-0.10006;1.29623;3.78875;-0.633065;1.16636;0;-0.679298;-0.268916;1.11334;-0.356032;-1.44589;-1.45293;-41.3328;19.1399;-41.3328;640.322;224;1024;1024;1024;204;1024;1024;1024;0;0;0;0;-1.3586;-0.349591;1.37832; 
1000;1004;2019/10/02 16:15:47;0;-1;-1;-1;-1;-1;1;0;0;0;0;0;0;0;0;0;0;0;0;0;0;304;309;11.6123; -nan; -nan;0;47;1;0.511858;-1.2483;-1.36247;0.491934;-1.25107;-1.41355;0.40814;-0.0930785;1.30561;3.39459;-0.608783;1.30918;0;-0.679298;-0.268916;1.11334;-0.356032;-1.44589;-1.45293;-41.3328;19.1399;-41.3328;640.322;224;1024;1024;1024;204;1024;1024;1024;0;0;0;0;-1.3586;-0.349591;1.37832; 
1001;1005;2019/10/02 16:15:47;0;-1;-1;-1;-1;-1;1;0;0;0;0;0;0;0;0;0;0;0;0;0;0;302;311.429;11.5138; -nan; -nan;0;48;1;0.524903;-1.26776;-1.36833;0.501825;-1.25608;-1.39998;0.440543;-0.0986087;1.28181;3.04072;-0.564855;1.19095;0;-0.679298;-0.268916;1.11334;-0.356032;-1.44589;-1.45293;-41.3328;19.1399;-41.3328;640.322;224;1024;1024;1024;204;1024;1024;1024;0;0;0;0;-1.3586;-0.349591;1.37832; 
1002;1006;2019/10/02 16:15:47;0;-1;-1;-1;-1;-1;1;0;0;0;0;0;0;0;0;0;0;0;0;0;0;299.4;313.4;11.7708; -nan; -nan;0;49;1;0.524465;-1.24706;-1.33386;0.508617;-1.25337;-1.38015;0.454434;-0.0771697;1.25776;2.64113;-0.336969;0.918971;0;-0.679298;-0.268916;1.11334;-0.356032;-1.44589;-1.45293;-41.3328;19.1399;-41.3328;640.322;224;1024;1024;1024;204;1024;1024;1024;0;0;0;0;-1.3586;-0.349591;1.37832; 
1003;1007;2019/10/02 16:15:48;0;-1;-1;-1;-1;-1;1;0;0;0;0;0;0;0;0;0;0;0;0;0;0;296;315.429;11.7549; -nan; -nan;0;50;1;0.539607;-1.25594;-1.33092;0.517914;-1.25414;-1.36538;0.468452;-0.0543688;1.22153;2.24075;-0.0108685;0.559533;0;-0.679298;-0.268916;1.11334;-0.356032;-1.44589;-1.45293;-41.3328;19.1399;-41.3328;640.322;224;1024;1024;1024;204;1024;1024;1024;0;0;0;0;-1.3586;-0.349591;1.37832; 
1004;1008;2019/10/02 16:15:48;0;-1;-1;-1;-1;-1;1;0;0;0;0;0;0;0;0;0;0;0;0;0;0;294.25;316.25;11.9769; -nan; -nan;0;51;1;0.536899;-1.23552;-1.30438;0.523609;-1.24856;-1.34708;0.472393;-0.0278086;1.16202;1.85876;0.290534;-0.0810983;0;-0.679298;-0.268916;1.11334;-0.356032;-1.44589;-1.45293;-41.3328;19.1399;-41.3328;640.322;224;1024;1024;1024;204;1024;1024;1024;0;0;0;0;-1.3586;-0.349591;1.37832; 
1005;1009;2019/10/02 16:15:48;0;-1;-1;-1;-1;-1;1;0;0;0;0;0;0;0;0;0;0;0;0;0;0;290.4;318.8;12.3983; -nan; -nan;0;52;1;0.534143;-1.20209;-1.25439;0.526769;-1.23462;-1.31927;0.456518;0.0537301;1.16078;1.43488;0.78802;-0.589169;0;-0.679298;-0.268916;1.11334;-0.356032;-1.44589;-1.45293;-41.3328;19.1399;-41.3328;640.322;224;1024;1024;1024;204;1024;1024;1024;0;0;0;0;-1.3586;-0.349591;1.37832; 
1006;1010;2019/10/02 16:15:48;0;-1;-1;-1;-1;-1;1;0;0;0;0;0;0;0;0;0;0;0;0;0;0;288.6;318.6;12.1967; -nan; -nan;0;53;1;0.550338;-1.22128;-1.27558;0.53384;-1.23062;-1.30617;0.441135;0.113868;1.12499;0.992593;1.29863;-1.07428;0;-0.679298;-0.268916;1.11334;-0.356032;-1.44589;-1.45293;-41.3328;19.1399;-41.3328;640.322;224;1024;1024;1024;204;1024;1024;1024;0;0;0;0;-1.3586;-0.349591;1.37832; 
1007;1011;2019/10/02 16:15:48;0;-1;-1;-1;-1;-1;1;0;0;0;0;0;0;0;0;0;0;0;0;0;0;285.429;322;12.4735; -nan; -nan;0;54;1;0.55081;-1.20553;-1.23979;0.538931;-1.22309;-1.28625;0.412753;0.199954;1.12884;0.484661;1.97059;-1.25498;0;-0.679298;-0.268916;1.11334;-0.356032;-1.44589;-1.45293;-41.3328;19.1399;-41.3328;640.322;224;1024;1024;1024;204;1024;1024;1024;0;0;0;0;-1.3586;-0.349591;1.37832; 
1008;1012;2019/10/02 16:15:48;0;-1;-1;-1;-1;-1;1;0;0;0;0;0;0;0;0;0;0;0;0;0;0;282.667;322.222;12.3838; -nan; -nan;0;55;1;0.56593;-1.21502;-1.24828;0.547031;-1.22067;-1.27486;0.400943;0.250477;1.09746;0.0773414;2.48984;-1.39267;0;-0.679298;-0.268916;1.11334;-0.356032;-1.44589;-1.45293;-41.3328;19.1399;-41.3328;640.322;224;1024;1024;1024;204;1024;1024;1024;0;0;0;0;-1.3586;-0.349591;1.37832; 
1009;1013;2019/10/02 16:15:48;0;-1;-1;-1;-1;-1;1;0;0;0;0;0;0;0;0;0;0;0;0;0;0;279.75;324.25;12.5574; -nan; -nan;0;56;1;0.569696;-1.20495;-1.22659;0.55383;-1.21595;-1.26038;0.383891;0.302681;1.07749;-0.291036;2.91871;-1.4104;0;-0.679298;-0.268916;1.11334;-0.356032;-1.44589;-1.45293;-41.3328;19.1399;-41.3328;640.322;224;1024;1024;1024;204;1024;1024;1024;0;0;0;0;-1.3586;-0.349591;1.37832; 
1010;1014;2019/10/02 16:15:48;0;-1;-1;-1;-1;-1;1;0;0;0;0;0;0;0;0;0;0;0;0;0;0;275.778;327.333;12.5112; -nan; -nan;0;57;1;0.587642;-1.21966;-1.22435;0.563974;-1.21707;-1.24957;0.391409;0.307267;1.03561;-0.497786;3.08835;-1.35067;0;-0.679298;-0.268916;1.11334;-0.356032;-1.44589;-1.45293;-41.3328;19.1399;-41.3328;640.322;224;1024;1024;1024;204;1024;1024;1024;0;0;0;0;-1.3586;-0.349591;1.37832; 
1011;1015;2019/10/02 16:15:48;0;-1;-1;-1;-1;-1;1;0;0;0;0;0;0;0;0;0;0;0;0;0;0;272.571;328;12.5861; -nan; -nan;0;58;1;0.596858;-1.21462;-1.21561;0.573839;-1.21633;-1.23938;0.422678;0.257326;0.940177;-0.433709;2.66546;-1.69073;0;-0.679298;-0.268916;1.11334;-0.356032;-1.44589;-1.45293;-41.3328;19.1399;-41.3328;640.322;224;1024;1024;1024;204;1024;1024;1024;0;0;0;0;-1.3586;-0.349591;1.37832; 
1012;1016;2019/10/02 16:15:48;0;-1;-1;-1;-1;-1;1;0;0;0;0;0;0;0;0;0;0;0;0;0;0;269.75;331.75;12.6939; -nan; -nan;0;59;1;0.602882;-1.21661;-1.19718;0.582552;-1.21642;-1.22672;0.447993;0.21106;0.88113;-0.232857;1.98712;-1.98755;0;-0.679298;-0.268916;1.11334;-0.356032;-1.44589;-1.45293;-41.3328;19.1399;-41.3328;640.322;224;1024;1024;1024;204;1024;1024;1024;0;0;0;0;-1.3586;-0.349591;1.37832; 
1013;1017;2019/10/02 16:15:48;0;-1;-1;-1;-1;-1;1;0;0;0;0;0;0;0;0;0;0;0;0;0;0;266.667;332.222;12.7429; -nan; -nan;0;60;1;0.612638;-1.21348;-1.19156;0.591578;-1.21554;-1.21617;0.478884;0.156786;0.808329;0.12418;1.02001;-2.47154;0;-0.679298;-0.268916;1.11334;-0.356032;-1.44589;-1.45293;-41.3328;19.1399;-41.3328;640.322;224;1024;1024;1024;204;1024;1024;1024;0;0;0;0;-1.3586;-0.349591;1.37832; 
1014;1018;2019/10/02 16:15:48;0;-1;-1;-1;-1;-1;1;0;0;0;0;0;0;0;0;0;0;0;0;0;0;262.571;336;13.1271; -nan; -nan;0;61;1;0.610271;-1.18995;-1.14878;0.597186;-1.20786;-1.19595;0.487474;0.145187;0.799868;0.419809;0.191846;-2.67046;0;-0.679298;-0.268916;1.11334;-0.356032;-1.44589;-1.45293;-41.3328;19.1399;-41.3328;640.322;224;1024;1024;1024;204;1024;1024;1024;0;0;0;0;-1.3586;-0.349591;1.37832; 
1015;1019;2019/10/02 16:15:48;0;-1;-1;-1;-1;-1;1;0;0;0;0;0;0;0;0;0;0;0;0;0;0;259.75;337.75;12.9633; -nan; -nan;0;62;1;0.628846;-1.21062;-1.15959;0.606684;-1.20869;-1.18505;0.503396;0.116106;0.780529;0.728774;-0.629423;-2.78729;0;-0.679298;-0.268916;1.11334;-0.356032;-1.44589;-1.45293;-41.3328;19.1399;-41.3328;640.322;224;1024;1024;1024;204;1024;1024;1024;0;0;0;0;-1.3586;-0.349591;1.37832; 
1016;1020;2019/10/02 16:15:48;0;-1;-1;-1;-1;-1;1;0;0;0;0;0;0;0;0;0;0;0;0;0;0;256;340.571;13.348; -nan; -nan;0;63;1;0.624739;-1.18453;-1.12037;0.6121;-1.20144;-1.16564;0.494087;0.132022;0.803226;0.846998;-1.07697;-2.59971;0;-0.679298;-0.268916;1.11334;-0.356032;-1.44589;-1.45293;-41.3328;19.1399;-41.3328;640.322;224;1024;1024;1024;204;1024;1024;1024;0;0;0;0;-1.3586;-0.349591;1.37832; 
1017;1021;2019/10/02 16:15:48;0;-1;-1;-1;-1;-1;1;0;0;0;0;0;0;0;0;0;0;0;0;0;0;253.333;343.778;13.3006; -nan; -nan;0;64;1;0.636972;-1.1988;-1.11774;0.619562;-1.20065;-1.15127;0.478908;0.1418;0.833532;0.732584;-1.10719;-1.9854;0;-0.679298;-0.268916;1.11334;-0.356032;-1.44589;-1.45293;-41.3328;19.1399;-41.3328;640.322;224;1024;1024;1024;204;1024;1024;1024;0;0;0;0;-1.3586;-0.349591;1.37832; 
1018;1022;2019/10/02 16:15:48;0;-1;-1;-1;-1;-1;1;0;0;0;0;0;0;0;0;0;0;0;0;0;0;250;345.429;13.503; -nan; -nan;0;65;1;0.639742;-1.18592;-1.09763;0.625616;-1.19623;-1.13518;0.459191;0.16563;0.865408;0.484236;-0.8456;-1.25398;0;-0.679298;-0.268916;1.11334;-0.356032;-1.44589;-1.45293;-41.3328;19.1399;-41.3328;640.322;224;1024;1024;1024;204;1024;1024;1024;0;0;0;0;-1.3586;-0.349591;1.37832; 
1019;1023;2019/10/02 16:15:48;0;-1;-1;-1;-1;-1;1;0;0;0;0;0;0;0;0;0;0;0;0;0;0;247.667;348.333;13.5362; -nan; -nan;0;66;1;0.646773;-1.19195;-1.08905;0.631963;-1.19495;-1.12134;0.436671;0.181535;0.897671;0.122091;-0.408599;-0.395867;0;-0.679298;-0.268916;1.11334;-0.356032;-1.44589;-1.45293;-41.3328;19.1399;-41.3328;640.322;224;1024;1024;1024;204;1024;1024;1024;0;0;0;0;-1.3586;-0.349591;1.37832; 
1020;1024;2019/10/02 16:15:48;0;-1;-1;-1;-1;-1;1;0;0;0;0;0;0;0;0;0;0;0;0;0;0;245.75;349.75;13.5545; -nan; -nan;0;67;1;0.652959;-1.19471;-1.08471;0.638262;-1.19488;-1.11035;0.425916;0.160737;0.880196;-0.172392;-0.183109;0.0830259;0;-0.679298;-0.268916;1.11334;-0.356032;-1.44589;-1.45293;-41.3328;19.1399;-41.3328;640.322;224;1024;1024;1024;204;1024;1024;1024;0;0;0;0;-1.3586;-0.349591;1.37832; 
1021;1025;2019/10/02 16:15:48;0;-1;-1;-1;-1;-1;1;0;0;0;0;0;0;0;0;0;0;0;0;0;0;242;353.429;13.8354; -nan; -nan;0;68;1;0.653223;-1.18152;-1.05539;0.64275;-1.19087;-1.09386;0.399472;0.167543;0.891986;-0.518147;0.0953971;0.494583;0;-0.679298;-0.268916;1.11334;-0.356032;-1.44589;-1.45293;-41.3328;19.1399;-41.3328;640.322;224;1024;1024;1024;204;1024;1024;1024;0;0;0;0;-1.3586;-0.349591;1.37832; 
1022;1026;2019/10/02 16:15:48;0;-1;-1;-1;-1;-1;1;0;0;0;0;0;0;0;0;0;0;0;0;0;0;240.25;354.25;13.8972; -nan; -nan;0;69;1;0.656602;-1.17873;-1.04907;0.646906;-1.18723;-1.08042;0.378574;0.157238;0.875253;-0.771841;0.157863;0.584173;0;-0.679298;-0.268916;1.11334;-0.356032;-1.44589;-1.45293;-41.3328;19.1399;-41.3328;640.322;224;1024;1024;1024;204;1024;1024;1024;0;0;0;0;-1.3586;-0.349591;1.37832; 
1023;1027;2019/10/02 16:15:48;0;-1;-1;-1;-1;-1;1;0;0;0;0;0;0;0;0;0;0;0;0;0;0;237;358;14.3073; -nan; -nan;0;70;1;0.64912;-1.15587;-1.01181;0.64757;-1.17782;-1.05984;0.338911;0.185431;0.890015;-1.02176;0.268829;0.575901;0;-0.679298;-0.268916;1.11334;-0.356032;-1.44589;-1.45293;-41.3328;19.1399;-41.3328;640.322;224;1024;1024;1024;204;1024;1024;1024;0;0;0;0;-1.3586;-0.349591;1.37832; 
1024;1028;2019/10/02 16:15:48;0;-1;-1;-1;-1;-1;1;0;0;0;0;0;0;0;0;0;0;0;0;0;0;235.455;358.545;14.1085; -nan; -nan;0;71;1;0.663731;-1.17377;-1.025;0.652418;-1.17661;-1.04939;0.310301;0.189574;0.876365;-1.2072;0.256846;0.389262;0;-0.679298;-0.268916;1.11334;-0.356032;-1.44589;-1.45293;-41.3328;19.1399;-41.3328;640.322;224;1024;1024;1024;204;1024;1024;1024;0;0;0;0;-1.3586;-0.349591;1.37832; 
1025;1029;2019/10/02 16:15:48;0;-1;-1;-1;-1;-1;1;0;0;0;0;0;0;0;0;0;0;0;0;0;0;232;362;14.4713; -nan; -nan;0;72;1;0.659005;-1.15429;-0.992755;0.654394;-1.16991;-1.0324;0.275693;0.213654;0.880745;-1.3667;0.282276;0.166014;0;-0.679298;-0.268916;1.11334;-0.356032;-1.44589;-1.45293;-41.3328;19.1399;-41.3328;640.322;224;1024;1024;1024;204;1024;1024;1024;0;0;0;0;-1.3586;-0.349591;1.37832; 
1026;1030;2019/10/02 16:15:48;0;-1;-1;-1;-1;-1;1;0;0;0;0;0;0;0;0;0;0;0;0;0;0;230;363.429;14.3668; -nan; -nan;0;73;1;0.670744;-1.16683;-0.997246;0.659299;-1.16899;-1.02185;0.249366;0.2315;0.881607;-1.52454;0.451746;0.105242;0;-0.679298;-0.268916;1.11334;-0.356032;-1.44589;-1.45293;-41.3328;19.1399;-41.3328;640.322;224;1024;1024;1024;204;1024;1024;1024;0;0;0;0;-1.3586;-0.349591;1.37832; 
1027;1031;2019/10/02 16:15:48;0;-1;-1;-1;-1;-1;1;0;0;0;0;0;0;0;0;0;0;0;0;0;0;227;366;14.5587; -nan; -nan;0;74;1;0.672182;-1.1588;-0.979247;0.663164;-1.16593;-1.00907;0.231081;0.238414;0.867328;-1.58669;0.553858;-0.035255;0;-0.679298;-0.268916;1.11334;-0.356032;-1.44589;-1.45293;-41.3328;19.1399;-41.3328;640.322;224;1024;1024;1024;204;1024;1024;1024;0;0;0;0;-1.3586;-0.349591;1.37832; 
1028;1032;2019/10/02 16:15:48;0;-1;-1;-1;-1;-1;1;0;0;0;0;0;0;0;0;0;0;0;0;0;0;224.6;368.6;14.5989; -nan; -nan;0;75;1;0.678535;-1.16304;-0.971662;0.667775;-1.16506;-0.997848;0.22193;0.231498;0.849918;-1.5771;0.628651;-0.12225;0;-0.679298;-0.268916;1.11334;-0.356032;-1.44589;-1.45293;-41.3328;19.1399;-41.3328;640.322;224;1024;1024;1024;204;1024;1024;1024;0;0;0;0;-1.3586;-0.349591;1.37832; 
1029;1033;2019/10/02 16:15:48;0;-1;-1;-1;-1;-1;1;0;0;0;0;0;0;0;0;0;0;0;0;0;0;222.25;370.25;14.8055; -nan; -nan;0;76;1;0.676987;-1.15145;-0.955044;0.670539;-1.16098;-0.985007;0.224816;0.206108;0.808572;-1.40156;0.459701;-0.398348;0;-0.679298;-0.268916;1.11334;-0.356032;-1.44589;-1.45293;-41.3328;19.1399;-41.3328;640.322;224;1024;1024;1024;204;1024;1024;1024;0;0;0;0;-1.3586;-0.349591;1.37832; 
1030;1034;2019/10/02 16:15:48;0;-1;-1;-1;-1;-1;1;0;0;0;0;0;0;0;0;0;0;0;0;0;0;220;374;14.914; -nan; -nan;0;77;1;0.679591;-1.15355;-0.941195;0.673255;-1.15875;-0.971864;0.218038;0.194912;0.79451;-1.20911;0.297121;-0.565652;0;-0.679298;-0.268916;1.11334;-0.356032;-1.44589;-1.45293;-41.3328;19.1399;-41.3328;640.322;224;1024;1024;1024;204;1024;1024;1024;0;0;0;0;-1.3586;-0.349591;1.37832; 
1031;1035;2019/10/02 16:15:48;0;-1;-1;-1;-1;-1;1;0;0;0;0;0;0;0;0;0;0;0;0;0;0;217.75;375.75;15.0026; -nan; -nan;0;78;1;0.683061;-1.1516;-0.932433;0.676197;-1.15661;-0.960034;0.217825;0.170043;0.765476;-0.95639;0.00424607;-0.79937;0;-0.679298;-0.268916;1.11334;-0.356032;-1.44589;-1.45293;-41.3328;19.1399;-41.3328;640.322;224;1024;1024;1024;204;1024;1024;1024;0;0;0;0;-1.3586;-0.349591;1.37832; 
1032;1036;2019/10/02 16:15:48;0;-1;-1;-1;-1;-1;1;0;0;0;0;0;0;0;0;0;0;0;0;0;0;214.727;379.818;15.2559; -nan; -nan;0;79;1;0.681608;-1.14359;-0.909632;0.67782;-1.1527;-0.944914;0.204602;0.167013;0.766311;-0.752466;-0.254788;-0.939711;0;-0.679298;-0.268916;1.11334;-0.356032;-1.44589;-1.45293;-41.3328;19.1399;-41.3328;640.322;224;1024;1024;1024;204;1024;1024;1024;0;0;0;0;-1.3586;-0.349591;1.37832; 
1033;1037;2019/10/02 16:15:48;0;-1;-1;-1;-1;-1;1;0;0;0;0;0;0;0;0;0;0;0;0;0;0;212.25;381.75;15.3406; -nan; -nan;0;80;1;0.685902;-1.14252;-0.901152;0.680244;-1.14965;-0.931785;0.19092;0.165188;0.768196;-0.611743;-0.445082;-0.959413;0;-0.679298;-0.268916;1.11334;-0.356032;-1.44589;-1.45293;-41.3328;19.1399;-41.3328;640.322;224;1024;1024;1024;204;1024;1024;1024;0;0;0;0;-1.3586;-0.349591;1.37832; 
1034;1038;2019/10/02 16:15:48;0;-1;-1;-1;-1;-1;1;0;0;0;0;0;0;0;0;0;0;0;0;0;0;209.75;385.75;15.4748; -nan; -nan;0;81;1;0.688014;-1.14339;-0.88624;0.682575;-1.14777;-0.918122;0.173611;0.168122;0.779067;-0.55986;-0.519953;-0.858381;0;-0.679298;-0.268916;1.11334;-0.356032;-1.44589;-1.45293;-41.3328;19.1399;-41.3328;640.322;224;1024;1024;1024;204;1024;1024;1024;0;0;0;0;-1.3586;-0.349591;1.37832; 
1035;1039;2019/10/02 16:15:48;0;-1;-1;-1;-1;-1;1;0;0;0;0;0;0;0;0;0;0;0;0;0;0;206.833;387.5;15.497; -nan; -nan;0;82;1;0.696423;-1.14646;-0.881874;0.68673;-1.14738;-0.907248;0.168776;0.155155;0.77774;-0.559545;-0.515298;-0.638066;0;-0.679298;-0.268916;1.11334;-0.356032;-1.44589;-1.45293;-41.3328;19.1399;-41.3328;640.322;224;1024;1024;1024;204;1024;1024;1024;0;0;0;0;-1.3586;-0.349591;1.37832; 
1036;1040;2019/10/02 16:15:48;0;-1;-1;-1;-1;-1;1;0;0;0;0;0;0;0;0;0;0;0;0;0;0;203.333;391.778;15.62; -nan; -nan;0;83;1;0.702118;-1.14884;-0.867409;0.691346;-1.14781;-0.895296;0.173459;0.136733;0.772187;-0.513617;-0.541341;-0.471916;0;-0.679298;-0.268916;1.11334;-0.356032;-1.44589;-1.45293;-41.3328;19.1399;-41.3328;640.322;224;1024;1024;1024;204;1024;1024;1024;0;0;0;0;-1.3586;-0.349591;1.37832; 
1037;1041;2019/10/02 16:15:48;0;-1;-1;-1;-1;-1;1;0;0;0;0;0;0;0;0;0;0;0;0;0;0;200.769;393.231;15.7601; -nan; -nan;0;84;1;0.703995;-1.14247;-0.857167;0.695141;-1.14621;-0.883857;0.179673;0.123519;0.767297;-0.460414;-0.510462;-0.275883;0;-0.679298;-0.268916;1.11334;-0.356032;-1.44589;-1.45293;-41.3328;19.1399;-41.3328;640.322;224;1024;1024;1024;204;1024;1024;1024;0;0;0;0;-1.3586;-0.349591;1.37832; 
1038;1042;2019/10/02 16:15:48;0;-1;-1;-1;-1;-1;1;0;0;0;0;0;0;0;0;0;0;0;0;0;0;196.667;398.222;16.0573; -nan; -nan;0;85;1;0.703714;-1.13428;-0.832768;0.697713;-1.14263;-0.868531;0.187187;0.1143;0.765186;-0.345741;-0.51663;-0.17002;0;-0.679298;-0.268916;1.11334;-0.356032;-1.44589;-1.45293;-41.3328;19.1399;-41.3328;640.322;224;1024;1024;1024;204;1024;1024;1024;0;0;0;0;-1.3586;-0.349591;1.37832; 
1039;1043;2019/10/02 16:15:48;0;-1;-1;-1;-1;-1;1;0;0;0;0;0;0;0;0;0;0;0;0;0;0;192.909;400.364;16.1568; -nan; -nan;0;86;1;0.710984;-1.13281;-0.823999;0.701694;-1.13968;-0.855171;0.197908;0.108341;0.764841;-0.17956;-0.536825;-0.115399;0;-0.679298;-0.268916;1.11334;-0.356032;-1.44589;-1.45293;-41.3328;19.1399;-41.3328;640.322;224;1024;1024;1024;204;1024;1024;1024;0;0;0;0;-1.3586;-0.349591;1.37832; 
1040;1044;2019/10/02 16:15:48;0;-1;-1;-1;-1;-1;1;0;0;0;0;0;0;0;0;0;0;0;0;0;0;188.4;404;16.4544; -nan; -nan;0;87;1;0.711801;-1.12153;-0.803032;0.704726;-1.13424;-0.839529;0.207139;0.118998;0.772529;0.0260543;-0.518123;-0.0953282;0;-0.679298;-0.268916;1.11334;-0.356032;-1.44589;-1.45293;-41.3328;19.1399;-41.3328;640.322;224;1024;1024;1024;204;1024;1024;1024;0;0;0;0;-1.3586;-0.349591;1.37832; 
1041;1045;2019/10/02 16:15:48;0;-1;-1;-1;-1;-1;1;0;0;0;0;0;0;0;0;0;0;0;0;0;0;184.364;406.909;16.3837; -nan; -nan;0;88;1;0.727167;-1.13377;-0.801623;0.711459;-1.1341;-0.828157;0.222964;0.12438;0.779127;0.23187;-0.433682;-0.0516614;0;-0.679298;-0.268916;1.11334;-0.356032;-1.44589;-1.45293;-41.3328;19.1399;-41.3328;640.322;224;1024;1024;1024;204;1024;1024;1024;0;0;0;0;-1.3586;-0.349591;1.37832; 
1042;1046;2019/10/02 16:15:48;0;-1;-1;-1;-1;-1;1;0;0;0;0;0;0;0;0;0;0;0;0;0;0;179.636;409.636;16.6517; -nan; -nan;0;89;1;0.729628;-1.12235;-0.784223;0.716909;-1.13057;-0.814977;0.235812;0.143444;0.788061;0.387995;-0.233424;0.0323617;0;-0.679298;-0.268916;1.11334;-0.356032;-1.44589;-1.45293;-41.3328;19.1399;-41.3328;640.322;224;1024;1024;1024;204;1024;1024;1024;0;0;0;0;-1.3586;-0.349591;1.37832; 
1043;1047;2019/10/02 16:15:48;0;-1;-1;-1;-1;-1;1;0;0;0;0;0;0;0;0;0;0;0;0;0;0;175;413;16.5235; -nan; -nan;0;90;1;0.749292;-1.13954;-0.78472;0.726624;-1.13326;-0.8059;0.267149;0.137743;0.783996;0.581948;-0.0832778;0.0860672;0;-0.679298;-0.268916;1.11334;-0.356032;-1.44589;-1.45293;-41.3328;19.1399;-41.3328;640.322;224;1024;1024;1024;204;1024;1024;1024;0;0;0;0;-1.3586;-0.349591;1.37832; 
1044;1048;2019/10/02 16:15:48;0;-1;-1;-1;-1;-1;1;0;0;0;0;0;0;0;0;0;0;0;0;0;0;170.25;414.25;16.8903; -nan; -nan;0;91;1;0.747053;-1.11788;-0.765648;0.732753;-1.12865;-0.793824;0.300148;0.138455;0.76858;0.800041;0.0464473;0.0651877;0;-0.679298;-0.268916;1.11334;-0.356032;-1.44589;-1.45293;-41.3328;19.1399;-41.3328;640.322;224;1024;1024;1024;204;1024;1024;1024;0;0;0;0;-1.3586;-0.349591;1.37832; 
1045;1049;2019/10/02 16:15:48;0;-1;-1;-1;-1;-1;1;0;0;0;0;0;0;0;0;0;0;0;0;0;0;165.75;417.75;16.9312; -nan; -nan;0;92;1;0.758511;-1.12379;-0.758123;0.74048;-1.12719;-0.783114;0.3349;0.132938;0.748757;1.02682;0.126045;-0.0250824;0;-0.679298;-0.268916;1.11334;-0.356032;-1.44589;-1.45293;-41.3328;19.1399;-41.3328;640.322;224;1024;1024;1024;204;1024;1024;1024;0;0;0;0;-1.3586;-0.349591;1.37832; 
1046;1050;2019/10/02 16:15:48;0;-1;-1;-1;-1;-1;1;0;0;0;0;0;0;0;0;0;0;0;0;0;0;161.4;417.4;16.9743; -nan; -nan;0;93;1;0.769371;-1.12008;-0.756763;0.749148;-1.12506;-0.775209;0.378244;0.116414;0.705984;1.29904;0.0653117;-0.280655;0;-0.679298;-0.268916;1.11334;-0.356032;-1.44589;-1.45293;-41.3328;19.1399;-41.3328;640.322;224;1024;1024;1024;204;1024;1024;1024;0;0;0;0;-1.3586;-0.349591;1.37832; 
1047;1051;2019/10/02 16:15:48;0;-1;-1;-1;-1;-1;1;0;0;0;0;0;0;0;0;0;0;0;0;0;0;155.778;421.333;17.1596; -nan; -nan;0;94;1;0.777415;-1.11754;-0.7423;0.757628;-1.1228;-0.765336;0.411227;0.114947;0.674337;1.53086;0.00153692;-0.586655;0;-0.679298;-0.268916;1.11334;-0.356032;-1.44589;-1.45293;-41.3328;19.1399;-41.3328;640.322;224;1024;1024;1024;204;1024;1024;1024;0;0;0;0;-1.3586;-0.349591;1.37832; 
1048;1052;2019/10/02 16:15:48;0;-1;-1;-1;-1;-1;1;0;0;0;0;0;0;0;0;0;0;0;0;0;0;151;421;17.3811; -nan; -nan;0;95;1;0.781221;-1.10249;-0.733364;0.764706;-1.11671;-0.755744;0.437467;0.124304;0.640971;1.72323;-0.0754579;-0.938957;0;-0.679298;-0.268916;1.11334;-0.356032;-1.44589;-1.45293;-41.3328;19.1399;-41.3328;640.322;224;1024;1024;1024;204;1024;1024;1024;0;0;0;0;-1.3586;-0.349591;1.37832; 
1049;1053;2019/10/02 16:15:48;0;-1;-1;-1;-1;-1;1;0;0;0;0;0;0;0;0;0;0;0;0;0;0;145.333;423.778;17.4165; -nan; -nan;0;96;1;0.795869;-1.1069;-0.727495;0.774055;-1.11376;-0.74727;0.451753;0.152396;0.618548;1.7706;0.0131974;-1.22359;0;-0.679298;-0.268916;1.11334;-0.356032;-1.44589;-1.45293;-41.3328;19.1399;-41.3328;640.322;224;1024;1024;1024;204;1024;1024;1024;0;0;0;0;-1.3586;-0.349591;1.37832; 
1050;1054;2019/10/02 16:15:48;0;-1;-1;-1;-1;-1;1;0;0;0;0;0;0;0;0;0;0;0;0;0;0;140.429;423.429;17.307; -nan; -nan;0;97;1;0.815049;-1.11306;-0.732655;0.786353;-1.11355;-0.742885;0.484944;0.151672;0.574402;1.79979;0.0606593;-1.50902;0;-0.679298;-0.268916;1.11334;-0.356032;-1.44589;-1.45293;-41.3328;19.1399;-41.3328;640.322;224;1024;1024;1024;204;1024;1024;1024;0;0;0;0;-1.3586;-0.349591;1.37832; 
1051;1055;2019/10/02 16:15:48;0;-1;-1;-1;-1;-1;1;0;0;0;0;0;0;0;0;0;0;0;0;0;0;134.667;426.222;17.481; -nan; -nan;0;98;1;0.823381;-1.10864;-0.720972;0.797461;-1.11208;-0.736311;0.518351;0.151306;0.531408;1.81194;0.109694;-1.77275;0;-0.679298;-0.268916;1.11334;-0.356032;-1.44589;-1.45293;-41.3328;19.1399;-41.3328;640.322;224;1024;1024;1024;204;1024;1024;1024;0;0;0;0;-1.3586;-0.349591;1.37832; 
1052;1056;2019/10/02 16:15:48;0;-1;-1;-1;-1;-1;1;0;0;0;0;0;0;0;0;0;0;0;0;0;0;129;427;17.4547; -nan; -nan;0;99;1;0.840821;-1.11217;-0.720835;0.810469;-1.11211;-0.731668;0.555715;0.142467;0.492592;1.79536;0.169781;-1.91519;0;-0.679298;-0.268916;1.11334;-0.356032;-1.44589;-1.45293;-41.3328;19.1399;-41.3328;640.322;224;1024;1024;1024;204;1024;1024;1024;0;0;0;0;-1.3586;-0.349591;1.37832; 
1053;1057;2019/10/02 16:15:48;0;-1;-1;-1;-1;-1;1;0;0;0;0;0;0;0;0;0;0;0;0;0;0;124;428.4;17.5357; -nan; -nan;0;100;1;0.851165;-1.11036;-0.715314;0.822678;-1.11158;-0.726762;0.593013;0.130255;0.449486;1.80264;0.162952;-2.04639;0;-0.679298;-0.268916;1.11334;-0.356032;-1.44589;-1.45293;-41.3328;19.1399;-41.3328;640.322;224;1024;1024;1024;204;1024;1024;1024;0;0;0;0;-1.3586;-0.349591;1.37832; 
1054;1058;2019/10/02 16:15:48;0;-1;-1;-1;-1;-1;1;0;0;0;0;0;0;0;0;0;0;0;0;0;0;118.133;429.467;17.5063; -nan; -nan;0;101;1;0.86932;-1.11476;-0.714844;0.836671;-1.11253;-0.723187;0.642985;0.094803;0.399613;1.9017;-0.0199511;-2.19098;0;-0.679298;-0.268916;1.11334;-0.356032;-1.44589;-1.45293;-41.3328;19.1399;-41.3328;640.322;224;1024;1024;1024;204;1024;1024;1024;0;0;0;0;-1.3586;-0.349591;1.37832; 
1055;1059;2019/10/02 16:15:48;0;-1;-1;-1;-1;-1;1;0;0;0;0;0;0;0;0;0;0;0;0;0;0;113.167;430.5;17.6646; -nan; -nan;0;102;1;0.875558;-1.10721;-0.706831;0.848337;-1.11094;-0.71828;0.682215;0.0681641;0.355452;2.06068;-0.348101;-2.36448;0;-0.679298;-0.268916;1.11334;-0.356032;-1.44589;-1.45293;-41.3328;19.1399;-41.3328;640.322;224;1024;1024;1024;204;1024;1024;1024;0;0;0;0;-1.3586;-0.349591;1.37832; 
1056;1060;2019/10/02 16:15:48;0;-1;-1;-1;-1;-1;1;0;0;0;0;0;0;0;0;0;0;0;0;0;0;106.375;431.25;17.6596; -nan; -nan;0;103;1;0.894998;-1.10929;-0.705867;0.862335;-1.11044;-0.714556;0.712537;0.0533087;0.326319;2.14462;-0.60138;-2.40867;0;-0.679298;-0.268916;1.11334;-0.356032;-1.44589;-1.45293;-41.3328;19.1399;-41.3328;640.322;224;1024;1024;1024;204;1024;1024;1024;0;0;0;0;-1.3586;-0.349591;1.37832; 
1057;1061;2019/10/02 16:15:48;0;-1;-1;-1;-1;-1;1;0;0;0;0;0;0;0;0;0;0;0;0;0;0;102.154;431.231;17.756; -nan; -nan;0;104;1;0.902002;-1.10323;-0.702064;0.874235;-1.10828;-0.710809;0.73389;0.0471532;0.297561;2.14689;-0.776453;-2.37837;0;-0.679298;-0.268916;1.11334;-0.356032;-1.44589;-1.45293;-41.3328;19.1399;-41.3328;640.322;224;1024;1024;1024;204;1024;1024;1024;0;0;0;0;-1.3586;-0.349591;1.37832; 
1058;1062;2019/10/02 16:15:48;0;-1;-1;-1;-1;-1;1;0;0;0;0;0;0;0;0;0;0;0;0;0;0;94;433.286;17.6732; -nan; -nan;0;105;1;0.929247;-1.11324;-0.702159;0.890739;-1.10977;-0.708214;0.760651;0.0376281;0.272133;2.10593;-0.884234;-2.30677;0;-0.679298;-0.268916;1.11334;-0.356032;-1.44589;-1.45293;-41.3328;19.1399;-41.3328;640.322;224;1024;1024;1024;204;1024;1024;1024;0;0;0;0;-1.3586;-0.349591;1.37832; 
1059;1063;2019/10/02 16:15:48;0;-1;-1;-1;-1;-1;1;0;0;0;0;0;0;0;0;0;0;0;0;0;0;90.3636;432.364;18.0745; -nan; -nan;0;106;1;0.918657;-1.0864;-0.687972;0.899114;-1.10275;-0.702141;0.761411;0.0577949;0.26153;1.93556;-0.819692;-2.13411;0;-0.679298;-0.268916;1.11334;-0.356032;-1.44589;-1.45293;-41.3328;19.1399;-41.3328;640.322;224;1024;1024;1024;204;1024;1024;1024;0;0;0;0;-1.3586;-0.349591;1.37832; 
1060;1064;2019/10/02 16:15:48;0;-1;-1;-1;-1;-1;1;0;0;0;0;0;0;0;0;0;0;0;0;0;0;83.2727;434.182;17.8691; -nan; -nan;0;107;1;0.949014;-1.10312;-0.693084;0.914084;-1.10286;-0.699424;0.765767;0.0732677;0.251744;1.6513;-0.577752;-1.87054;0;-0.679298;-0.268916;1.11334;-0.356032;-1.44589;-1.45293;-41.3328;19.1399;-41.3328;640.322;224;1024;1024;1024;204;1024;1024;1024;0;0;0;0;-1.3586;-0.349591;1.37832; 
1061;1065;2019/10/02 16:15:48;0;-1;-1;-1;-1;-1;1;0;0;0;0;0;0;0;0;0;0;0;0;0;0;80.7692;433.231;18.1925; -nan; -nan;0;108;1;0.939012;-1.08133;-0.682199;0.921563;-1.0964;-0.694256;0.751669;0.101951;0.246913;1.26793;-0.211824;-1.55545;0;-0.679298;-0.268916;1.11334;-0.356032;-1.44589;-1.45293;-41.3328;19.1399;-41.3328;640.322;224;1024;1024;1024;204;1024;1024;1024;0;0;0;0;-1.3586;-0.349591;1.37832; 
1062;1066;2019/10/02 16:15:48;0;-1;-1;-1;-1;-1;1;0;0;0;0;0;0;0;0;0;0;0;0;0;0;75.1667;434.5;18.2226; -nan; -nan;0;109;1;0.952804;-1.08245;-0.679161;0.930935;-1.09222;-0.689728;0.72475;0.133899;0.247225;0.809498;0.1945;-1.24889;0;-0.679298;-0.268916;1.11334;-0.356032;-1.44589;-1.45293;-41.3328;19.1399;-41.3328;640.322;224;1024;1024;1024;204;1024;1024;1024;0;0;0;0;-1.3586;-0.349591;1.37832; 
1063;1067;2019/10/02 16:15:49;0;-1;-1;-1;-1;-1;1;0;0;0;0;0;0;0;0;0;0;0;0;0;0;72.4286;433.286;18.2193; -nan; -nan;0;110;1;0.960476;-1.07987;-0.681114;0.939797;-1.08851;-0.687144;0.696477;0.159209;0.24277;0.336404;0.563861;-0.96798;0;-0.679298;-0.268916;1.11334;-0.356032;-1.44589;-1.45293;-41.3328;19.1399;-41.3328;640.322;224;1024;1024;1024;204;1024;1024;1024;0;0;0;0;-1.3586;-0.349591;1.37832; 
1064;1068;2019/10/02 16:15:49;0;-1;-1;-1;-1;-1;1;0;0;0;0;0;0;0;0;0;0;0;0;0;0;68.25;434.25;18.3187; -nan; -nan;0;111;1;0.966647;-1.0762;-0.675973;0.947852;-1.08482;-0.683792;0.645799;0.195067;0.243115;-0.256473;0.966579;-0.696585;0;-0.679298;-0.268916;1.11334;-0.356032;-1.44589;-1.45293;-41.3328;19.1399;-41.3328;640.322;224;1024;1024;1024;204;1024;1024;1024;0;0;0;0;-1.3586;-0.349591;1.37832; 
1065;1069;2019/10/02 16:15:49;0;-1;-1;-1;-1;-1;1;0;0;0;0;0;0;0;0;0;0;0;0;0;0;65.2;433.2;18.3554; -nan; -nan;0;112;1;0.973008;-1.07167;-0.676193;0.955399;-1.08088;-0.681513;0.612085;0.204348;0.228187;-0.749771;1.16477;-0.551007;0;-0.679298;-0.268916;1.11334;-0.356032;-1.44589;-1.45293;-41.3328;19.1399;-41.3328;640.322;224;1024;1024;1024;204;1024;1024;1024;0;0;0;0;-1.3586;-0.349591;1.37832; 
1066;1070;2019/10/02 16:15:49;0;-1;-1;-1;-1;-1;1;0;0;0;0;0;0;0;0;0;0;0;0;0;0;62;434;18.4619; -nan; -nan;0;113;1;0.97604;-1.06729;-0.6711;0.961591;-1.0768;-0.678389;0.556829;0.226618;0.220852;-1.28363;1.31081;-0.453878;0;-0.679298;-0.268916;1.11334;-0.356032;-1.44589;-1.45293;-41.3328;19.1399;-41.3328;640.322;224;1024;1024;1024;204;1024;1024;1024;0;0;0;0;-1.3586;-0.349591;1.37832; 
1067;1071;2019/10/02 16:15:49;0;-1;-1;-1;-1;-1;1;0;0;0;0;0;0;0;0;0;0;0;0;0;0;58.2667;434.267;18.4211; -nan; -nan;0;114;1;0.988317;-1.07026;-0.67219;0.969609;-1.07484;-0.676529;0.525827;0.222035;0.203251;-1.6714;1.26568;-0.446561;0;-0.679298;-0.268916;1.11334;-0.356032;-1.44589;-1.45293;-41.3328;19.1399;-41.3328;640.322;224;1024;1024;1024;204;1024;1024;1024;0;0;0;0;-1.3586;-0.349591;1.37832; 
1068;1072;2019/10/02 16:15:49;0;-1;-1;-1;-1;-1;1;0;0;0;0;0;0;0;0;0;0;0;0;0;0;55;435;18.3304; -nan; -nan;0;115;1;1.0021;-1.07722;-0.674419;0.979357;-1.07555;-0.675896;0.508723;0.199723;0.177145;-1.8649;1.02208;-0.547594;0;-0.679298;-0.268916;1.11334;-0.356032;-1.44589;-1.45293;-41.3328;19.1399;-41.3328;640.322;224;1024;1024;1024;204;1024;1024;1024;0;0;0;0;-1.3586;-0.349591;1.37832; 
1069;1073;2019/10/02 16:15:49;0;-1;-1;-1;-1;-1;1;0;0;0;0;0;0;0;0;0;0;0;0;0;0;51;435;18.4452; -nan; -nan;0;116;1;1.00668;-1.07051;-0.670219;0.987554;-1.07404;-0.674193;0.495806;0.177586;0.157966;-1.91972;0.68658;-0.666969;0;-0.679298;-0.268916;1.11334;-0.356032;-1.44589;-1.45293;-41.3328;19.1399;-41.3328;640.322;224;1024;1024;1024;204;1024;1024;1024;0;0;0;0;-1.3586;-0.349591;1.37832; 
1070;1074;2019/10/02 16:15:49;0;-1;-1;-1;-1;-1;1;0;0;0;0;0;0;0;0;0;0;0;0;0;0;48;436;18.4793; -nan; -nan;0;117;1;1.01293;-1.0708;-0.667498;0.995166;-1.07307;-0.672185;0.486289;0.153451;0.1411;-1.78836;0.245879;-0.807272;0;-0.679298;-0.268916;1.11334;-0.356032;-1.44589;-1.45293;-41.3328;19.1399;-41.3328;640.322;224;1024;1024;1024;204;1024;1024;1024;0;0;0;0;-1.3586;-0.349591;1.37832; 
1071;1075;2019/10/02 16:15:49;0;-1;-1;-1;-1;-1;1;0;0;0;0;0;0;0;0;0;0;0;0;0;0;43.3333;436.933;18.4986; -nan; -nan;0;118;1;1.02446;-1.07178;-0.665416;1.00395;-1.07268;-0.670154;0.485529;0.124769;0.129987;-1.57804;-0.170032;-0.876231;0;-0.679298;-0.268916;1.11334;-0.356032;-1.44589;-1.45293;-41.3328;19.1399;-41.3328;640.322;224;1024;1024;1024;204;1024;1024;1024;0;0;0;0;-1.3586;-0.349591;1.37832; 
1072;1076;2019/10/02 16:15:49;0;-1;-1;-1;-1;-1;1;0;0;0;0;0;0;0;0;0;0;0;0;0;0;39.6364;437.636;18.4885; -nan; -nan;0;119;1;1.035;-1.07395;-0.664736;1.01327;-1.07306;-0.668529;0.497526;0.0897755;0.11734;-1.18347;-0.648093;-0.938805;0;-0.679298;-0.268916;1.11334;-0.356032;-1.44589;-1.45293;-41.3328;19.1399;-41.3328;640.322;224;1024;1024;1024;204;1024;1024;1024;0;0;0;0;-1.3586;-0.349591;1.37832; 
1073;1077;2019/10/02 16:15:49;0;-1;-1;-1;-1;-1;1;0;0;0;0;0;0;0;0;0;0;0;0;0;0;34.6667;439.067;18.1774; -nan; -nan;0;120;1;1.06635;-1.09561;-0.673955;1.02919;-1.07983;-0.670156;0.536285;0.0339513;0.0958354;-0.668348;-1.13941;-0.991926;0;-0.679298;-0.268916;1.11334;-0.356032;-1.44589;-1.45293;-41.3328;19.1399;-41.3328;640.322;224;1024;1024;1024;204;1024;1024;1024;0;0;0;0;-1.3586;-0.349591;1.37832; 
1074;1078;2019/10/02 16:15:49;0;-1;-1;-1;-1;-1;1;0;0;0;0;0;0;0;0;0;0;0;0;0;0;30.4;440;19; -nan; -nan;0;121;1;1.03139;-1.05022;-0.643426;1.02985;-1.07095;-0.662137;0.523274;0.0387545;0.112407;-0.342942;-1.32599;-0.853492;0;-0.679298;-0.268916;1.11334;-0.356032;-1.44589;-1.45293;-41.3328;19.1399;-41.3328;640.322;224;1024;1024;1024;204;1024;1024;1024;0;0;0;0;-1.3586;-0.349591;1.37832; 
1075;1079;2019/10/02 16:15:49;0;-1;-1;-1;-1;-1;1;0;0;0;0;0;0;0;0;0;0;0;0;0;0;23.625;442.75;0; -nan; -nan;1;0;1;1.03139;-1.05022;-0.643426;1.02985;-1.07095;-0.662137;0.523274;0.0387545;0.112407;-0.342942;-1.32599;-0.853492;0;-0.679298;-0.268916;1.11334;-0.356032;-1.44589;-1.45293;-41.3328;19.1399;-41.3328;640.322;224;1024;1024;1024;204;1024;1024;1024;0;0;0;0;-1.3586;-0.349591;1.37832; 
1076;1080;2019/10/02 16:15:49;0;-1;-1;-1;-1;-1;1;0;0;0;0;0;0;0;0;0;0;0;0;0;0;19;443.429;3.33776; -nan; -nan;2;0;1;1.03139;-1.05022;-0.643426;1.02985;-1.07095;-0.662137;0.523274;0.0387545;0.112407;-0.342942;-1.32599;-0.853492;0;-0.679298;-0.268916;1.11334;-0.356032;-1.44589;-1.45293;-41.3328;19.1399;-41.3328;640.322;224;1024;1024;1024;204;1024;1024;1024;0;0;0;0;-1.3586;-0.349591;1.37832; 
1077;1081;2019/10/02 16:15:49;0;-1;-1;-1;-1;-1;1;0;0;0;0;0;0;0;0;0;0;0;0;0;0;13;447;1.50051; -nan; -nan;3;0;1;1.03139;-1.05022;-0.643426;1.02985;-1.07095;-0.662137;0.523274;0.0387545;0.112407;-0.342942;-1.32599;-0.853492;0;-0.679298;-0.268916;1.11334;-0.356032;-1.44589;-1.45293;-41.3328;19.1399;-41.3328;640.322;224;1024;1024;1024;204;1024;1024;1024;0;0;0;0;-1.3586;-0.349591;1.37832; 
1078;1082;2019/10/02 16:15:49;0;-1;-1;-1;-1;-1;1;0;0;0;0;0;0;0;0;0;0;0;0;0;0;7.76471;447.176;0; -nan; -nan;4;0;1;1.03139;-1.05022;-0.643426;1.02985;-1.07095;-0.662137;0.523274;0.0387545;0.112407;-0.342942;-1.32599;-0.853492;0;-0.679298;-0.268916;1.11334;-0.356032;-1.44589;-1.45293;-41.3328;19.1399;-41.3328;640.322;224;1024;1024;1024;204;1024;1024;1024;0;0;0;0;-1.3586;-0.349591;1.37832; 
1079;1083;2019/10/02 16:15:49;0;-1;-1;-1;-1;-1;1;0;0;0;0;0;0;0;0;0;0;0;0;0;0;2.4;450;0; -nan; -nan;5;0;1;1.03139;-1.05022;-0.643426;1.02985;-1.07095;-0.662137;0.523274;0.0387545;0.112407;-0.342942;-1.32599;-0.853492;0;-0.679298;-0.268916;1.11334;-0.356032;-1.44589;-1.45293;-41.3328;19.1399;-41.3328;640.322;224;1024;1024;1024;204;1024;1024;1024;0;0;0;0;-1.3586;-0.349591;1.37832; 
1080;1084;2019/10/02 16:15:49;0;-1;-1;-1;-1;-1;1;0;0;0;0;0;0;0;0;0;0;0;0;0;0;2.4;450;0; -nan; -nan;6;0;1;1.03139;-1.05022;-0.643426;1.02985;-1.07095;-0.662137;0.523274;0.0387545;0.112407;-0.342942;-1.32599;-0.853492;0;-0.679298;-0.268916;1.11334;-0.356032;-1.44589;-1.45293;-41.3328;19.1399;-41.3328;640.322;224;1024;1024;1024;204;1024;1024;1024;0;0;0;0;-1.3586;-0.349591;1.37832; 
1081;1085;2019/10/02 16:15:49;0;-1;-1;-1;-1;-1;1;0;0;0;0;0;0;0;0;0;0;0;0;0;0;2.4;450;0; -nan; -nan;7;0;1;1.03139;-1.05022;-0.643426;1.02985;-1.07095;-0.662137;0.523274;0.0387545;0.112407;-0.342942;-1.32599;-0.853492;0;-0.679298;-0.268916;1.11334;-0.356032;-1.44589;-1.45293;-41.3328;19.1399;-41.3328;640.322;224;1024;1024;1024;204;1024;1024;1024;0;0;0;0;-1.3586;-0.349591;1.37832; 
1082;1086;2019/10/02 16:15:49;0;-1;-1;-1;-1;-1;1;0;0;0;0;0;0;0;0;0;0;0;0;0;0;2.4;450;0; -nan; -nan;8;0;1;1.03139;-1.05022;-0.643426;1.02985;-1.07095;-0.662137;0.523274;0.0387545;0.112407;-0.342942;-1.32599;-0.853492;0;-0.679298;-0.268916;1.11334;-0.356032;-1.44589;-1.45293;-41.3328;19.1399;-41.3328;640.322;224;1024;1024;1024;204;1024;1024;1024;0;0;0;0;-1.3586;-0.349591;1.37832; 
1083;1087;2019/10/02 16:15:49;0;-1;-1;-1;-1;-1;1;0;0;0;0;0;0;0;0;0;0;0;0;0;0;2.4;450;0; -nan; -nan;9;0;1;1.03139;-1.05022;-0.643426;1.02985;-1.07095;-0.662137;0.523274;0.0387545;0.112407;-0.342942;-1.32599;-0.853492;0;-0.679298;-0.268916;1.11334;-0.356032;-1.44589;-1.45293;-41.3328;19.1399;-41.3328;640.322;224;1024;1024;1024;204;1024;1024;1024;0;0;0;0;-1.3586;-0.349591;1.37832; 
1084;1088;2019/10/02 16:15:49;0;-1;-1;-1;-1;-1;1;0;0;0;0;0;0;0;0;0;0;0;0;0;0;2.4;450;0;-1;-1;10;0;0;0;0;0;0;0;0;0;0;0;0;0;0;0;-0.679298;-0.268916;1.11334;-0.356032;-1.44589;-1.45293;-41.3328;19.1399;-41.3328;640.322;224;1024;1024;1024;204;1024;1024;1024;0;0;0;0;-1.3586;-0.349591;1.37832; 
