ID;RS_ID;time;insect_log;imLx_drone; imLy_drone; disparity_drone; imLx_pred_drone; imLy_pred_drone; n_frames_lost_drone; n_frames_tracking_drone; foundL_drone; posX_drone; posY_drone; posZ_drone; sposX_drone; sposY_drone; sposZ_drone; svelX_drone; svelY_drone; svelZ_drone; saccX_drone; saccY_drone; saccZ_drone; imLx_insect; imLy_insect; disparity_insect; imLx_pred_insect; imLy_pred_insect; n_frames_lost_insect; n_frames_tracking_insect; foundL_insect; posX_insect; posY_insect; posZ_insect; sposX_insect; sposY_insect; sposZ_insect; svelX_insect; svelY_insect; svelZ_insect; saccX_insect; saccY_insect; saccZ_insect; valid; posErrX; posErrY; posErrZ; velX; velY; velZ; accX; accY; accZ; hoverthrottle; autoThrottle; autoRoll; autoPitch; autoYaw; joyThrottle; joyRoll; joyPitch; joyYaw; joyArmSwitch; joyModeSwitch; joyTakeoffSwitch; dt; velx_sp; vely_sp; velz_sp;;; posX_insect; posY_insect; posZ_insect; sposX_insect; sposY_insect; sposZ_insect
3250;3253;2019/10/09 14:40:23;0;-1;-1;-1;-1;-1;100;0;0;0;0;0;0;0;0;0;0;0;0;0;0;196;54;6.47618;196;54;0;1;1;0.74995;-0.100942;-3.47339;0.74995;-0.100942;-3.47339;0;0;0;0;0;0;0;0;0;0;0;0;0;0;0;0;675;224;1024;1024;1024;224;1024;1024;1024;1;4;0;0;0;0;0; ;;0.74995;-0.100942;-3.47339;0.74995;-0.100942;-3.47339
3251;3254;2019/10/09 14:40:23;0;-1;-1;-1;-1;-1;100;0;0;0;0;0;0;0;0;0;0;0;0;0;0;196;55;6.30187;196;54.0909;0;2;1;0.79836;-0.124172;-3.56649;0.76447;-0.107911;-3.50132;0;0;0;0;0;0;0;0;0;0;0;0;0;0;0;0;675;224;1024;1024;1024;224;1024;1024;1024;1;4;0;0;0;0;0; ;;0.79836;-0.124172;-3.56649;0.76447;-0.107911;-3.50132
3252;3255;2019/10/09 14:40:23;0;-1;-1;-1;-1;-1;100;0;0;0;0;0;0;0;0;0;0;0;0;0;0;196;55;6.30187;196;54.0909;0;3;1;0.79836;-0.124172;-3.56649;0.76447;-0.107911;-3.50132;0;0;0;0;0;0;0;0;0;0;0;0;0;0;0;0;675;224;1024;1024;1024;224;1024;1024;1024;1;4;0;0;0;0;0; ;;0.79836;-0.124172;-3.56649;0.76447;-0.107911;-3.50132
3253;3256;2019/10/09 14:40:23;0;-1;-1;-1;-1;-1;100;0;0;0;0;0;0;0;0;0;0;0;0;0;0;196;55;6.30187;196;54.0909;0;4;1;0.79836;-0.124172;-3.56649;0.76447;-0.107911;-3.50132;0;0;0;0;0;0;0;0;0;0;0;0;0;0;0;0;675;224;1024;1024;1024;224;1024;1024;1024;1;4;0;0;0;0;0; ;;0.79836;-0.124172;-3.56649;0.76447;-0.107911;-3.50132
3254;3257;2019/10/09 14:40:23;0;-1;-1;-1;-1;-1;100;0;0;0;0;0;0;0;0;0;0;0;0;0;0;196;57;6.74095;196;54.9178;0;5;1;0.68122;-0.095872;-3.32277;0.7395;-0.104299;-3.44776;0;0;0;0;0;0;0;0;0;0;0;0;0;0;0;0;675;224;1024;1024;1024;224;1024;1024;1024;1;4;0;0;0;0;0; ;;0.68122;-0.095872;-3.32277;0.7395;-0.104299;-3.44776
3255;3258;2019/10/09 14:40:23;0;-1;-1;-1;-1;-1;100;0;0;0;0;0;0;0;0;0;0;0;0;0;0;196;57;6.74095;196;54.9213;0;6;1;0.68122;-0.095872;-3.32277;0.7395;-0.104299;-3.44776;0;0;0;0;0;0;0;0;0;0;0;0;0;0;0;0;675;224;1024;1024;1024;224;1024;1024;1024;1;4;0;0;0;0;0; ;;0.68122;-0.095872;-3.32277;0.7395;-0.104299;-3.44776
3256;3259;2019/10/09 14:40:23;0;-1;-1;-1;-1;-1;100;0;0;0;0;0;0;0;0;0;0;0;0;0;0;196;58;6.5145;196;55.9485;0;7;1;0.73966;-0.122976;-3.43579;0.73955;-0.109902;-3.44417;0;0;0;0;0;0;0;0;0;0;0;0;0;0;0;0;675;224;1024;1024;1024;224;1024;1024;1024;1;4;0;0;0;0;0; ;;0.73966;-0.122976;-3.43579;0.73955;-0.109902;-3.44417
3257;3260;2019/10/09 14:40:23;0;-1;-1;-1;-1;-1;100;0;0;0;0;0;0;0;0;0;0;0;0;0;0;196;59;6.33313;196;56.8959;0;8;1;0.78948;-0.147394;-3.53128;0.75453;-0.12115;-3.4703;0;0;0;0;0;0;0;0;0;0;0;0;0;0;0;0;675;224;1024;1024;1024;224;1024;1024;1024;1;4;0;0;0;0;0; ;;0.78948;-0.147394;-3.53128;0.75453;-0.12115;-3.4703
3258;3261;2019/10/09 14:40:23;0;-1;-1;-1;-1;-1;100;0;0;0;0;0;0;0;0;0;0;0;0;0;0;196;60;6.41245;196;57.8316;0;9;1;0.76734;-0.145879;-3.48269;0.75837;-0.128568;-3.47402;0;0;0;0;0;0;0;0;0;0;0;0;0;0;0;0;675;224;1024;1024;1024;224;1024;1024;1024;1;4;0;0;0;0;0; ;;0.76734;-0.145879;-3.48269;0.75837;-0.128568;-3.47402
3259;3262;2019/10/09 14:40:23;0;-1;-1;-1;-1;-1;100;0;0;0;0;0;0;0;0;0;0;0;0;0;0;196;60;6.40875;196;58.491;0;10;1;0.76837;-0.146252;-3.48473;0.76137;-0.133874;-3.47723;0.0759772;-0.219146;-0.0255217;0.291189;-1.3847;0.261857;0;0;0;0;0;0;0;0;0;0;675;224;1024;1024;1024;224;1024;1024;1024;1;4;0;0;0;0;0; ;;0.76837;-0.146252;-3.48473;0.76137;-0.133874;-3.47723
3260;3263;2019/10/09 14:40:23;0;-1;-1;-1;-1;-1;100;0;0;0;0;0;0;0;0;0;0;0;0;0;0;197;61;6.41724;196.289;59.2541;0;11;1;0.75825;-0.151887;-3.47577;0.76043;-0.139277;-3.47679;0.0348341;-0.21498;0.0499838;-2.04754;-0.292035;4.74253;0;0;0;0;0;0;0;0;0;0;675;224;1024;1024;1024;224;1024;1024;1024;1;4;0;0;0;0;0; ;;0.75825;-0.151887;-3.47577;0.76043;-0.139277;-3.47679
3261;3264;2019/10/09 14:40:23;0;-1;-1;-1;-1;-1;100;0;0;0;0;0;0;0;0;0;0;0;0;0;0;197;61;6.27925;196.499;59.8091;0;12;1;0.79689;-0.166212;-3.55325;0.77137;-0.147358;-3.49973;0.129983;-0.276351;-0.147876;0.922748;-1.36776;-1.32026;0;0;0;0;0;0;0;0;0;0;675;224;1024;1024;1024;224;1024;1024;1024;1;4;0;0;0;0;0; ;;0.79689;-0.166212;-3.55325;0.77137;-0.147358;-3.49973
3262;3265;2019/10/09 14:40:23;0;-1;-1;-1;-1;-1;100;0;0;0;0;0;0;0;0;0;0;0;0;0;0;197;62;6.48458;196.652;60.5042;0;13;1;0.73999;-0.151538;-3.43491;0.76196;-0.148612;-3.48028;0.167525;-0.320461;-0.233024;1.21715;-1.43061;-2.15273;0;0;0;0;0;0;0;0;0;0;675;224;1024;1024;1024;224;1024;1024;1024;1;4;0;0;0;0;0; ;;0.73999;-0.151538;-3.43491;0.76196;-0.148612;-3.48028
3263;3266;2019/10/09 14:40:23;0;-1;-1;-1;-1;-1;100;0;0;0;0;0;0;0;0;0;0;0;0;0;0;196.571;62;6.79253;196.64;61.0131;0;14;1;0.66425;-0.122;-3.27692;0.73265;-0.140628;-3.41928;0.0130998;-0.270097;0.0640359;-2.80198;0.753836;5.21742;0;0;0;0;0;0;0;0;0;0;675;224;1024;1024;1024;224;1024;1024;1024;1;4;0;0;0;0;0; ;;0.66425;-0.122;-3.27692;0.73265;-0.140628;-3.41928
3264;3267;2019/10/09 14:40:23;0;-1;-1;-1;-1;-1;100;0;0;0;0;0;0;0;0;0;0;0;0;0;0;197;63;6.50536;196.756;61.6786;0;15;1;0.73443;-0.155859;-3.41956;0.73318;-0.145198;-3.41936;-0.0927757;-0.228494;0.256781;-2.97186;1.31445;5.04543;0;0;0;0;0;0;0;0;0;0;675;224;1024;1024;1024;224;1024;1024;1024;1;4;0;0;0;0;0; ;;0.73443;-0.155859;-3.41956;0.73318;-0.145198;-3.41936
3265;3268;2019/10/09 14:40:23;0;-1;-1;-1;-1;-1;100;0;0;0;0;0;0;0;0;0;0;0;0;0;0;198;64;6.51423;197.137;62.4605;0;16;1;0.72441;-0.161359;-3.41061;0.73055;-0.150046;-3.41674;-0.17879;-0.201707;0.395752;-2.80095;0.858343;4.71032;0;0;0;0;0;0;0;0;0;0;675;224;1024;1024;1024;224;1024;1024;1024;1;4;0;0;0;0;0; ;;0.72441;-0.161359;-3.41061;0.73055;-0.150046;-3.41674
3266;3269;2019/10/09 14:40:23;0;-1;-1;-1;-1;-1;100;0;0;0;0;0;0;0;0;0;0;0;0;0;0;198;64;6.51423;197.16;62.5744;0;17;1;0.72441;-0.161359;-3.41061;0.73055;-0.150046;-3.41674;-0.17879;-0.201707;0.395752;-2.80095;0.858343;4.71032;0;0;0;0;0;0;0;0;0;0;675;224;1024;1024;1024;224;1024;1024;1024;1;4;0;0;0;0;0; ;;0.72441;-0.161359;-3.41061;0.73055;-0.150046;-3.41674
3267;3270;2019/10/09 14:40:23;0;-1;-1;-1;-1;-1;100;0;0;0;0;0;0;0;0;0;0;0;0;0;0;198;66;6.51379;197.483;63.9144;0;18;1;0.72453;-0.174189;-3.4024;0.72874;-0.157289;-3.41244;-0.215785;-0.182698;0.457815;-2.53873;0.625544;4.22266;0;0;0;0;0;0;0;0;0;0;675;224;1024;1024;1024;224;1024;1024;1024;1;4;0;0;0;0;0; ;;0.72453;-0.174189;-3.4024;0.72874;-0.157289;-3.41244
3268;3271;2019/10/09 14:40:23;0;-1;-1;-1;-1;-1;100;0;0;0;0;0;0;0;0;0;0;0;0;0;0;198;66;6.52385;197.685;64.7519;0;19;1;0.72187;-0.173149;-3.39708;0.72668;-0.162047;-3.40783;-0.282491;-0.159916;0.589364;-2.9356;0.774012;5.05799;0;0;0;0;0;0;0;0;0;0;675;224;1024;1024;1024;224;1024;1024;1024;1;4;0;0;0;0;0; ;;0.72187;-0.173149;-3.39708;0.72668;-0.162047;-3.40783
3269;3272;2019/10/09 14:40:23;0;-1;-1;-1;-1;-1;100;0;0;0;0;0;0;0;0;0;0;0;0;0;0;197.333;66.6667;6.5942;197.61;65.5282;0;20;1;0.70854;-0.170178;-3.35753;0.72124;-0.164486;-3.39274;-0.308843;-0.150278;0.653235;-3.39168;1.04684;6.06793;0;0;0;0;0;0;0;0;0;0;675;224;1024;1024;1024;224;1024;1024;1024;1;4;0;0;0;0;0; ;;0.70854;-0.170178;-3.35753;0.72124;-0.164486;-3.39274
3270;3273;2019/10/09 14:40:23;0;-1;-1;-1;-1;-1;100;0;0;0;0;0;0;0;0;0;0;0;0;0;0;198;68;6.65041;197.764;66.485;0;21;1;0.6891;-0.172863;-3.32321;0.7116;-0.166999;-3.37188;-0.257338;-0.180418;0.55414;-2.96055;0.935018;5.31808;0;0;0;0;0;0;0;0;0;0;675;224;1024;1024;1024;224;1024;1024;1024;1;4;0;0;0;0;0; ;;0.6891;-0.172863;-3.32321;0.7116;-0.166999;-3.37188
3271;3274;2019/10/09 14:40:23;0;-1;-1;-1;-1;-1;100;0;0;0;0;0;0;0;0;0;0;0;0;0;0;198;68;6.81669;197.873;67.1646;0;22;1;0.6479;-0.156449;-3.24093;0.69249;-0.163834;-3.3326;-0.293674;-0.172034;0.629427;-2.46388;0.75424;4.46619;0;0;0;0;0;0;0;0;0;0;675;224;1024;1024;1024;224;1024;1024;1024;1;4;0;0;0;0;0; ;;0.6479;-0.156449;-3.24093;0.69249;-0.163834;-3.3326
3272;3275;2019/10/09 14:40:23;0;-1;-1;-1;-1;-1;100;0;0;0;0;0;0;0;0;0;0;0;0;0;0;199;69;6.65013;198.26;67.9573;0;23;1;0.68167;-0.179153;-3.31922;0.68924;-0.16843;-3.32858;-0.317579;-0.166137;0.679346;-1.95332;0.574279;3.65028;0;0;0;0;0;0;0;0;0;0;675;224;1024;1024;1024;224;1024;1024;1024;1;4;0;0;0;0;0; ;;0.68167;-0.179153;-3.31922;0.68924;-0.16843;-3.32858
3273;3276;2019/10/09 14:40:24;0;-1;-1;-1;-1;-1;100;0;0;0;0;0;0;0;0;0;0;0;0;0;0;199;70;6.66447;198.539;68.8334;0;24;1;0.67805;-0.18394;-3.30785;0.68588;-0.173083;-3.32236;-0.361677;-0.162745;0.767255;-1.75451;0.424237;3.4257;0;0;0;0;0;0;0;0;0;0;675;224;1024;1024;1024;224;1024;1024;1024;1;4;0;0;0;0;0; ;;0.67805;-0.18394;-3.30785;0.68588;-0.173083;-3.32236
3274;3277;2019/10/09 14:40:24;0;-1;-1;-1;-1;-1;100;0;0;0;0;0;0;0;0;0;0;0;0;0;0;199;71;6.93043;198.74;69.771;0;25;1;0.61365;-0.163702;-3.17502;0.66422;-0.170269;-3.27816;-0.466421;-0.130474;0.9781;-1.7871;0.372097;3.60757;0;0;0;0;0;0;0;0;0;0;675;224;1024;1024;1024;224;1024;1024;1024;1;4;0;0;0;0;0; ;;0.61365;-0.163702;-3.17502;0.66422;-0.170269;-3.27816
3275;3278;2019/10/09 14:40:24;0;-1;-1;-1;-1;-1;100;0;0;0;0;0;0;0;0;0;0;0;0;0;0;199;71;6.93043;198.804;70.0634;0;26;1;0.61365;-0.163702;-3.17502;0.66422;-0.170269;-3.27816;-0.466421;-0.130474;0.9781;-1.7871;0.372097;3.60757;0;0;0;0;0;0;0;0;0;0;675;224;1024;1024;1024;224;1024;1024;1024;1;4;0;0;0;0;0; ;;0.61365;-0.163702;-3.17502;0.66422;-0.170269;-3.27816
3276;3279;2019/10/09 14:40:24;0;-1;-1;-1;-1;-1;100;0;0;0;0;0;0;0;0;0;0;0;0;0;0;201;73;6.59691;199.689;71.4538;0;27;1;0.68011;-0.209882;-3.32973;0.66898;-0.182153;-3.29363;-0.458697;-0.138745;0.926042;-1.58512;0.262728;3.09819;0;0;0;0;0;0;0;0;0;0;675;224;1024;1024;1024;224;1024;1024;1024;1;4;0;0;0;0;0; ;;0.68011;-0.209882;-3.32973;0.66898;-0.182153;-3.29363
3277;3280;2019/10/09 14:40:24;0;-1;-1;-1;-1;-1;100;0;0;0;0;0;0;0;0;0;0;0;0;0;0;201;73;7.10002;200.233;72.317;0;28;1;0.56105;-0.15958;-3.09024;0.6366;-0.175381;-3.23262;-0.531879;-0.111932;1.03225;-1.89066;0.392025;3.49521;0;0;0;0;0;0;0;0;0;0;675;224;1024;1024;1024;224;1024;1024;1024;1;4;0;0;0;0;0; ;;0.56105;-0.15958;-3.09024;0.6366;-0.175381;-3.23262
3278;3281;2019/10/09 14:40:24;0;-1;-1;-1;-1;-1;100;0;0;0;0;0;0;0;0;0;0;0;0;0;0;202;74;6.85334;200.924;73.2219;0;29;1;0.60996;-0.189397;-3.19926;0.62861;-0.179585;-3.22261;-0.537738;-0.121066;0.995767;-1.96967;0.409646;3.35088;0;0;0;0;0;0;0;0;0;0;675;224;1024;1024;1024;224;1024;1024;1024;1;4;0;0;0;0;0; ;;0.60996;-0.189397;-3.19926;0.62861;-0.179585;-3.22261
3279;3282;2019/10/09 14:40:24;0;-1;-1;-1;-1;-1;100;0;0;0;0;0;0;0;0;0;0;0;0;0;0;202.667;75.3333;7.00804;201.616;74.2729;0;30;1;0.56968;-0.182101;-3.12231;0.61093;-0.18034;-3.19252;-0.590657;-0.113402;1.06313;-2.11639;0.426269;3.324;0;0;0;0;0;0;0;0;0;0;675;224;1024;1024;1024;224;1024;1024;1024;1;4;0;0;0;0;0; ;;0.56968;-0.182101;-3.12231;0.61093;-0.18034;-3.19252
3280;3283;2019/10/09 14:40:24;0;-1;-1;-1;-1;-1;100;0;0;0;0;0;0;0;0;0;0;0;0;0;0;202.667;75.3333;7.00804;201.77;74.6727;0;31;1;0.56968;-0.182101;-3.12231;0.61093;-0.18034;-3.19252;-0.590657;-0.113402;1.06313;-2.11639;0.426269;3.324;0;0;0;0;0;0;0;0;0;0;675;224;1024;1024;1024;224;1024;1024;1024;1;4;0;0;0;0;0; ;;0.56968;-0.182101;-3.12231;0.61093;-0.18034;-3.19252
3281;3284;2019/10/09 14:40:24;0;-1;-1;-1;-1;-1;100;0;0;0;0;0;0;0;0;0;0;0;0;0;0;203.333;76.6667;6.73948;202.522;75.8344;0;32;1;0.62729;-0.217521;-3.24328;0.61584;-0.191494;-3.20775;-0.564154;-0.123176;0.981109;-1.87617;0.374253;2.6348;0;0;0;0;0;0;0;0;0;0;675;224;1024;1024;1024;224;1024;1024;1024;1;4;0;0;0;0;0; ;;0.62729;-0.217521;-3.24328;0.61584;-0.191494;-3.20775
3282;3285;2019/10/09 14:40:24;0;-1;-1;-1;-1;-1;100;0;0;0;0;0;0;0;0;0;0;0;0;0;0;204;78;6.72075;203.215;77.0183;0;33;1;0.62687;-0.227782;-3.247;0.61915;-0.202381;-3.21952;-0.473448;-0.170068;0.764259;-1.14674;0.105985;0.940519;0;0;0;0;0;0;0;0;0;0;675;224;1024;1024;1024;224;1024;1024;1024;1;4;0;0;0;0;0; ;;0.62687;-0.227782;-3.247;0.61915;-0.202381;-3.21952
3283;3286;2019/10/09 14:40:24;0;-1;-1;-1;-1;-1;100;0;0;0;0;0;0;0;0;0;0;0;0;0;0;204;78;6.62;203.674;77.8035;0;34;1;0.65163;-0.238858;-3.29718;0.62889;-0.213324;-3.24282;-0.421268;-0.208722;0.632455;-0.559951;-0.175897;-0.440462;0;0;0;0;0;0;0;0;0;0;675;224;1024;1024;1024;224;1024;1024;1024;1;4;0;0;0;0;0; ;;0.65163;-0.238858;-3.29718;0.62889;-0.213324;-3.24282
3284;3287;2019/10/09 14:40:24;0;-1;-1;-1;-1;-1;100;0;0;0;0;0;0;0;0;0;0;0;0;0;0;205;79;6.50717;204.312;78.6633;0;35;1;0.6726;-0.258069;-3.35099;0.64201;-0.226747;-3.27527;-0.234271;-0.301029;0.233489;0.682555;-0.752701;-2.99794;0;0;0;0;0;0;0;0;0;0;675;224;1024;1024;1024;224;1024;1024;1024;1;4;0;0;0;0;0; ;;0.6726;-0.258069;-3.35099;0.64201;-0.226747;-3.27527
3285;3288;2019/10/09 14:40:24;0;-1;-1;-1;-1;-1;100;0;0;0;0;0;0;0;0;0;0;0;0;0;0;206;80;6.67266;205.078;79.5789;0;36;1;0.62364;-0.245508;-3.26252;0.6365;-0.232376;-3.27145;-0.113574;-0.361287;-0.027047;1.86119;-1.27376;-5.29925;0;0;0;0;0;0;0;0;0;0;675;224;1024;1024;1024;224;1024;1024;1024;1;4;0;0;0;0;0; ;;0.62364;-0.245508;-3.26252;0.6365;-0.232376;-3.27145
3286;3289;2019/10/09 14:40:24;0;-1;-1;-1;-1;-1;100;0;0;0;0;0;0;0;0;0;0;0;0;0;0;206;80;6.67266;205.326;80.0843;0;37;1;0.62364;-0.245508;-3.26252;0.6365;-0.232376;-3.27145;-0.113574;-0.361287;-0.027047;1.86119;-1.27376;-5.29925;0;0;0;0;0;0;0;0;0;0;675;224;1024;1024;1024;224;1024;1024;1024;1;4;0;0;0;0;0; ;;0.62364;-0.245508;-3.26252;0.6365;-0.232376;-3.27145
3287;3290;2019/10/09 14:40:24;0;-1;-1;-1;-1;-1;100;0;0;0;0;0;0;0;0;0;0;0;0;0;0;207.333;81.3333;6.56113;206.344;81.069;0;38;1;0.6411;-0.266644;-3.31324;0.63788;-0.242656;-3.28399;0.012554;-0.403383;-0.290136;2.92308;-1.63263;-7.23203;0;0;0;0;0;0;0;0;0;0;675;224;1024;1024;1024;224;1024;1024;1024;1;4;0;0;0;0;0; ;;0.6411;-0.266644;-3.31324;0.63788;-0.242656;-3.28399
3288;3291;2019/10/09 14:40:24;0;-1;-1;-1;-1;-1;100;0;0;0;0;0;0;0;0;0;0;0;0;0;0;208;82;6.87959;207.204;81.9201;0;39;1;0.5603;-0.235191;-3.15489;0.6146;-0.240417;-3.24526;0.00331146;-0.40946;-0.302462;3.69593;-1.95935;-8.73208;0;0;0;0;0;0;0;0;0;0;675;224;1024;1024;1024;224;1024;1024;1024;1;4;0;0;0;0;0; ;;0.5603;-0.235191;-3.15489;0.6146;-0.240417;-3.24526
3289;3292;2019/10/09 14:40:24;0;-1;-1;-1;-1;-1;100;0;0;0;0;0;0;0;0;0;0;0;0;0;0;209;83;6.5772;208.106;82.8189;0;40;1;0.62445;-0.275323;-3.29806;0.61756;-0.250889;-3.2611;-0.0034601;-0.411689;-0.323766;3.82605;-2.00253;-8.96291;0;0;0;0;0;0;0;0;0;0;675;224;1024;1024;1024;224;1024;1024;1024;1;4;0;0;0;0;0; ;;0.62445;-0.275323;-3.29806;0.61756;-0.250889;-3.2611
3290;3293;2019/10/09 14:40:24;0;-1;-1;-1;-1;-1;100;0;0;0;0;0;0;0;0;0;0;0;0;0;0;210;84;7.07092;209.051;83.7568;0;41;1;0.50396;-0.227076;-3.06039;0.58348;-0.243745;-3.20089;-0.157503;-0.351125;-0.0507521;3.19833;-1.68888;-7.71594;0;0;0;0;0;0;0;0;0;0;675;224;1024;1024;1024;224;1024;1024;1024;1;4;0;0;0;0;0; ;;0.50396;-0.227076;-3.06039;0.58348;-0.243745;-3.20089
3291;3294;2019/10/09 14:40:24;0;-1;-1;-1;-1;-1;100;0;0;0;0;0;0;0;0;0;0;0;0;0;0;211;85;7;210.031;84.7258;0;42;1;0.51207;-0.240392;-3.08798;0.56206;-0.242739;-3.16702;-0.36812;-0.265404;0.340042;1.46091;-0.891401;-4.2649;0;0;0;0;0;0;0;0;0;0;675;224;1024;1024;1024;224;1024;1024;1024;1;4;0;0;0;0;0; ;;0.51207;-0.240392;-3.08798;0.56206;-0.242739;-3.16702
3292;3295;2019/10/09 14:40:24;0;-1;-1;-1;-1;-1;100;0;0;0;0;0;0;0;0;0;0;0;0;0;0;212;86;6.52818;211.041;85.719;0;43;1;0.61371;-0.300282;-3.31057;0.57755;-0.260002;-3.21008;-0.422596;-0.253789;0.414039;-0.181042;-0.166942;-1.04938;0;0;0;0;0;0;0;0;0;0;675;224;1024;1024;1024;224;1024;1024;1024;1;4;0;0;0;0;0; ;;0.61371;-0.300282;-3.31057;0.57755;-0.260002;-3.21008
3293;3296;2019/10/09 14:40:24;0;-1;-1;-1;-1;-1;100;0;0;0;0;0;0;0;0;0;0;0;0;0;0;213;87;6.5613;212.071;86.7304;0;44;1;0.59796;-0.302589;-3.28941;0.58368;-0.272778;-3.23388;-0.469973;-0.272544;0.448481;-2.03526;0.422248;2.31952;0;0;0;0;0;0;0;0;0;0;675;224;1024;1024;1024;224;1024;1024;1024;1;4;0;0;0;0;0; ;;0.59796;-0.302589;-3.28941;0.58368;-0.272778;-3.23388
3294;3297;2019/10/09 14:40:24;0;-1;-1;-1;-1;-1;100;0;0;0;0;0;0;0;0;0;0;0;0;0;0;213;87;6.5613;212.505;87.351;0;45;1;0.59796;-0.302589;-3.28941;0.58368;-0.272778;-3.23388;-0.469973;-0.272544;0.448481;-2.03526;0.422248;2.31952;0;0;0;0;0;0;0;0;0;0;675;224;1024;1024;1024;224;1024;1024;1024;1;4;0;0;0;0;0; ;;0.59796;-0.302589;-3.28941;0.58368;-0.272778;-3.23388
3295;3298;2019/10/09 14:40:24;0;-1;-1;-1;-1;-1;100;0;0;0;0;0;0;0;0;0;0;0;0;0;0;213;87;6.5613;212.938;87.9716;0;46;1;0.59796;-0.302589;-3.28941;0.58368;-0.272778;-3.23388;-0.469973;-0.272544;0.448481;-2.03526;0.422248;2.31952;0;0;0;0;0;0;0;0;0;0;675;224;1024;1024;1024;224;1024;1024;1024;1;4;0;0;0;0;0; ;;0.59796;-0.302589;-3.28941;0.58368;-0.272778;-3.23388
3296;3299;2019/10/09 14:40:24;0;-1;-1;-1;-1;-1;100;0;0;0;0;0;0;0;0;0;0;0;0;0;0;216;88;6.6306;214.731;88.6049;0;47;1;0.55868;-0.300481;-3.25036;0.57618;-0.281089;-3.23883;-0.397051;-0.285322;0.288351;-2.42007;0.625088;3.16095;0;0;0;0;0;0;0;0;0;0;675;224;1024;1024;1024;224;1024;1024;1024;1;4;0;0;0;0;0; ;;0.55868;-0.300481;-3.25036;0.57618;-0.281089;-3.23883
3297;3300;2019/10/09 14:40:24;0;-1;-1;-1;-1;-1;100;0;0;0;0;0;0;0;0;0;0;0;0;0;0;217;89;6.54879;216.08;89.3755;0;48;1;0.57054;-0.316839;-3.28739;0.57449;-0.291814;-3.2534;-0.36721;-0.293748;0.196077;-2.54132;0.728238;3.45329;0;0;0;0;0;0;0;0;0;0;675;224;1024;1024;1024;224;1024;1024;1024;1;4;0;0;0;0;0; ;;0.57054;-0.316839;-3.28739;0.57449;-0.291814;-3.2534
3298;3301;2019/10/09 14:40:24;0;-1;-1;-1;-1;-1;100;0;0;0;0;0;0;0;0;0;0;0;0;0;0;217;89;7.04319;216.926;89.8723;0;49;1;0.46029;-0.259502;-3.05313;0.54023;-0.28212;-3.19332;-0.349844;-0.291168;0.140322;-2.10078;0.616489;2.64416;0;0;0;0;0;0;0;0;0;0;675;224;1024;1024;1024;224;1024;1024;1024;1;4;0;0;0;0;0; ;;0.46029;-0.259502;-3.05313;0.54023;-0.28212;-3.19332
3299;3302;2019/10/09 14:40:24;0;-1;-1;-1;-1;-1;100;0;0;0;0;0;0;0;0;0;0;0;0;0;0;218;90;6.69921;217.823;90.5367;0;50;1;0.52782;-0.304715;-3.20835;0.53651;-0.288899;-3.19783;-0.286419;-0.31293;-0.00807343;-1.01581;0.22757;0.544034;0;0;0;0;0;0;0;0;0;0;675;224;1024;1024;1024;224;1024;1024;1024;1;4;0;0;0;0;0; ;;0.52782;-0.304715;-3.20835;0.53651;-0.288899;-3.19783
3300;3303;2019/10/09 14:40:24;0;-1;-1;-1;-1;-1;100;0;0;0;0;0;0;0;0;0;0;0;0;0;0;219;90;6.87813;218.76;90.9856;0;51;1;0.48083;-0.283782;-3.1236;0.5198;-0.287364;-3.17556;-0.344794;-0.269696;0.0985388;-0.376498;0.0889076;-0.618371;0;0;0;0;0;0;0;0;0;0;675;224;1024;1024;1024;224;1024;1024;1024;1;4;0;0;0;0;0; ;;0.48083;-0.283782;-3.1236;0.5198;-0.287364;-3.17556
3301;3304;2019/10/09 14:40:24;0;-1;-1;-1;-1;-1;100;0;0;0;0;0;0;0;0;0;0;0;0;0;0;219;90;6.95606;219.408;91.2845;0;52;1;0.46424;-0.275002;-3.08804;0.50313;-0.283655;-3.1493;-0.448072;-0.19439;0.312397;-0.160316;0.287382;-0.778539;0;0;0;0;0;0;0;0;0;0;675;224;1024;1024;1024;224;1024;1024;1024;1;4;0;0;0;0;0; ;;0.46424;-0.275002;-3.08804;0.50313;-0.283655;-3.1493
3302;3305;2019/10/09 14:40:24;0;-1;-1;-1;-1;-1;100;0;0;0;0;0;0;0;0;0;0;0;0;0;0;219.333;90.6667;6.65835;219.958;91.6895;0;53;1;0.52721;-0.313823;-3.2256;0.51036;-0.292705;-3.17219;-0.531665;-0.163017;0.453491;-0.633677;0.660769;0.192247;0;0;0;0;0;0;0;0;0;0;675;224;1024;1024;1024;224;1024;1024;1024;1;4;0;0;0;0;0; ;;0.52721;-0.313823;-3.2256;0.51036;-0.292705;-3.17219
3303;3306;2019/10/09 14:40:24;0;-1;-1;-1;-1;-1;100;0;0;0;0;0;0;0;0;0;0;0;0;0;0;220;92;6.9323;220.544;92.3829;0;54;1;0.46206;-0.289671;-3.09086;0.49587;-0.291795;-3.14779;-0.632916;-0.0977355;0.693742;-1.44112;1.1791;2.10243;0;0;0;0;0;0;0;0;0;0;675;224;1024;1024;1024;224;1024;1024;1024;1;4;0;0;0;0;0; ;;0.46206;-0.289671;-3.09086;0.49587;-0.291795;-3.14779
3304;3307;2019/10/09 14:40:24;0;-1;-1;-1;-1;-1;100;0;0;0;0;0;0;0;0;0;0;0;0;0;0;220;92;6.90553;220.944;92.8593;0;55;1;0.46772;-0.292733;-3.10304;0.48742;-0.292076;-3.13437;-0.590591;-0.0983939;0.651611;-1.82592;1.47717;3.30293;0;0;0;0;0;0;0;0;0;0;675;224;1024;1024;1024;224;1024;1024;1024;1;4;0;0;0;0;0; ;;0.46772;-0.292733;-3.10304;0.48742;-0.292076;-3.13437
3305;3308;2019/10/09 14:40:24;0;-1;-1;-1;-1;-1;100;0;0;0;0;0;0;0;0;0;0;0;0;0;0;220;92;6.90553;221.51;93.4525;0;56;1;0.46772;-0.292733;-3.10304;0.48742;-0.292076;-3.13437;-0.590591;-0.0983939;0.651611;-1.82592;1.47717;3.30293;0;0;0;0;0;0;0;0;0;0;675;224;1024;1024;1024;224;1024;1024;1024;1;4;0;0;0;0;0; ;;0.46772;-0.292733;-3.10304;0.48742;-0.292076;-3.13437
3306;3309;2019/10/09 14:40:24;0;-1;-1;-1;-1;-1;100;0;0;0;0;0;0;0;0;0;0;0;0;0;0;222;92;6.89395;222.265;93.4858;0;57;1;0.45571;-0.294065;-3.10834;0.47791;-0.292673;-3.12656;-0.554894;-0.0719532;0.634873;-2.01438;1.71102;4.18217;0;0;0;0;0;0;0;0;0;0;675;224;1024;1024;1024;224;1024;1024;1024;1;4;0;0;0;0;0; ;;0.45571;-0.294065;-3.10834;0.47791;-0.292673;-3.12656
3307;3310;2019/10/09 14:40:24;0;-1;-1;-1;-1;-1;100;0;0;0;0;0;0;0;0;0;0;0;0;0;0;222;92;6.99023;222.745;93.532;0;58;1;0.43566;-0.283127;-3.06484;0.46524;-0.289809;-3.10804;-0.519686;-0.0515412;0.611991;-1.80718;1.77322;4.26654;0;0;0;0;0;0;0;0;0;0;675;224;1024;1024;1024;224;1024;1024;1024;1;4;0;0;0;0;0; ;;0.43566;-0.283127;-3.06484;0.46524;-0.289809;-3.10804
3308;3311;2019/10/09 14:40:24;0;-1;-1;-1;-1;-1;100;0;0;0;0;0;0;0;0;0;0;0;0;0;0;224;93;6.89631;223.736;93.9003;0;59;1;0.44074;-0.299831;-3.10327;0.45789;-0.292816;-3.10661;-0.466657;-0.0622753;0.513308;-1.14791;1.51608;3.24752;0;0;0;0;0;0;0;0;0;0;675;224;1024;1024;1024;224;1024;1024;1024;1;4;0;0;0;0;0; ;;0.44074;-0.299831;-3.10327;0.45789;-0.292816;-3.10661
3309;3312;2019/10/09 14:40:24;0;-1;-1;-1;-1;-1;100;0;0;0;0;0;0;0;0;0;0;0;0;0;0;225;94;6.79042;224.738;94.4721;0;60;1;0.45586;-0.318437;-3.14839;0.45728;-0.300502;-3.11915;-0.461638;-0.0640479;0.489533;-0.449087;1.24836;2.07186;0;0;0;0;0;0;0;0;0;0;675;224;1024;1024;1024;224;1024;1024;1024;1;4;0;0;0;0;0; ;;0.45586;-0.318437;-3.14839;0.45728;-0.300502;-3.11915
3310;3313;2019/10/09 14:40:24;0;-1;-1;-1;-1;-1;100;0;0;0;0;0;0;0;0;0;0;0;0;0;0;225;94;7.28934;225.428;94.8602;0;61;1;0.35622;-0.262419;-2.92948;0.42696;-0.289077;-3.06225;-0.512799;-0.0291258;0.586497;0.141632;0.983826;0.876086;0;0;0;0;0;0;0;0;0;0;675;224;1024;1024;1024;224;1024;1024;1024;1;4;0;0;0;0;0; ;;0.35622;-0.262419;-2.92948;0.42696;-0.289077;-3.06225
3311;3314;2019/10/09 14:40:24;0;-1;-1;-1;-1;-1;100;0;0;0;0;0;0;0;0;0;0;0;0;0;0;226;94;6.71462;226.221;95.1181;0;62;1;0.46487;-0.327676;-3.1845;0.43833;-0.300657;-3.09892;-0.475686;-0.0468406;0.473205;0.47823;0.766732;-0.0849257;0;0;0;0;0;0;0;0;0;0;675;224;1024;1024;1024;224;1024;1024;1024;1;4;0;0;0;0;0; ;;0.46487;-0.327676;-3.1845;0.43833;-0.300657;-3.09892
3312;3315;2019/10/09 14:40:24;0;-1;-1;-1;-1;-1;100;0;0;0;0;0;0;0;0;0;0;0;0;0;0;228;95;7;227.408;95.6024;0;63;1;0.39089;-0.299881;-3.04871;0.4241;-0.300424;-3.08386;-0.500267;-0.0590535;0.45442;0.505053;0.511545;-0.771469;0;0;0;0;0;0;0;0;0;0;675;224;1024;1024;1024;224;1024;1024;1024;1;4;0;0;0;0;0; ;;0.39089;-0.299881;-3.04871;0.4241;-0.300424;-3.08386
3313;3316;2019/10/09 14:40:24;0;-1;-1;-1;-1;-1;100;0;0;0;0;0;0;0;0;0;0;0;0;0;0;228;96;6.92114;228.239;96.2498;0;64;1;0.40674;-0.315012;-3.08004;0.41889;-0.304801;-3.08271;-0.485208;-0.0952895;0.373786;0.440695;0.132249;-1.41399;0;0;0;0;0;0;0;0;0;0;675;224;1024;1024;1024;224;1024;1024;1024;1;4;0;0;0;0;0; ;;0.40674;-0.315012;-3.08004;0.41889;-0.304801;-3.08271
3314;3317;2019/10/09 14:40:24;0;-1;-1;-1;-1;-1;100;0;0;0;0;0;0;0;0;0;0;0;0;0;0;229;97;7.09843;229.132;97.0152;0;65;1;0.36457;-0.300523;-2.99799;0.4026;-0.303517;-3.0573;-0.511898;-0.0999033;0.421169;0.0837792;-0.0708918;-1.21629;0;0;0;0;0;0;0;0;0;0;675;224;1024;1024;1024;224;1024;1024;1024;1;4;0;0;0;0;0; ;;0.36457;-0.300523;-2.99799;0.4026;-0.303517;-3.0573
3315;3318;2019/10/09 14:40:24;0;-1;-1;-1;-1;-1;100;0;0;0;0;0;0;0;0;0;0;0;0;0;0;229;97;7.09843;229.793;97.5515;0;66;1;0.36457;-0.300523;-2.99799;0.4026;-0.303517;-3.0573;-0.511898;-0.0999033;0.421169;0.0837792;-0.0708918;-1.21629;0;0;0;0;0;0;0;0;0;0;675;224;1024;1024;1024;224;1024;1024;1024;1;4;0;0;0;0;0; ;;0.36457;-0.300523;-2.99799;0.4026;-0.303517;-3.0573
3316;3319;2019/10/09 14:40:24;0;-1;-1;-1;-1;-1;100;0;0;0;0;0;0;0;0;0;0;0;0;0;0;232;98;7.14373;231.305;98.2609;0;67;1;0.33496;-0.301275;-2.97481;0.38231;-0.302845;-3.03255;-0.563732;-0.06796;0.549057;-0.299136;-0.0559239;-0.526061;0;0;0;0;0;0;0;0;0;0;675;224;1024;1024;1024;224;1024;1024;1024;1;4;0;0;0;0;0; ;;0.33496;-0.301275;-2.97481;0.38231;-0.302845;-3.03255
3317;3320;2019/10/09 14:40:24;0;-1;-1;-1;-1;-1;100;0;0;0;0;0;0;0;0;0;0;0;0;0;0;234;100;6.8003;232.952;99.4174;0;68;1;0.38771;-0.35399;-3.11949;0.38393;-0.318188;-3.05863;-0.485524;-0.140407;0.341797;-0.0861343;-0.414402;-1.1531;0;0;0;0;0;0;0;0;0;0;675;224;1024;1024;1024;224;1024;1024;1024;1;4;0;0;0;0;0; ;;0.38771;-0.35399;-3.11949;0.38393;-0.318188;-3.05863
3318;3321;2019/10/09 14:40:24;0;-1;-1;-1;-1;-1;100;0;0;0;0;0;0;0;0;0;0;0;0;0;0;234;100;7.1877;234.042;100.183;0;69;1;0.31291;-0.307962;-2.94866;0.36262;-0.31512;-3.02564;-0.550426;-0.133744;0.45587;-0.307469;-0.546058;-0.751188;0;0;0;0;0;0;0;0;0;0;675;224;1024;1024;1024;224;1024;1024;1024;1;4;0;0;0;0;0; ;;0.31291;-0.307962;-2.94866;0.36262;-0.31512;-3.02564
3319;3322;2019/10/09 14:40:24;0;-1;-1;-1;-1;-1;100;0;0;0;0;0;0;0;0;0;0;0;0;0;0;235;101;6.8953;235.109;101.029;0;70;1;0.36135;-0.348263;-3.07184;0.36224;-0.325063;-3.0395;-0.541962;-0.164572;0.42533;-0.32718;-0.68876;-0.55027;0;0;0;0;0;0;0;0;0;0;675;224;1024;1024;1024;224;1024;1024;1024;1;4;0;0;0;0;0; ;;0.36135;-0.348263;-3.07184;0.36224;-0.325063;-3.0395
3320;3323;2019/10/09 14:40:24;0;-1;-1;-1;-1;-1;100;0;0;0;0;0;0;0;0;0;0;0;0;0;0;238;102;6.85109;236.811;101.933;0;71;1;0.34829;-0.359816;-3.08797;0.35805;-0.335489;-3.05404;-0.533383;-0.20377;0.353323;-0.361181;-0.784519;-0.400195;0;0;0;0;0;0;0;0;0;0;675;224;1024;1024;1024;224;1024;1024;1024;1;4;0;0;0;0;0; ;;0.34829;-0.359816;-3.08797;0.35805;-0.335489;-3.05404
3321;3324;2019/10/09 14:40:24;0;-1;-1;-1;-1;-1;100;0;0;0;0;0;0;0;0;0;0;0;0;0;0;238;102;6.85109;237.618;102.537;0;72;1;0.34829;-0.359816;-3.08797;0.35805;-0.335489;-3.05404;-0.533383;-0.20377;0.353323;-0.361181;-0.784519;-0.400195;0;0;0;0;0;0;0;0;0;0;675;224;1024;1024;1024;224;1024;1024;1024;1;4;0;0;0;0;0; ;;0.34829;-0.359816;-3.08797;0.35805;-0.335489;-3.05404
3322;3325;2019/10/09 14:40:24;0;-1;-1;-1;-1;-1;100;0;0;0;0;0;0;0;0;0;0;0;0;0;0;239.333;102.667;6.86965;239.088;103.189;0;73;1;0.33496;-0.361534;-3.07682;0.35113;-0.343302;-3.06088;-0.474215;-0.241444;0.201273;-0.103824;-0.894713;-0.898842;0;0;0;0;0;0;0;0;0;0;675;224;1024;1024;1024;224;1024;1024;1024;1;4;0;0;0;0;0; ;;0.33496;-0.361534;-3.07682;0.35113;-0.343302;-3.06088
3323;3326;2019/10/09 14:40:24;0;-1;-1;-1;-1;-1;100;0;0;0;0;0;0;0;0;0;0;0;0;0;0;241;103;7.04513;240.599;103.728;0;74;1;0.2899;-0.342044;-2.99764;0.33276;-0.342925;-3.0419;-0.454168;-0.282092;0.088745;0.312826;-1.26997;-2.11531;0;0;0;0;0;0;0;0;0;0;675;224;1024;1024;1024;224;1024;1024;1024;1;4;0;0;0;0;0; ;;0.2899;-0.342044;-2.99764;0.33276;-0.342925;-3.0419
3324;3327;2019/10/09 14:40:24;0;-1;-1;-1;-1;-1;100;0;0;0;0;0;0;0;0;0;0;0;0;0;0;241;103;7.04513;241.464;104.331;0;75;1;0.2899;-0.342044;-2.99764;0.33276;-0.342925;-3.0419;-0.454168;-0.282092;0.088745;0.312826;-1.26997;-2.11531;0;0;0;0;0;0;0;0;0;0;675;224;1024;1024;1024;224;1024;1024;1024;1;4;0;0;0;0;0; ;;0.2899;-0.342044;-2.99764;0.33276;-0.342925;-3.0419
3325;3328;2019/10/09 14:40:24;0;-1;-1;-1;-1;-1;100;0;0;0;0;0;0;0;0;0;0;0;0;0;0;244;105;7.1155;243.346;105.202;0;76;1;0.25611;-0.345421;-2.95977;0.30976;-0.343674;-3.01726;-0.494668;-0.245601;0.177177;0.160303;-1.0771;-1.76233;0;0;0;0;0;0;0;0;0;0;675;224;1024;1024;1024;224;1024;1024;1024;1;4;0;0;0;0;0; ;;0.25611;-0.345421;-2.95977;0.30976;-0.343674;-3.01726
3326;3329;2019/10/09 14:40:24;0;-1;-1;-1;-1;-1;100;0;0;0;0;0;0;0;0;0;0;0;0;0;0;244;105;7.33815;244.489;105.744;0;77;1;0.21799;-0.319771;-2.86845;0.28223;-0.336503;-2.97262;-0.537621;-0.211415;0.265146;0.13454;-0.878937;-1.62874;0;0;0;0;0;0;0;0;0;0;675;224;1024;1024;1024;224;1024;1024;1024;1;4;0;0;0;0;0; ;;0.21799;-0.319771;-2.86845;0.28223;-0.336503;-2.97262
3327;3330;2019/10/09 14:40:24;0;-1;-1;-1;-1;-1;100;0;0;0;0;0;0;0;0;0;0;0;0;0;0;244;105;7.33815;245.407;106.355;0;78;1;0.21799;-0.319771;-2.86845;0.28223;-0.336503;-2.97262;-0.537621;-0.211415;0.265146;0.13454;-0.878937;-1.62874;0;0;0;0;0;0;0;0;0;0;675;224;1024;1024;1024;224;1024;1024;1024;1;4;0;0;0;0;0; ;;0.21799;-0.319771;-2.86845;0.28223;-0.336503;-2.97262
3328;3331;2019/10/09 14:40:24;0;-1;-1;-1;-1;-1;100;0;0;0;0;0;0;0;0;0;0;0;0;0;0;246;106;7.26119;246.565;106.823;0;79;1;0.21716;-0.334194;-2.8956;0.26271;-0.33581;-2.94951;-0.587591;-0.155465;0.398698;-0.0407692;-0.503115;-1.04816;0;0;0;0;0;0;0;0;0;0;675;224;1024;1024;1024;224;1024;1024;1024;1;4;0;0;0;0;0; ;;0.21716;-0.334194;-2.8956;0.26271;-0.33581;-2.94951
3329;3332;2019/10/09 14:40:24;0;-1;-1;-1;-1;-1;100;0;0;0;0;0;0;0;0;0;0;0;0;0;0;248;106;7.06592;248.01;107.132;0;80;1;0.23667;-0.357248;-2.977;0.2549;-0.342242;-2.95776;-0.627226;-0.111259;0.495591;-0.274337;-0.0555404;-0.250077;0;0;0;0;0;0;0;0;0;0;675;224;1024;1024;1024;224;1024;1024;1024;1;4;0;0;0;0;0; ;;0.23667;-0.357248;-2.977;0.2549;-0.342242;-2.95776
3330;3333;2019/10/09 14:40:24;0;-1;-1;-1;-1;-1;100;0;0;0;0;0;0;0;0;0;0;0;0;0;0;248;106;7.06592;248.961;107.724;0;81;1;0.23667;-0.357248;-2.977;0.2549;-0.342242;-2.95776;-0.627226;-0.111259;0.495591;-0.274337;-0.0555404;-0.250077;0;0;0;0;0;0;0;0;0;0;675;224;1024;1024;1024;224;1024;1024;1024;1;4;0;0;0;0;0; ;;0.23667;-0.357248;-2.977;0.2549;-0.342242;-2.95776
3331;3334;2019/10/09 14:40:24;0;-1;-1;-1;-1;-1;100;0;0;0;0;0;0;0;0;0;0;0;0;0;0;249.333;107.333;6.94692;250.062;108.159;0;82;1;0.24828;-0.379924;-3.02357;0.25291;-0.353546;-2.9775;-0.637766;-0.0940242;0.519284;-0.599957;0.359089;0.696459;0;0;0;0;0;0;0;0;0;0;675;224;1024;1024;1024;224;1024;1024;1024;1;4;0;0;0;0;0; ;;0.24828;-0.379924;-3.02357;0.25291;-0.353546;-2.9775
3332;3335;2019/10/09 14:40:25;0;-1;-1;-1;-1;-1;100;0;0;0;0;0;0;0;0;0;0;0;0;0;0;250.667;107.333;7.38773;251.237;108.447;0;83;1;0.16479;-0.327421;-2.84018;0.22648;-0.345709;-2.93631;-0.665568;-0.0638247;0.592659;-0.92269;0.796449;1.75922;0;0;0;0;0;0;0;0;0;0;675;224;1024;1024;1024;224;1024;1024;1024;1;4;0;0;0;0;0; ;;0.16479;-0.327421;-2.84018;0.22648;-0.345709;-2.93631
3333;3336;2019/10/09 14:40:25;0;-1;-1;-1;-1;-1;100;0;0;0;0;0;0;0;0;0;0;0;0;0;0;250.667;107.333;7.38773;252.202;109.02;0;84;1;0.16479;-0.327421;-2.84018;0.22648;-0.345709;-2.93631;-0.665568;-0.0638247;0.592659;-0.92269;0.796449;1.75922;0;0;0;0;0;0;0;0;0;0;675;224;1024;1024;1024;224;1024;1024;1024;1;4;0;0;0;0;0; ;;0.16479;-0.327421;-2.84018;0.22648;-0.345709;-2.93631
3334;3337;2019/10/09 14:40:25;0;-1;-1;-1;-1;-1;100;0;0;0;0;0;0;0;0;0;0;0;0;0;0;253;109;6.68205;253.491;109.586;0;85;1;0.27038;-0.425191;-3.13855;0.23965;-0.369554;-2.99698;-0.58598;-0.107183;0.40959;-0.796672;0.84632;1.67419;0;0;0;0;0;0;0;0;0;0;675;224;1024;1024;1024;224;1024;1024;1024;1;4;0;0;0;0;0; ;;0.27038;-0.425191;-3.13855;0.23965;-0.369554;-2.99698
3335;3338;2019/10/09 14:40:25;0;-1;-1;-1;-1;-1;100;0;0;0;0;0;0;0;0;0;0;0;0;0;0;253;109;7.18266;254.293;109.947;0;86;1;0.18184;-0.360708;-2.91632;0.2223;-0.3669;-2.97278;-0.51111;-0.145223;0.245324;-0.407433;0.683988;0.951747;0;0;0;0;0;0;0;0;0;0;675;224;1024;1024;1024;224;1024;1024;1024;1;4;0;0;0;0;0; ;;0.18184;-0.360708;-2.91632;0.2223;-0.3669;-2.97278
3336;3339;2019/10/09 14:40:25;0;-1;-1;-1;-1;-1;100;0;0;0;0;0;0;0;0;0;0;0;0;0;0;254.667;109.333;7.1648;255.392;110.303;0;87;1;0.17317;-0.36479;-2.92243;0.20757;-0.366267;-2.95768;-0.471805;-0.178339;0.122746;0.102273;0.341894;-0.255319;0;0;0;0;0;0;0;0;0;0;675;224;1024;1024;1024;224;1024;1024;1024;1;4;0;0;0;0;0; ;;0.17317;-0.36479;-2.92243;0.20757;-0.366267;-2.95768
3337;3340;2019/10/09 14:40:25;0;-1;-1;-1;-1;-1;100;0;0;0;0;0;0;0;0;0;0;0;0;0;0;254.667;109.333;7.1648;256.37;110.858;0;88;1;0.17317;-0.36479;-2.92243;0.20757;-0.366267;-2.95768;-0.471805;-0.178339;0.122746;0.102273;0.341894;-0.255319;0;0;0;0;0;0;0;0;0;0;675;224;1024;1024;1024;224;1024;1024;1024;1;4;0;0;0;0;0; ;;0.17317;-0.36479;-2.92243;0.20757;-0.366267;-2.95768
3338;3341;2019/10/09 14:40:25;0;-1;-1;-1;-1;-1;100;0;0;0;0;0;0;0;0;0;0;0;0;0;0;257;110;7.45051;257.596;111.074;0;89;1;0.11256;-0.335355;-2.80599;0.17906;-0.356993;-2.91217;-0.484948;-0.14627;0.194999;0.440089;0.111942;-0.953325;0;0;0;0;0;0;0;0;0;0;675;224;1024;1024;1024;224;1024;1024;1024;1;4;0;0;0;0;0; ;;0.11256;-0.335355;-2.80599;0.17906;-0.356993;-2.91217
3339;3342;2019/10/09 14:40:25;0;-1;-1;-1;-1;-1;100;0;0;0;0;0;0;0;0;0;0;0;0;0;0;259;111;7.17714;259.085;111.588;0;90;1;0.14103;-0.372974;-2.91094;0.16765;-0.361788;-2.9118;-0.546288;-0.112441;0.313752;0.537995;0.0120131;-1.18748;0;0;0;0;0;0;0;0;0;0;675;224;1024;1024;1024;224;1024;1024;1024;1;4;0;0;0;0;0; ;;0.14103;-0.372974;-2.91094;0.16765;-0.361788;-2.9118
3340;3343;2019/10/09 14:40:25;0;-1;-1;-1;-1;-1;100;0;0;0;0;0;0;0;0;0;0;0;0;0;0;260;112;7.28794;260.403;112.267;0;91;1;0.11684;-0.365416;-2.86215;0.15241;-0.362876;-2.89691;-0.549578;-0.118874;0.306238;0.670143;-0.157645;-1.57021;0;0;0;0;0;0;0;0;0;0;675;224;1024;1024;1024;224;1024;1024;1024;1;4;0;0;0;0;0; ;;0.11684;-0.365416;-2.86215;0.15241;-0.362876;-2.89691
3341;3344;2019/10/09 14:40:25;0;-1;-1;-1;-1;-1;100;0;0;0;0;0;0;0;0;0;0;0;0;0;0;262;112;7.31161;261.95;112.725;0;92;1;0.09957;-0.362615;-2.85272;0.13656;-0.362798;-2.88365;-0.682564;-0.0482033;0.5716;0.0715314;0.107266;-0.387655;0;0;0;0;0;0;0;0;0;0;675;224;1024;1024;1024;224;1024;1024;1024;1;4;0;0;0;0;0; ;;0.09957;-0.362615;-2.85272;0.13656;-0.362798;-2.88365
3342;3345;2019/10/09 14:40:25;0;-1;-1;-1;-1;-1;100;0;0;0;0;0;0;0;0;0;0;0;0;0;0;262;112;7.35196;263.012;113.032;0;93;1;0.09354;-0.357881;-2.83679;0.12365;-0.361323;-2.86959;-0.747169;-0.00983454;0.69611;-0.764973;0.527713;1.31018;0;0;0;0;0;0;0;0;0;0;675;224;1024;1024;1024;224;1024;1024;1024;1;4;0;0;0;0;0; ;;0.09354;-0.357881;-2.83679;0.12365;-0.361323;-2.86959
3343;3346;2019/10/09 14:40:25;0;-1;-1;-1;-1;-1;100;0;0;0;0;0;0;0;0;0;0;0;0;0;0;262;112;7.35196;264.057;113.564;0;94;1;0.09354;-0.357881;-2.83679;0.12365;-0.361323;-2.86959;-0.747169;-0.00983454;0.69611;-0.764973;0.527713;1.31018;0;0;0;0;0;0;0;0;0;0;675;224;1024;1024;1024;224;1024;1024;1024;1;4;0;0;0;0;0; ;;0.09354;-0.357881;-2.83679;0.12365;-0.361323;-2.86959
3344;3347;2019/10/09 14:40:25;0;-1;-1;-1;-1;-1;100;0;0;0;0;0;0;0;0;0;0;0;0;0;0;265;112;7.31386;265.469;113.489;0;95;1;0.07876;-0.362349;-2.85183;0.11018;-0.361631;-2.86426;-0.739917;0.00798368;0.697399;-1.26187;0.874592;2.50697;0;0;0;0;0;0;0;0;0;0;675;224;1024;1024;1024;224;1024;1024;1024;1;4;0;0;0;0;0; ;;0.07876;-0.362349;-2.85183;0.11018;-0.361631;-2.86426
3345;3348;2019/10/09 14:40:25;0;-1;-1;-1;-1;-1;100;0;0;0;0;0;0;0;0;0;0;0;0;0;0;266;112;7.26716;266.718;113.468;0;96;1;0.07883;-0.367891;-2.87048;0.10078;-0.363509;-2.86613;-0.711875;-0.0175081;0.576013;-1.53377;0.965436;2.80818;0;0;0;0;0;0;0;0;0;0;675;224;1024;1024;1024;224;1024;1024;1024;1;4;0;0;0;0;0; ;;0.07883;-0.367891;-2.87048;0.10078;-0.363509;-2.86613
3346;3349;2019/10/09 14:40:25;0;-1;-1;-1;-1;-1;100;0;0;0;0;0;0;0;0;0;0;0;0;0;0;266.667;112.667;7.2198;267.77;113.682;0;97;1;0.0813;-0.377428;-2.88709;0.09493;-0.367685;-2.87242;-0.675997;-0.0306867;0.480391;-1.36418;0.859059;2.25521;0;0;0;0;0;0;0;0;0;0;675;224;1024;1024;1024;224;1024;1024;1024;1;4;0;0;0;0;0; ;;0.0813;-0.377428;-2.88709;0.09493;-0.367685;-2.87242
3347;3350;2019/10/09 14:40:25;0;-1;-1;-1;-1;-1;100;0;0;0;0;0;0;0;0;0;0;0;0;0;0;268;113;7.27925;268.914;113.93;0;98;1;0.06333;-0.37217;-2.86185;0.08545;-0.36903;-2.86925;-0.634748;-0.0394735;0.382894;-1.11;0.78718;1.61548;0;0;0;0;0;0;0;0;0;0;675;224;1024;1024;1024;224;1024;1024;1024;1;4;0;0;0;0;0; ;;0.06333;-0.37217;-2.86185;0.08545;-0.36903;-2.86925
3348;3351;2019/10/09 14:40:25;0;-1;-1;-1;-1;-1;100;0;0;0;0;0;0;0;0;0;0;0;0;0;0;268;113;7.27925;269.987;114.391;0;99;1;0.06333;-0.37217;-2.86185;0.08545;-0.36903;-2.86925;-0.634748;-0.0394735;0.382894;-1.11;0.78718;1.61548;0;0;0;0;0;0;0;0;0;0;675;224;1024;1024;1024;224;1024;1024;1024;1;4;0;0;0;0;0; ;;0.06333;-0.37217;-2.86185;0.08545;-0.36903;-2.86925
3349;3352;2019/10/09 14:40:25;0;-1;-1;-1;-1;-1;100;0;0;0;0;0;0;0;0;0;0;0;0;0;0;270;114;7.0411;271.064;114.701;0;100;1;0.08512;-0.407583;-2.95643;0.08535;-0.380596;-2.8954;-0.534186;-0.0769827;0.194547;-0.221664;0.386125;-0.15984;0;0;0;0;0;0;0;0;0;0;675;224;1024;1024;1024;224;1024;1024;1024;1;4;0;0;0;0;0; ;;0.08512;-0.407583;-2.95643;0.08535;-0.380596;-2.8954
3350;3353;2019/10/09 14:40:25;0;-1;-1;-1;-1;-1;100;0;0;0;0;0;0;0;0;0;0;0;0;0;0;271;115;7.30395;272.114;115.262;0;101;1;0.03924;-0.380623;-2.84447;0.07152;-0.380604;-2.88012;-0.47663;-0.10393;0.0851943;0.677162;-0.0501045;-1.92536;0;0;0;0;0;0;0;0;0;0;675;224;1024;1024;1024;224;1024;1024;1024;1;4;0;0;0;0;0; ;;0.03924;-0.380623;-2.84447;0.07152;-0.380604;-2.88012
3351;3354;2019/10/09 14:40:25;0;-1;-1;-1;-1;-1;100;0;0;0;0;0;0;0;0;0;0;0;0;0;0;271;115;7.30395;273.185;115.722;0;102;1;0.03924;-0.380623;-2.84447;0.07152;-0.380604;-2.88012;-0.47663;-0.10393;0.0851943;0.677162;-0.0501045;-1.92536;0;0;0;0;0;0;0;0;0;0;675;224;1024;1024;1024;224;1024;1024;1024;1;4;0;0;0;0;0; ;;0.03924;-0.380623;-2.84447;0.07152;-0.380604;-2.88012
3352;3355;2019/10/09 14:40:25;0;-1;-1;-1;-1;-1;100;0;0;0;0;0;0;0;0;0;0;0;0;0;0;273;117;6.93581;274.182;116.695;0;103;1;0.08001;-0.439373;-2.99018;0.07406;-0.398235;-2.91314;-0.394143;-0.171973;-0.0952466;1.44175;-0.568963;-3.52888;0;0;0;0;0;0;0;0;0;0;675;224;1024;1024;1024;224;1024;1024;1024;1;4;0;0;0;0;0; ;;0.08001;-0.439373;-2.99018;0.07406;-0.398235;-2.91314
3353;3356;2019/10/09 14:40:25;0;-1;-1;-1;-1;-1;100;0;0;0;0;0;0;0;0;0;0;0;0;0;0;274;118;7.38;275.185;117.646;0;104;1;0.00824;-0.388476;-2.80347;0.05432;-0.395307;-2.88024;-0.375617;-0.198408;-0.0994036;1.87201;-0.883103;-4.13994;0;0;0;0;0;0;0;0;0;0;675;224;1024;1024;1024;224;1024;1024;1024;1;4;0;0;0;0;0; ;;0.00824;-0.388476;-2.80347;0.05432;-0.395307;-2.88024
3354;3357;2019/10/09 14:40:25;0;-1;-1;-1;-1;-1;100;0;0;0;0;0;0;0;0;0;0;0;0;0;0;275;119;7.2121;276.188;118.607;0;105;1;0.0248;-0.414935;-2.86609;0.04546;-0.401195;-2.87599;-0.373522;-0.219397;-0.070351;2.029;-1.09497;-4.13322;0;0;0;0;0;0;0;0;0;0;675;224;1024;1024;1024;224;1024;1024;1024;1;4;0;0;0;0;0; ;;0.0248;-0.414935;-2.86609;0.04546;-0.401195;-2.87599
3355;3358;2019/10/09 14:40:25;0;-1;-1;-1;-1;-1;100;0;0;0;0;0;0;0;0;0;0;0;0;0;0;277;120;7.38843;277.518;119.587;0;106;1;-0.013169;-0.398735;-2.79277;0.02787;-0.400457;-2.85103;-0.396544;-0.225751;0.0123496;1.93073;-1.21481;-3.58957;0;0;0;0;0;0;0;0;0;0;675;224;1024;1024;1024;224;1024;1024;1024;1;4;0;0;0;0;0; ;;-0.013169;-0.398735;-2.79277;0.02787;-0.400457;-2.85103
3356;3359;2019/10/09 14:40:25;0;-1;-1;-1;-1;-1;100;0;0;0;0;0;0;0;0;0;0;0;0;0;0;278;121;7.36146;278.748;120.586;0;107;1;-0.016332;-0.407685;-2.79945;0.01461;-0.402626;-2.83556;-0.480032;-0.210845;0.212228;1.34378;-1.18702;-2.09323;0;0;0;0;0;0;0;0;0;0;675;224;1024;1024;1024;224;1024;1024;1024;1;4;0;0;0;0;0; ;;-0.016332;-0.407685;-2.79945;0.01461;-0.402626;-2.83556
3357;3360;2019/10/09 14:40:25;0;-1;-1;-1;-1;-1;100;0;0;0;0;0;0;0;0;0;0;0;0;0;0;280.667;122.667;7.09352;280.446;121.815;0;108;1;0.00206;-0.451754;-2.90062;0.01085;-0.417364;-2.85508;-0.495659;-0.252316;0.213061;0.74114;-1.22005;-0.818321;0;0;0;0;0;0;0;0;0;0;675;224;1024;1024;1024;224;1024;1024;1024;1;4;0;0;0;0;0; ;;0.00206;-0.451754;-2.90062;0.01085;-0.417364;-2.85508
3358;3361;2019/10/09 14:40:25;0;-1;-1;-1;-1;-1;100;0;0;0;0;0;0;0;0;0;0;0;0;0;0;281.333;123.333;7.38;281.838;122.891;0;109;1;-0.041341;-0.418571;-2.7836;-0.004809;-0.417726;-2.83363;-0.612327;-0.229216;0.445291;-0.42649;-0.96059;1.66729;0;0;0;0;0;0;0;0;0;0;675;224;1024;1024;1024;224;1024;1024;1024;1;4;0;0;0;0;0; ;;-0.041341;-0.418571;-2.7836;-0.004809;-0.417726;-2.83363
3359;3362;2019/10/09 14:40:25;0;-1;-1;-1;-1;-1;100;0;0;0;0;0;0;0;0;0;0;0;0;0;0;284;125;7.19578;283.649;124.176;0;110;1;-0.035291;-0.451732;-2.84978;-0.013954;-0.427928;-2.83848;-0.639995;-0.267779;0.433924;-1.31151;-0.853339;3.12986;0;0;0;0;0;0;0;0;0;0;675;224;1024;1024;1024;224;1024;1024;1024;1;4;0;0;0;0;0; ;;-0.035291;-0.451732;-2.84978;-0.013954;-0.427928;-2.83848
3360;3363;2019/10/09 14:40:25;0;-1;-1;-1;-1;-1;100;0;0;0;0;0;0;0;0;0;0;0;0;0;0;286;126;7.29877;285.55;125.398;0;111;1;-0.062577;-0.444008;-2.80509;-0.028541;-0.432752;-2.82846;-0.679476;-0.286667;0.450143;-2.00853;-0.780602;3.95616;0;0;0;0;0;0;0;0;0;0;675;224;1024;1024;1024;224;1024;1024;1024;1;4;0;0;0;0;0; ;;-0.062577;-0.444008;-2.80509;-0.028541;-0.432752;-2.82846
3361;3364;2019/10/09 14:40:25;0;-1;-1;-1;-1;-1;100;0;0;0;0;0;0;0;0;0;0;0;0;0;0;287;127;7.2675;287.195;126.575;0;112;1;-0.065409;-0.453801;-2.8136;-0.039601;-0.439067;-2.824;-0.677097;-0.32616;0.377994;-2.32532;-0.86928;3.83365;0;0;0;0;0;0;0;0;0;0;675;224;1024;1024;1024;224;1024;1024;1024;1;4;0;0;0;0;0; ;;-0.065409;-0.453801;-2.8136;-0.039601;-0.439067;-2.824
3362;3365;2019/10/09 14:40:25;0;-1;-1;-1;-1;-1;100;0;0;0;0;0;0;0;0;0;0;0;0;0;0;289;128;7.38208;288.974;127.718;0;113;1;-0.093435;-0.444637;-2.76542;-0.055751;-0.440738;-2.80643;-0.687203;-0.347872;0.343094;-2.22239;-1.06869;2.82271;0;0;0;0;0;0;0;0;0;0;675;224;1024;1024;1024;224;1024;1024;1024;1;4;0;0;0;0;0; ;;-0.093435;-0.444637;-2.76542;-0.055751;-0.440738;-2.80643
3363;3366;2019/10/09 14:40:25;0;-1;-1;-1;-1;-1;100;0;0;0;0;0;0;0;0;0;0;0;0;0;0;291;129;7.39727;290.849;128.834;0;114;1;-0.108788;-0.448326;-2.75592;-0.071662;-0.443014;-2.79128;-0.74177;-0.31114;0.460593;-2.31612;-0.876088;2.68198;0;0;0;0;0;0;0;0;0;0;675;224;1024;1024;1024;224;1024;1024;1024;1;4;0;0;0;0;0; ;;-0.108788;-0.448326;-2.75592;-0.071662;-0.443014;-2.79128
3364;3367;2019/10/09 14:40:25;0;-1;-1;-1;-1;-1;101;0;0;0;0;0;0;0;0;0;0;0;0;0;0;292;130;7.43534;292.472;129.932;0;115;1;-0.120062;-0.449072;-2.73786;-0.086182;-0.444832;-2.77525;-0.76997;-0.294911;0.509461;-2.01911;-0.787964;1.86541;0;0;0;0;0.632232;-1.04907;-2.63405;0;0;0;675;650;1024;1024;1024;224;1024;1024;1024;1;4;0;0;0;0;0; ;;-0.120062;-0.449072;-2.73786;-0.086182;-0.444832;-2.77525
3365;3368;2019/10/09 14:40:25;0;-1;-1;-1;-1;-1;102;0;0;0;0;0;0;0;0;0;0;0;0;0;0;292;130;7.43534;293.745;130.674;0;116;1;-0.120062;-0.449072;-2.73786;-0.086182;-0.444832;-2.77525;-0.76997;-0.294911;0.509461;-2.01911;-0.787964;1.86541;0;0;0;0;0.614326;-1.04907;-2.61212;0;0;0;675;650;1024;1024;1024;224;1024;1024;1024;1;4;0;0;0;0;0; ;;-0.120062;-0.449072;-2.73786;-0.086182;-0.444832;-2.77525
3366;3369;2019/10/09 14:40:25;0;-1;-1;-1;-1;-1;103;0;0;0;0;0;0;0;0;0;0;0;0;0;0;295;131;7.37037;295.502;131.541;0;117;1;-0.132616;-0.463088;-2.75871;-0.100112;-0.450309;-2.77029;-0.756852;-0.253543;0.539042;-1.6114;-0.424057;1.479;0;0;0;0;0.596022;-1.06309;-2.62916;0;0;0;675;650;1024;1024;1024;224;1024;1024;1024;1;4;0;0;0;0;0; ;;-0.132616;-0.463088;-2.75871;-0.100112;-0.450309;-2.77029
3367;3370;2019/10/09 14:40:25;0;-1;-1;-1;-1;-1;104;0;0;0;0;0;0;0;0;0;0;0;0;0;0;297;132;7.37726;297.323;132.45;0;118;1;-0.146954;-0.467834;-2.75236;-0.114165;-0.455566;-2.76491;-0.747154;-0.230206;0.540926;-1.19846;-0.061198;1.1981;0;0;0;0;0.581108;-1.06783;-2.60868;0;0;0;675;650;1024;1024;1024;224;1024;1024;1024;1;4;0;0;0;0;0; ;;-0.146954;-0.467834;-2.75236;-0.114165;-0.455566;-2.76491
3368;3371;2019/10/09 14:40:25;0;-1;-1;-1;-1;-1;105;0;0;0;0;0;0;0;0;0;0;0;0;0;0;299;133;7.27241;299.203;133.389;0;119;1;-0.148379;-0.487512;-2.78898;-0.124429;-0.46515;-2.77213;-0.738607;-0.227391;0.502083;-0.92959;0.301309;1.14354;0;0;0;0;0.576837;-1.08751;-2.64004;0;0;0;675;650;1024;1024;1024;224;1024;1024;1024;1;4;0;0;0;0;0; ;;-0.148379;-0.487512;-2.78898;-0.124429;-0.46515;-2.77213
3369;3372;2019/10/09 14:40:25;0;-1;-1;-1;-1;-1;106;0;0;0;0;0;0;0;0;0;0;0;0;0;0;300;133;7.25302;300.804;134.024;0;120;1;-0.152982;-0.490153;-2.79657;-0.132995;-0.472651;-2.77946;-0.707526;-0.245655;0.393543;-0.627308;0.530615;0.858786;0;0;0;0;0.57042;-1.09015;-2.65855;0;0;0;675;650;1024;1024;1024;224;1024;1024;1024;1;4;0;0;0;0;0; ;;-0.152982;-0.490153;-2.79657;-0.132995;-0.472651;-2.77946
3370;3373;2019/10/09 14:40:25;0;-1;-1;-1;-1;-1;107;0;0;0;0;0;0;0;0;0;0;0;0;0;0;300;133;7.25302;302.156;134.78;0;121;1;-0.152982;-0.490153;-2.79657;-0.132995;-0.472651;-2.77946;-0.707526;-0.245655;0.393543;-0.627308;0.530615;0.858786;0;0;0;0;0.57923;-1.09015;-2.69762;0;0;0;675;650;1024;1024;1024;224;1024;1024;1024;1;4;0;0;0;0;0; ;;-0.152982;-0.490153;-2.79657;-0.132995;-0.472651;-2.77946
3371;3374;2019/10/09 14:40:25;0;-1;-1;-1;-1;-1;108;0;0;0;0;0;0;0;0;0;0;0;0;0;0;303;135;7.36707;303.836;135.623;0;122;1;-0.186414;-0.48613;-2.74504;-0.149021;-0.476695;-2.76913;-0.656174;-0.248252;0.302435;-0.120059;0.506691;0.0416481;0;0;0;0;0.54344;-1.08613;-2.64478;0;0;0;675;650;1024;1024;1024;224;1024;1024;1024;1;4;0;0;0;0;0; ;;-0.186414;-0.48613;-2.74504;-0.149021;-0.476695;-2.76913
3372;3375;2019/10/09 14:40:25;0;-1;-1;-1;-1;-1;109;0;0;0;0;0;0;0;0;0;0;0;0;0;0;303;135;7.36707;305.202;136.383;0;123;1;-0.186414;-0.48613;-2.74504;-0.149021;-0.476695;-2.76913;-0.656174;-0.248252;0.302435;-0.120059;0.506691;0.0416481;0;0;0;0;0.560403;-1.08613;-2.67834;0;0;0;675;650;1024;1024;1024;224;1024;1024;1024;1;4;0;0;0;0;0; ;;-0.186414;-0.48613;-2.74504;-0.149021;-0.476695;-2.76913
3373;3376;2019/10/09 14:40:25;0;-1;-1;-1;-1;-1;110;0;0;0;0;0;0;0;0;0;0;0;0;0;0;307.333;136.667;7.41617;307.457;137.262;0;124;1;-0.220958;-0.488959;-2.72035;-0.170602;-0.480374;-2.7545;-0.61842;-0.243561;0.236702;0.331372;0.440703;-0.701062;0;0;0;0;0.522952;-1.08896;-2.65232;0;0;0;675;650;1024;1024;1024;224;1024;1024;1024;1;4;0;0;0;0;0; ;;-0.220958;-0.488959;-2.72035;-0.170602;-0.480374;-2.7545
3374;3377;2019/10/09 14:40:25;0;-1;-1;-1;-1;-1;111;0;0;0;0;0;0;0;0;0;0;0;0;0;0;310;138;7.32688;309.793;138.298;0;125;1;-0.229625;-0.50859;-2.74911;-0.188309;-0.488839;-2.75288;-0.635167;-0.261519;0.194144;0.563222;0.240537;-1.45347;0;0;0;0;0.525939;-1.10859;-2.70555;0;0;0;675;650;1024;1024;1024;224;1024;1024;1024;1;4;0;0;0;0;0; ;;-0.229625;-0.50859;-2.74911;-0.188309;-0.488839;-2.75288
3375;3378;2019/10/09 14:40:25;0;-1;-1;-1;-1;-1;112;0;0;0;0;0;0;0;0;0;0;0;0;0;0;312;139;7.24296;311.992;139.315;0;126;1;-0.234479;-0.52602;-2.77775;-0.20216;-0.499994;-2.76034;-0.644611;-0.289956;0.130164;0.645009;-0.0346087;-2.10216;0;0;0;0;0.509092;-1.12602;-2.74937;0;0;0;675;650;1024;1024;1024;224;1024;1024;1024;1;4;0;0;0;0;0; ;;-0.234479;-0.52602;-2.77775;-0.20216;-0.499994;-2.76034
3376;3379;2019/10/09 14:40:25;0;-1;-1;-1;-1;-1;113;0;0;0;0;0;0;0;0;0;0;0;0;0;0;314;140;7.43844;314.132;140.329;0;127;1;-0.268012;-0.50466;-2.69974;-0.221916;-0.50139;-2.74216;-0.678701;-0.282511;0.167841;0.566403;-0.185827;-2.26222;0;0;0;0;0.469743;-1.10466;-2.69679;0;0;0;675;650;1024;1024;1024;224;1024;1024;1024;1;4;0;0;0;0;0; ;;-0.268012;-0.50466;-2.69974;-0.221916;-0.50139;-2.74216
3377;3380;2019/10/09 14:40:25;0;-1;-1;-1;-1;-1;114;0;0;0;0;0;0;0;0;0;0;0;0;0;0;314;140;7.43844;315.636;141.126;0;128;1;-0.268012;-0.50466;-2.69974;-0.221916;-0.50139;-2.74216;-0.678701;-0.282511;0.167841;0.566403;-0.185827;-2.26222;0;0;0;0;0.448907;-1.10466;-2.67974;0;0;0;675;650;1024;1024;1024;224;1024;1024;1024;1;4;0;0;0;0;0; ;;-0.268012;-0.50466;-2.69974;-0.221916;-0.50139;-2.74216
3378;3381;2019/10/09 14:40:25;0;-1;-1;-1;-1;-1;115;0;0;0;0;0;0;0;0;0;0;0;0;0;0;318;141;7.26982;318.064;141.873;0;129;1;-0.27849;-0.53369;-2.75974;-0.238888;-0.51108;-2.74743;-0.689093;-0.271807;0.185956;0.388909;-0.18111;-1.9099;0;0;0;0;0.43244;-1.13369;-2.73825;0;0;0;675;650;1024;1024;1024;224;1024;1024;1024;1;4;0;0;0;0;0; ;;-0.27849;-0.53369;-2.75974;-0.238888;-0.51108;-2.74743
3379;3382;2019/10/09 14:40:25;0;-1;-1;-1;-1;-1;116;0;0;0;0;0;0;0;0;0;0;0;0;0;0;320;142;7.32316;320.294;142.713;0;130;1;-0.297374;-0.53185;-2.73552;-0.256434;-0.51731;-2.74386;-0.735116;-0.284719;0.187264;-0.0030542;-0.217869;-1.49083;0;0;0;0;0.404627;-1.13185;-2.7051;0;0;0;675;650;1024;1024;1024;224;1024;1024;1024;1;4;0;0;0;0;0; ;;-0.297374;-0.53185;-2.73552;-0.256434;-0.51731;-2.74386
3380;3383;2019/10/09 14:40:25;0;-1;-1;-1;-1;-1;117;0;0;0;0;0;0;0;0;0;0;0;0;0;0;322;142;7.37062;322.441;143.269;0;131;1;-0.315438;-0.5252;-2.71758;-0.274135;-0.51968;-2.73598;-0.795401;-0.305352;0.175755;-0.607534;-0.342197;-1.10308;0;0;0;0;0.360218;-1.1252;-2.68496;0;0;0;675;650;1024;1024;1024;224;1024;1024;1024;1;4;0;0;0;0;0; ;;-0.315438;-0.5252;-2.71758;-0.274135;-0.51968;-2.73598
3381;3384;2019/10/09 14:40:25;0;-1;-1;-1;-1;-1;118;0;0;0;0;0;0;0;0;0;0;0;0;0;0;324;142;7.30899;324.546;143.638;0;132;1;-0.32332;-0.53385;-2.74092;-0.28889;-0.52393;-2.73746;-0.821567;-0.303344;0.158259;-1.00264;-0.348502;-0.784697;0;0;0;0;0.316874;-1.13385;-2.71141;0;0;0;675;650;1024;1024;1024;224;1024;1024;1024;1;4;0;0;0;0;0; ;;-0.32332;-0.53385;-2.74092;-0.28889;-0.52393;-2.73746
3382;3385;2019/10/09 14:40:25;0;-1;-1;-1;-1;-1;119;0;0;0;0;0;0;0;0;0;0;0;0;0;0;326;142;7.2591;326.636;143.876;0;133;1;-0.332418;-0.54095;-2.7601;-0.301949;-0.52904;-2.74425;-0.834552;-0.281431;0.150044;-1.25181;-0.179915;-0.402763;0;0;0;0;0.288187;-1.14095;-2.73701;0;0;0;675;650;939;1153;1024;224;1024;1024;1024;1;4;0;0;0;0;0; ;;-0.332418;-0.54095;-2.7601;-0.301949;-0.52904;-2.74425
3383;3386;2019/10/09 14:40:25;0;-1;-1;-1;-1;-1;120;0;0;0;0;0;0;0;0;0;0;0;0;0;0;326;142;7.2591;328.275;144.622;0;134;1;-0.332418;-0.54095;-2.7601;-0.301949;-0.52904;-2.74425;-0.834552;-0.281431;0.150044;-1.25181;-0.179915;-0.402763;0;0;0;0;0.274777;-1.14095;-2.73947;0;0;0;675;650;939;1153;1024;224;1024;1024;1024;1;4;0;0;0;0;0; ;;-0.332418;-0.54095;-2.7601;-0.301949;-0.52904;-2.74425
3384;3387;2019/10/09 14:40:25;0;-1;-1;-1;-1;-1;121;0;0;0;0;0;0;0;0;0;0;0;0;0;0;329;141;7.22531;330.196;143.963;0;135;1;-0.350015;-0.54006;-2.77704;-0.316368;-0.53234;-2.75409;-0.783648;-0.261562;0.054302;-1.06544;-0.0452022;-0.581744;0;0;0;0;0.250159;-1.14006;-2.75516;0;0;0;675;650;942;1160;1024;224;1024;1024;1024;1;4;0;0;0;0;0; ;;-0.350015;-0.54006;-2.77704;-0.316368;-0.53234;-2.75409
3385;3388;2019/10/09 14:40:25;0;-1;-1;-1;-1;-1;122;0;0;0;0;0;0;0;0;0;0;0;0;0;0;331;140;7.2414;332.131;143.248;0;136;1;-0.36524;-0.532;-2.77456;-0.33103;-0.53224;-2.76023;-0.785626;-0.229365;-0.0112249;-0.969733;0.118176;-1.02407;0;0;0;0;0.255418;-1.132;-2.79828;0;0;0;675;650;947;1161;1024;224;1024;1024;1024;1;4;0;0;0;0;0; ;;-0.36524;-0.532;-2.77456;-0.33103;-0.53224;-2.76023
3386;3389;2019/10/09 14:40:25;0;-1;-1;-1;-1;-1;123;0;0;0;0;0;0;0;0;0;0;0;0;0;0;332;140;7.1686;333.751;142.781;0;137;1;-0.365755;-0.54248;-2.80324;-0.341448;-0.53531;-2.77313;-0.762407;-0.199233;-0.106955;-0.675269;0.363551;-1.62166;0;0;0;0;0.246601;-1.14248;-2.85878;0;0;0;675;650;948;1170;1024;224;1024;1024;1024;1;4;0;0;0;0;0; ;;-0.365755;-0.54248;-2.80324;-0.341448;-0.53531;-2.77313
3387;3390;2019/10/09 14:40:25;0;-1;-1;-1;-1;-1;124;0;0;0;0;0;0;0;0;0;0;0;0;0;0;333;141;6.97897;335.167;142.775;0;138;1;-0.355672;-0.57677;-2.87683;-0.345715;-0.54775;-2.80424;-0.70249;-0.215629;-0.29788;-0.0870911;0.52529;-2.59443;0;0;0;0;0.260063;-1.17677;-2.98074;0;0;0;675;650;945;1191;1024;224;1024;1024;1024;1;4;0;0;0;0;0; ;;-0.355672;-0.57677;-2.87683;-0.345715;-0.54775;-2.80424
3388;3391;2019/10/09 14:40:25;0;-1;-1;-1;-1;-1;125;0;0;0;0;0;0;0;0;0;0;0;0;0;0;333;141;6.97897;336.818;143.328;0;139;1;-0.355672;-0.57677;-2.87683;-0.345715;-0.54775;-2.80424;-0.70249;-0.215629;-0.29788;-0.0870911;0.52529;-2.59443;0;0;0;0;0.284625;-1.17677;-3.07936;0;0;0;675;1824;945;1191;1024;224;1024;1024;1024;1;4;0;0;0;0;0; ;;-0.355672;-0.57677;-2.87683;-0.345715;-0.54775;-2.80424
3389;3392;2019/10/09 14:40:25;0;-1;-1;-1;-1;-1;126;0;0;0;0;0;0;0;0;0;0;0;0;0;0;333;141;6.97897;338.469;143.881;0;140;1;-0.355672;-0.57677;-2.87683;-0.345715;-0.54775;-2.80424;-0.70249;-0.215629;-0.29788;-0.0870911;0.52529;-2.59443;0;0;0;0;0.27876;-1.17677;-3.08185;0;0;0;675;1824;945;1191;1024;224;1024;1024;1024;1;4;0;0;0;0;0; ;;-0.355672;-0.57677;-2.87683;-0.345715;-0.54775;-2.80424
3390;3393;2019/10/09 14:40:25;0;-1;-1;-1;-1;-1;127;0;0;0;0;0;0;0;0;0;0;0;0;0;0;337;140;7.09522;339.461;142.691;0;141;1;-0.39436;-0.55326;-2.83275;-0.360308;-0.5494;-2.8128;-0.6116;-0.197177;-0.379269;0.506653;0.597778;-2.98749;0;0;0;0;0.236658;-1.15326;-3.03921;0;0;0;675;1824;945;1191;1024;224;1024;1024;1024;1;4;0;0;0;0;0; ;;-0.39436;-0.55326;-2.83275;-0.360308;-0.5494;-2.8128
3391;3394;2019/10/09 14:40:25;0;-1;-1;-1;-1;-1;128;0;0;0;0;0;0;0;0;0;0;0;0;0;0;337;140;7.09522;341.084;143.17;0;142;1;-0.39436;-0.55326;-2.83275;-0.360308;-0.5494;-2.8128;-0.6116;-0.197177;-0.379269;0.506653;0.597778;-2.98749;0;0;0;0;0.280519;-1.15326;-3.08437;0;0;0;675;1824;945;1191;1024;224;1024;1024;1024;1;4;0;0;0;0;0; ;;-0.39436;-0.55326;-2.83275;-0.360308;-0.5494;-2.8128
3392;3395;2019/10/09 14:40:26;0;-1;-1;-1;-1;-1;129;0;0;0;0;0;0;0;0;0;0;0;0;0;0;337;140;7.09522;342.707;143.649;0;143;1;-0.39436;-0.55326;-2.83275;-0.360308;-0.5494;-2.8128;-0.6116;-0.197177;-0.379269;0.506653;0.597778;-2.98749;0;0;0;0;0.275413;-1.15326;-3.08753;0;0;0;675;1824;945;1191;1024;224;1024;1024;1024;1;4;0;0;0;0;0; ;;-0.39436;-0.55326;-2.83275;-0.360308;-0.5494;-2.8128
3393;3396;2019/10/09 14:40:26;0;-1;-1;-1;-1;-1;130;0;0;0;0;0;0;0;0;0;0;0;0;0;0;337;140;7.09522;344.33;144.128;0;144;1;-0.39436;-0.55326;-2.83275;-0.360308;-0.5494;-2.8128;-0.6116;-0.197177;-0.379269;0.506653;0.597778;-2.98749;0;0;0;0;0.270307;-1.15326;-3.0907;0;0;0;675;1824;945;1191;1024;224;1024;1024;1024;1;4;0;0;0;0;0; ;;-0.39436;-0.55326;-2.83275;-0.360308;-0.5494;-2.8128
3394;3397;2019/10/09 14:40:26;0;-1;-1;-1;-1;-1;131;0;0;0;0;0;0;0;0;0;0;0;0;0;0;344;139;7.12662;345.774;141.823;0;145;1;-0.446042;-0.54277;-2.82391;-0.386029;-0.54741;-2.81613;-0.534818;-0.154991;-0.371063;0.902383;0.611092;-2.83284;0;0;0;0;0.215078;-1.14277;-3.08406;0;0;0;675;1824;945;1191;1024;224;1024;1024;1024;1;4;0;0;0;0;0; ;;-0.446042;-0.54277;-2.82391;-0.386029;-0.54741;-2.81613
3395;3398;2019/10/09 14:40:26;0;-1;-1;-1;-1;-1;132;0;0;0;0;0;0;0;0;0;0;0;0;0;0;346;139;6.92479;347.485;141.007;0;146;1;-0.444308;-0.57317;-2.90767;-0.403512;-0.55514;-2.84359;-0.510682;-0.142642;-0.417571;1.13593;0.625652;-2.7274;0;0;0;0;0.2546;-1.17317;-3.16658;0;0;0;675;1824;945;1191;1024;224;1024;1024;1024;1;4;0;0;0;0;0; ;;-0.444308;-0.57317;-2.90767;-0.403512;-0.55514;-2.84359
3396;3399;2019/10/09 14:40:26;0;-1;-1;-1;-1;-1;133;0;0;0;0;0;0;0;0;0;0;0;0;0;0;348;139;6.88925;349.294;140.589;0;147;1;-0.455928;-0.5787;-2.92293;-0.419237;-0.56221;-2.86739;-0.498515;-0.150855;-0.483935;1.30685;0.546378;-2.66595;0;0;0;0;0.25203;-1.1787;-3.21172;0;0;0;675;650;945;1191;1024;224;1024;1024;1024;1;4;0;0;0;0;0; ;;-0.455928;-0.5787;-2.92293;-0.419237;-0.56221;-2.86739
3397;3400;2019/10/09 14:40:26;0;-1;-1;-1;-1;-1;134;0;0;0;0;0;0;0;0;0;0;0;0;0;0;349;138;7.31159;350.821;139.991;0;148;1;-0.49418;-0.5107;-2.75497;-0.44172;-0.54676;-2.83367;-0.517493;-0.115439;-0.422192;1.31751;0.510323;-2.28613;0;0;0;0;0.219819;-1.1107;-3.0826;0;0;0;675;650;945;1191;1024;224;1024;1024;1024;1;4;0;0;0;0;0; ;;-0.49418;-0.5107;-2.75497;-0.44172;-0.54676;-2.83367
3398;3401;2019/10/09 14:40:26;0;-1;-1;-1;-1;-1;135;0;0;0;0;0;0;0;0;0;0;0;0;0;0;350;138;7.09323;352.173;139.585;0;149;1;-0.485643;-0.54181;-2.84131;-0.454897;-0.54527;-2.83596;-0.548283;-0.0638716;-0.322388;1.12636;0.636706;-1.42505;0;0;0;0;0.211905;-1.14181;-3.13806;0;0;0;675;650;945;1191;1024;224;1024;1024;1024;1;4;0;0;0;0;0; ;;-0.485643;-0.54181;-2.84131;-0.454897;-0.54527;-2.83596
3399;3402;2019/10/09 14:40:26;0;415.949;283.846;7.51318;415.949;283.846;0;1;1;0.0475999;-1.79195;-2.19601;0.0475999;-1.79195;-2.19601;0;0;0;0;0;0;352;137;6.9943;353.729;138.969;0;150;1;-0.492637;-0.55059;-2.88614;-0.466219;-0.54687;-2.85101;-0.610892;-0.0315821;-0.295162;0.677699;0.82282;-0.631151;1;0;0;0;0.181942;-1.15059;-3.12749;0;0;0;644.456;650;945;1191;1024;224;1024;1024;1024;1;4;0;56.8012;0;0;0; ;;-0.492637;-0.55059;-2.88614;-0.466219;-0.54687;-2.85101
3400;3403;2019/10/09 14:40:26;0;412.235;272.235;7.53007;415.611;282.791;0;2;1;0.0721011;-1.72372;-2.23348;0.0549503;-1.77148;-2.20725;0;0;0;0;0;0;354;137;6.94258;355.426;138.524;0;151;1;-0.503232;-0.55842;-2.90801;-0.477323;-0.55033;-2.86811;-0.73106;-0.0306133;-0.384659;-0.376948;0.990317;-0.432977;1;0;0;0;0.416267;-1.15842;-2.99691;0;0;0;644.456;650;945;1191;1024;224;1024;1024;1024;1;4;0;0.0166975;0;0;0; ;;-0.503232;-0.55842;-2.90801;-0.477323;-0.55033;-2.86811
3401;3404;2019/10/09 14:40:26;0;409.886;265.314;7.51431;414.691;279.982;0;3;1;0.0878551;-1.68899;-2.26349;0.0648217;-1.74674;-2.22412;0;0;0;0;0;0;356;136;7.0104;357.223;137.876;0;152;1;-0.522274;-0.54224;-2.88332;-0.490808;-0.54791;-2.87268;-0.787196;0.0105129;-0.346914;-1.33025;1.20572;0.0223396;1;0;0;0;0.382524;-1.14224;-2.98341;0;0;0;644.456;650;945;1191;1024;224;1024;1024;1024;1;4;0;0.0166963;0;0;0; ;;-0.522274;-0.54224;-2.88332;-0.490808;-0.54791;-2.87268
3402;3405;2019/10/09 14:40:26;0;407.647;258;7.49831;413.225;275.407;0;4;1;0.10294;-1.65197;-2.29513;0.0762572;-1.7183;-2.24543;0;0;0;0;0;0;357.333;135.333;6.99293;358.88;137.189;0;153;1;-0.530595;-0.54087;-2.89327;-0.502744;-0.5458;-2.87885;-0.805749;0.0718372;-0.253901;-2.02489;1.61261;0.931895;1;0;0;0;0.370239;-1.14087;-2.98697;0;0;0;644.456;650;1024;1024;1024;224;1024;1024;1024;1;4;0;0.0166973;0;0;0; ;;-0.530595;-0.54087;-2.89327;-0.502744;-0.5458;-2.87885
3403;3406;2019/10/09 14:40:26;0;404.424;250.909;7.49154;411.13;269.573;0;5;1;0.1245;-1.61404;-2.32323;0.09073;-1.68703;-2.26877;0;0;0;0;0;0;359;135;6.89203;360.541;136.58;0;154;1;-0.535789;-0.5541;-2.93769;-0.512658;-0.54829;-2.8965;-0.766694;0.0369854;-0.403243;-2.20996;1.57618;0.634796;1;0;0;0;0.366108;-1.1541;-3.0186;0;0;0;644.456;650;1339;1342;1024;224;1024;1024;1024;1;4;0;0.0166963;0;0;0; ;;-0.535789;-0.5541;-2.93769;-0.512658;-0.54829;-2.8965
3404;3407;2019/10/09 14:40:26;0;402.056;243.667;7.48033;408.798;262.916;0;6;1;0.140488;-1.57614;-2.35333;0.105657;-1.65376;-2.29414;0;0;0;0;0;0;361;135;6.88257;362.312;136.135;0;155;1;-0.549651;-0.55555;-2.9418;-0.523756;-0.55047;-2.91009;-0.73496;0.00145447;-0.537942;-2.07136;1.20654;-0.479799;1;0;0;0;0.361294;-1.15555;-3.03863;0;0;0;644.456;650;1303;1362;1024;224;1024;1024;1024;1;4;0;0.0166973;0;0;0; ;;-0.549651;-0.55555;-2.9418;-0.523756;-0.55047;-2.91009
3405;3408;2019/10/09 14:40:26;0;399.688;236.375;7.43233;406.344;255.768;0;7;1;0.157294;-1.54547;-2.3955;0.121148;-1.62127;-2.32455;0.73415;1.7037;-1.283;7.31982;17.3211;-12.4208;361;135;6.88257;363.943;136.173;0;156;1;-0.549651;-0.55555;-2.9418;-0.523756;-0.55047;-2.91009;-0.73496;0.00145447;-0.537942;-2.07136;1.20654;-0.479799;1;0;0;0;0.372709;-1.15555;-3.04862;0;0;0;644.456;650;1274;1358;1024;224;1024;1024;1024;1;4;0;0.0166963;0;0;0; ;;-0.549651;-0.55555;-2.9418;-0.523756;-0.55047;-2.91009
3406;3409;2019/10/09 14:40:26;0;396.516;229.032;7.37403;403.611;248.324;0;8;1;0.179998;-1.51622;-2.44181;0.138803;-1.58976;-2.35973;0.775294;1.74781;-1.37859;5.72982;12.4766;-10.2692;361;135;6.88257;365.574;136.211;0;157;1;-0.549651;-0.55555;-2.9418;-0.523756;-0.55047;-2.91009;-0.73496;0.00145447;-0.537942;-2.07136;1.20654;-0.479799;1;0;0;0;0.378673;-1.15555;-3.04426;0;0;0;644.456;650;1256;1349;1024;224;1024;1024;1024;1;4;0;0.0166973;0;0;0; ;;-0.549651;-0.55555;-2.9418;-0.523756;-0.55047;-2.91009
3407;3410;2019/10/09 14:40:26;0;394.25;222.312;7.3999;400.933;240.879;0;9;1;0.19465;-1.47311;-2.45825;0.155557;-1.55476;-2.38928;0.827461;1.81519;-1.48659;4.38108;8.81489;-8.06275;361;135;6.88257;367.205;136.248;0;158;1;-0.549651;-0.55555;-2.9418;-0.523756;-0.55047;-2.91009;-0.73496;0.00145447;-0.537942;-2.07136;1.20654;-0.479799;1;0;0;0;0.383458;-1.15555;-3.04076;0;0;0;644.456;650;1236;1365;1024;224;1024;1024;1024;1;4;0;0.0166963;0;0;0; ;;-0.549651;-0.55555;-2.9418;-0.523756;-0.55047;-2.91009
3408;3411;2019/10/09 14:40:26;0;391.613;214.903;7.4092;398.201;233.261;0;10;1;0.212166;-1.42961;-2.48265;0.17254;-1.51722;-2.41729;0.880908;1.89201;-1.57818;3.41136;6.04478;-6.04484;368;134;6.92233;369.233;135.162;0;159;1;-0.602698;-0.54347;-2.92858;-0.547438;-0.54837;-2.91564;-0.657172;-0.00311604;-0.49479;-1.36601;0.799699;-0.819264;1;0;0;0;0.337666;-1.14347;-3.02223;0;0;0;644.456;650;1271;1340;1024;224;1024;1024;1024;1;4;0;0.0166975;0;0;0; ;;-0.602698;-0.54347;-2.92858;-0.547438;-0.54837;-2.91564
3409;3412;2019/10/09 14:40:26;0;389;208;7.42113;395.437;225.664;0;11;1;0.229394;-1.38858;-2.50424;0.189596;-1.47863;-2.44338;0.923291;1.9673;-1.64408;2.27227;4.00193;-4.60943;370;134;6.76456;371.189;134.685;0;160;1;-0.608185;-0.56781;-2.99805;-0.565662;-0.5542;-2.94036;-0.629454;-0.0121576;-0.489195;-0.549138;0.528947;-0.769822;1;0;0;0;0.340176;-1.16781;-3.08693;0;0;0;644.456;1824;1271;1340;1024;224;1024;1024;1024;1;4;0;0.0166963;0;0;0; ;;-0.608185;-0.56781;-2.99805;-0.565662;-0.5542;-2.94036
3410;3413;2019/10/09 14:40:26;0;386.828;200.828;7.2813;392.776;218.004;0;12;1;0.248687;-1.37422;-2.57941;0.207323;-1.4473;-2.48419;0.959902;2.00471;-1.74527;1.62651;2.45105;-3.66776;371;133;6.94404;372.781;134.051;0;161;1;-0.625498;-0.53421;-2.92323;-0.583613;-0.5482;-2.93522;-0.624708;-0.00808307;-0.460011;0.10304;0.267868;-0.762943;1;0;0;0;0.334674;-1.13421;-3.00418;0;0;0;644.456;1824;1271;1340;1024;224;1024;1024;1024;1;4;0;0.0166973;0;0;0; ;;-0.625498;-0.53421;-2.92323;-0.583613;-0.5482;-2.93522
3411;3414;2019/10/09 14:40:26;0;385.357;193.143;7.21177;390.393;210.146;0;13;1;0.261259;-1.3431;-2.63357;0.223504;-1.41604;-2.529;0.984622;2.02226;-1.8635;1.97598;2.74255;-4.51847;373;133;6.9128;374.513;133.64;0;162;1;-0.638243;-0.53888;-2.93666;-0.600002;-0.54541;-2.93566;-0.633715;-0.00381188;-0.427209;0.519761;-0.0406497;-0.919094;1;0;0;0;0.327411;-1.13888;-3.01196;0;0;0;644.456;1824;1271;1340;1024;224;1024;1024;1024;1;4;0;0.0166963;0;0;0; ;;-0.638243;-0.53888;-2.93666;-0.600002;-0.54541;-2.93566
3412;3415;2019/10/09 14:40:26;0;384.267;185.733;7.03377;388.326;202.217;0;14;1;0.275607;-1.33322;-2.72918;0.239135;-1.3912;-2.58906;0.991373;2.00616;-2.03376;2.04834;2.67705;-5.32701;374;133;6.78166;376.005;133.36;0;163;1;-0.638605;-0.55897;-2.99442;-0.611583;-0.54948;-2.95328;-0.643556;-0.00545304;-0.407471;0.639635;-0.137356;-0.56271;1;0;0;0;0.331241;-1.15897;-3.06475;0;0;0;644.456;1824;1271;1340;1024;224;1024;1024;1024;1;4;0;0.0166973;0;0;0; ;;-0.638605;-0.55897;-2.99442;-0.611583;-0.54948;-2.95328
3413;3416;2019/10/09 14:40:26;0;383.5;179.188;6.85929;386.587;194.484;0;15;1;0.288195;-1.32739;-2.82484;0.253853;-1.37206;-2.65979;0.987294;1.9332;-2.30033;1.86718;2.07741;-6.44525;375.333;132.667;6.94165;377.441;133.057;0;164;1;-0.656519;-0.53257;-2.92557;-0.625064;-0.5444;-2.94497;-0.655806;0.0128647;-0.337329;0.594482;-0.0520407;0.196387;1;0;0;0;0.318068;-1.13257;-2.99166;0;0;0;644.456;1824;1271;1340;1024;224;1024;1024;1024;1;4;0;0.0166963;0;0;0; ;;-0.656519;-0.53257;-2.92557;-0.625064;-0.5444;-2.94497
3414;3417;2019/10/09 14:40:26;0;383.29;172.581;6.75023;385.257;186.876;0;16;1;0.294401;-1.30808;-2.89739;0.266017;-1.35286;-2.73107;0.96561;1.81614;-2.63304;1.4585;0.943541;-8.07895;377;132;7.03514;378.944;132.629;0;165;1;-0.672905;-0.5149;-2.88864;-0.639416;-0.53555;-2.92807;-0.760739;0.0588865;-0.252035;-0.0568371;0.216343;1.08712;1;0;0;0;0.327095;-1.0149;-2.93864;0;0;0;644.456;650;1271;1340;1024;224;1024;1024;1024;1;4;0;0.0166973;0;0;0; ;;-0.672905;-0.5149;-2.88864;-0.639416;-0.53555;-2.92807
3415;3418;2019/10/09 14:40:26;0;383.871;166.387;6.60176;384.464;179.481;0;17;1;0.296633;-1.29843;-2.98834;0.275202;-1.33653;-2.80825;0.92117;1.65702;-3.03669;0.866632;-0.672723;-10.4077;378;132;6.96331;380.28;132.325;0;166;1;-0.676697;-0.52537;-2.91895;-0.6506;-0.5325;-2.92533;-0.79559;0.121984;-0.0912143;-0.697461;0.665417;2.24135;1;0;0;0;0.323303;-1.02537;-2.96895;0;0;0;644.456;650;1271;1340;1024;224;1024;1024;1024;1;4;0;0.0166963;0;0;0; ;;-0.676697;-0.52537;-2.91895;-0.6506;-0.5325;-2.92533
3416;3419;2019/10/09 14:40:26;0;383.478;160.428;6.51261;383.776;172.313;0;18;1;0.303704;-1.2781;-3.05441;0.283753;-1.319;-2.8821;0.857866;1.50649;-3.41078;0.112577;-2.39291;-12.8946;380;132;6.74502;381.815;132.11;0;167;1;-0.68103;-0.55855;-3.01503;-0.659729;-0.54031;-2.95224;-0.781276;0.10469;-0.12269;-1.04363;0.849537;2.69169;1;0;0;0;0.31897;-1.05855;-3.06503;0;0;0;644.456;650;1271;1340;1024;224;1024;1024;1024;1;4;0;0.0166975;0;0;0; ;;-0.68103;-0.55855;-3.01503;-0.659729;-0.54031;-2.95224
3417;3420;2019/10/09 14:40:26;0;385.333;154.575;6.47068;383.843;165.346;0;19;1;0.291365;-1.24872;-3.09907;0.286036;-1.29792;-2.94719;0.764396;1.37554;-3.71619;-0.811762;-4.01796;-15.1341;381.556;131.111;6.92712;383.353;131.675;0;168;1;-0.700621;-0.52538;-2.93799;-0.671997;-0.53583;-2.94797;-0.756231;0.101038;-0.12277;-1.11536;0.928375;2.83059;1;0;0;0;0.299379;-1.02538;-2.98799;0;0;0;644.456;650;1271;1340;1024;224;1024;1024;1024;1;4;0;0.0166963;0;0;0; ;;-0.700621;-0.52538;-2.93799;-0.671997;-0.53583;-2.94797
3418;3421;2019/10/09 14:40:26;0;387.804;149.155;6.35368;384.652;158.659;0;20;1;0.27733;-1.23619;-3.17959;0.283424;-1.2794;-3.01691;0.635474;1.2717;-3.93802;-1.90807;-5.34329;-16.6837;383;131;6.88282;384.858;131.33;0;169;1;-0.709166;-0.53131;-2.95766;-0.683147;-0.53448;-2.95088;-0.739486;0.120519;-0.0640423;-1.05225;1.06001;3.06962;1;0;0;0;0.290834;-1.03131;-3.00766;0;0;0;644.456;650;1271;1340;1024;224;1024;1024;1024;1;4;0;0.0166973;0;0;0; ;;-0.709166;-0.53131;-2.95766;-0.683147;-0.53448;-2.95088
3419;3422;2019/10/09 14:40:26;0;390.417;144.405;6.18853;386.053;152.384;0;21;1;0.263661;-1.23721;-3.28554;0.277495;-1.26674;-3.0975;0.475683;1.18351;-4.11047;-3.18758;-6.19928;-17.2376;385;131;6.98897;386.516;131.085;0;170;1;-0.727862;-0.51565;-2.91198;-0.696562;-0.52883;-2.93921;-0.729174;0.134507;-0.0154153;-0.924298;1.12171;3.12713;1;0;0;0;0.272138;-1.01565;-2.96198;0;0;0;644.456;650;1310;641;1024;224;1024;1024;1024;1;4;0;0.0166963;0;0;0; ;;-0.727862;-0.51565;-2.91198;-0.696562;-0.52883;-2.93921
3420;3423;2019/10/09 14:40:26;0;392.493;139.178;6.10168;387.723;146.27;0;22;1;0.250432;-1.21915;-3.35586;0.269376;-1.25247;-3.17501;0.298821;1.11097;-4.23881;-4.57487;-6.53514;-16.754;385;131;6.98897;388.13;130.941;0;171;1;-0.727862;-0.51565;-2.91198;-0.696562;-0.52883;-2.93921;-0.729174;0.134507;-0.0154153;-0.924298;1.12171;3.12713;1;0.0188463;-0.164936;-0.253602;0.25053;-1.08753;-2.9214;7.59174;11.4408;7.59174;644.456;676;1087;757;1024;224;1024;1024;1024;1;4;0;0.0166973;0.0565389;-0.23091;-0.634005; ;;-0.727862;-0.51565;-2.91198;-0.696562;-0.52883;-2.93921
3421;3424;2019/10/09 14:40:26;0;395.893;135.813;5.94222;389.997;140.847;0;23;1;0.228599;-1.22829;-3.46148;0.257143;-1.24521;-3.26095;0.107188;1.03121;-4.35079;-5.99495;-6.41979;-15.2993;385;131;6.98897;389.745;130.797;0;172;1;-0.727862;-0.51565;-2.91198;-0.696562;-0.52883;-2.93921;-0.729174;0.134507;-0.0154153;-0.924298;1.12171;3.12713;1;0.0263326;-0.129567;-0.298092;0.23081;-1.11565;-2.96286;6.40752;11.0476;6.40752;644.456;674;1045;756;1024;224;1024;1024;1024;1;4;0;0.0166963;0.0789979;-0.181393;-0.74523; ;;-0.727862;-0.51565;-2.91198;-0.696562;-0.52883;-2.93921
3422;3425;2019/10/09 14:40:26;0;399.444;132.361;5.78612;392.759;135.908;0;24;1;0.204141;-1.23658;-3.57127;0.241243;-1.24262;-3.35405;-0.10542;0.923699;-4.49485;-7.44314;-6.17881;-13.508;385;131;6.98897;391.359;130.653;0;173;1;-0.727862;-0.51565;-2.91198;-0.696562;-0.52883;-2.93921;-0.729174;0.134507;-0.0154153;-0.924298;1.12171;3.12713;1;0.0111784;-0.126977;-0.391173;0.230064;-1.11565;-2.96287;4.60102;9.69711;4.60102;644.456;648;994;822;1024;224;1024;1024;1024;1;4;0;0.0166973;0.0335353;-0.177768;-0.977932; ;;-0.727862;-0.51565;-2.91198;-0.696562;-0.52883;-2.93921
3423;3426;2019/10/09 14:40:26;0;402.571;129.714;5.55705;395.746;131.575;0;25;1;0.184477;-1.26772;-3.73157;0.224213;-1.25015;-3.4673;-0.310097;0.744941;-4.7736;-8.75607;-6.2251;-12.3268;385;131;6.98897;392.974;130.509;0;174;1;-0.727862;-0.51565;-2.91198;-0.696562;-0.52883;-2.93921;-0.729174;0.134507;-0.0154153;-0.924298;1.12171;3.12713;1;-0.00386111;-0.134505;-0.504389;0.228074;-1.11565;-2.96291;2.85245;7.23624;2.85245;644.456;680;945;822;1024;224;1024;1024;1024;1;4;0;0.0166963;-0.0115833;-0.188307;-1.26097; ;;-0.727862;-0.51565;-2.91198;-0.696562;-0.52883;-2.93921
3424;3427;2019/10/09 14:40:26;0;405.6;127.343;5.55571;398.864;127.774;0;26;1;0.15732;-1.25025;-3.74421;0.204145;-1.25018;-3.55038;-0.5026;0.563625;-4.99416;-9.79769;-6.56224;-11.613;385;131;6.98897;394.588;130.365;0;175;1;-0.727862;-0.51565;-2.91198;-0.696562;-0.52883;-2.93921;-0.729174;0.134507;-0.0154153;-0.924298;1.12171;3.12713;1;-0.0222763;-0.134535;-0.587426;0.226421;-1.11565;-2.96295;1.11821;4.8786;1.11821;644.456;715;900;822;1024;224;1024;1024;1024;1;4;0;0.0166975;-0.0668288;-0.188348;-1.46856; ;;-0.727862;-0.51565;-2.91198;-0.696562;-0.52883;-2.93921
3425;3428;2019/10/09 14:40:26;0;410.667;124.116;5.51639;402.707;124.1;0;27;1;0.11261;-1.2348;-3.78698;0.176685;-1.24557;-3.62136;-0.704072;0.422731;-5.08814;-10.5891;-6.97496;-10.8714;398.533;132;6.9882;398.532;131.187;0;176;1;-0.824468;-0.52172;-2.90837;-0.734934;-0.52669;-2.92996;-0.645533;0.0999983;-0.0133591;-0.303671;0.762564;2.39609;1;0.04755;-0.12385;-0.662004;0.129135;-1.12172;-2.95935;0.588779;3.24143;0.588779;644.456;742;869;822;1024;224;1024;1024;1024;1;4;0;0.0166963;0.14265;-0.17339;-1.65501; ;;-0.824468;-0.52172;-2.90837;-0.734934;-0.52669;-2.92996
3426;3429;2019/10/09 14:40:26;0;414.067;121.833;5.52452;406.559;120.813;0;28;1;0.0817339;-1.21578;-3.79277;0.148199;-1.23663;-3.67278;-0.906271;0.316869;-5.04037;-11.1651;-7.35563;-9.72329;401;133;6.86051;401.318;131.873;0;177;1;-0.839143;-0.5468;-2.95943;-0.766196;-0.53273;-2.9388;-0.639076;0.0595008;-0.0373391;0.158668;0.321456;1.55499;1;0.0280407;-0.0898274;-0.662512;0.120159;-1.1468;-3.01027;-1.28151;2.48443;-1.28151;644.456;756;824;822;1024;224;1024;1024;1024;1;4;0;0.0166973;0.0841221;-0.125758;-1.65628; ;;-0.839143;-0.5468;-2.95943;-0.766196;-0.53273;-2.9388
3427;3430;2019/10/09 14:40:26;0;417;121;5.51486;410.267;118.263;0;29;1;0.0553357;-1.21161;-3.80357;0.12034;-1.22913;-3.71202;-1.08998;0.254354;-4.82523;-11.4791;-7.51517;-7.72829;402;134;7.00699;403.325;132.596;0;178;1;-0.849627;-0.53086;-2.8926;-0.791225;-0.53217;-2.92494;-0.669833;0.0534429;0.0370662;0.337914;0.0812618;1.28093;1;0.0084376;-0.0982622;-0.767175;0.111903;-1.13086;-2.94484;-2.76386;1.51823;-2.76386;644.456;771;824;822;1024;224;1024;1024;1024;1;4;0;0.0166963;0.0253128;-0.137567;-1.91794; ;;-0.849627;-0.53086;-2.8926;-0.791225;-0.53217;-2.92494
3428;3431;2019/10/09 14:40:26;0;420.119;120.074;5.44649;413.924;116.222;0;30;1;0.0274589;-1.21974;-3.85599;0.0924759;-1.22631;-3.75521;-1.24798;0.21774;-4.49688;-11.4494;-7.32782;-4.6451;404;134;6.83766;405.32;133.041;0;179;1;-0.860498;-0.55639;-2.96547;-0.812007;-0.53943;-2.9371;-0.706829;0.024224;0.045914;0.310341;-0.118537;1.13593;1;-0.003501;-0.0699195;-0.74215;0.0959769;-1.15639;-3.01306;-3.86156;1.55809;-3.86156;644.456;768;824;822;1024;224;1024;1024;1024;1;4;0;0.0166973;-0.010503;-0.0978873;-1.85538; ;;-0.860498;-0.55639;-2.96547;-0.812007;-0.53943;-2.9371
3429;3432;2019/10/09 14:40:26;0;424;119.308;5.09212;417.777;114.605;0;31;1;-0.00866628;-1.29836;-4.12847;0.0621332;-1.24793;-3.86719;-1.39593;0.139529;-4.29476;-11.2051;-6.81395;-0.875148;405;135;7;406.986;133.671;0;180;1;-0.870862;-0.53784;-2.8916;-0.829664;-0.53896;-2.92345;-0.743197;0.00477735;0.0872813;0.178123;-0.323197;1.01113;1;0.0117471;-0.110085;-0.930696;0.0503862;-1.13784;-2.93649;-4.32245;-0.189676;-4.32245;644.456;784;824;822;1024;224;1024;1024;1024;1;4;0;0.0166963;0.0352412;-0.154119;-2.32674; ;;-0.870862;-0.53784;-2.8916;-0.829664;-0.53896;-2.92345
3430;3433;2019/10/09 14:40:26;0;427.92;118.387;4.84602;421.781;113.245;0;32;1;-0.049471;-1.35638;-4.34336;-0.049471;-1.35638;-4.34336;0;0;0;0;0;0;406;136;6.75088;408.433;134.435;0;181;1;-0.873488;-0.58231;-2.99608;-0.842811;-0.55196;-2.94524;-0.764434;-0.0475181;0.0392338;0.0300796;-0.590351;0.725698;1;-0.0527419;-0.174076;-1.31175;0.00327086;-1.18231;-3.03161;4.24346;-3.16819;4.24346;644.456;695;1091;911;1024;224;1024;1024;1024;1;4;0;0.0166973;-0.158226;-0.243707;-3.27937; ;;-0.873488;-0.58231;-2.99608;-0.842811;-0.55196;-2.94524
3431;3434;2019/10/09 14:40:26;0;432.432;116.486;4.62769;426.077;111.765;0;33;1;-0.100462;-1.40328;-4.55956;-0.0647683;-1.37045;-4.40822;0;0;0;0;0;0;408;136;6.80091;410.047;134.977;0;182;1;-0.889093;-0.57435;-2.97367;-0.856696;-0.55868;-2.95377;-0.94484;-0.156215;-0.0715372;-1.17705;-1.37724;0.203121;1;-0.0259694;-0.196107;-1.39223;-0.0387989;-1.17435;-3.01599;6.06852;-3.56914;6.06852;644.456;693;1139;915;1024;224;1024;1024;1024;1;4;0;0.0166963;-0.0779082;-0.274549;-3.48057; ;;-0.889093;-0.57435;-2.97367;-0.856696;-0.55868;-2.95377
3432;3435;2019/10/09 14:40:26;0;435.688;114.812;4.57794;430.185;110.266;0;34;1;-0.137034;-1.4033;-4.61917;-0.086448;-1.38031;-4.4715;0;0;0;0;0;0;408;138;6.99534;411.139;136.006;0;183;1;-0.892176;-0.55639;-2.88177;-0.86734;-0.55799;-2.93217;-0.970755;-0.194607;-0.0164584;-2.03058;-1.84096;0.205246;1;0.018453;-0.223915;-1.5;-0.104901;-1.15639;-2.94788;7.1828;-4.07526;7.1828;644.456;706;1171;909;1024;224;1024;1024;1024;1;4;0;0.0166975;0.0553589;-0.313482;-3.75; ;;-0.892176;-0.55639;-2.88177;-0.86734;-0.55799;-2.93217
3433;3436;2019/10/09 14:40:26;0;438.25;114.25;4.58771;433.933;109.103;0;35;1;-0.164614;-1.39521;-4.6127;-0.109898;-1.38478;-4.51386;0;0;0;0;0;0;408;139;6.75156;411.856;137.065;0;184;1;-0.888283;-0.6007;-2.98356;-0.873623;-0.5708;-2.94759;-0.911454;-0.271036;-0.10031;-2.1831;-2.40017;-0.425378;1;-0.0148954;-0.184075;-1.4768;-0.0950024;-1.2007;-3.03706;6.06737;-3.35016;6.06737;644.456;693;1156;919;1024;224;1024;1024;1024;1;4;0;0.0166963;-0.0446863;-0.257704;-3.69199; ;;-0.888283;-0.6007;-2.98356;-0.873623;-0.5708;-2.94759
3434;3437;2019/10/09 14:40:26;0;441;113;4.60499;437.473;107.965;0;36;1;-0.193795;-1.37867;-4.60285;-0.135067;-1.38294;-4.54056;0;0;0;0;0;0;408;140;6.61733;412.301;138.145;0;185;1;-0.886017;-0.62932;-3.04094;-0.877341;-0.58836;-2.97559;-0.80774;-0.357973;-0.213897;-1.71279;-2.96616;-1.29262;1;-0.0653302;-0.15362;-1.4294;-0.0697369;-1.22932;-3.11116;4.28225;-2.79589;4.28225;644.456;680;1118;931;1024;224;1024;1024;1024;1;4;0;0.0166973;-0.19599;-0.215069;-3.5735; ;;-0.886017;-0.62932;-3.04094;-0.877341;-0.58836;-2.97559
3435;3438;2019/10/09 14:40:26;0;443.667;112.333;4.55266;440.831;107.028;0;37;1;-0.225251;-1.38841;-4.65978;-0.162122;-1.38458;-4.57632;0;0;0;0;0;0;408;140;6.61733;413.923;138.33;0;186;1;-0.886017;-0.62932;-3.04094;-0.877341;-0.58836;-2.97559;-0.80774;-0.357973;-0.213897;-1.71279;-2.96616;-1.29262;1;-0.110836;-0.155262;-1.44162;-0.051286;-1.22932;-3.1347;3.32662;-2.82577;3.32662;644.456;685;1103;932;1024;224;1024;1024;1024;1;4;0;0.0166963;-0.332509;-0.217367;-3.60405; ;;-0.886017;-0.62932;-3.04094;-0.877341;-0.58836;-2.97559
3436;3439;2019/10/09 14:40:26;0;446;111.429;4.5045;443.949;106.159;0;38;1;-0.253507;-1.39489;-4.71512;-0.189538;-1.38768;-4.61796;-1.39814;-0.312371;-2.74111;52.763;61.7201;257.303;408;144;6.75298;413.259;140.703;0;187;1;-0.888306;-0.6313;-2.96256;-0.88063;-0.60124;-2.97168;-0.659074;-0.427954;-0.293421;-0.739767;-3.26069;-2.07849;1;-0.131928;-0.156374;-1.5;-0.0576095;-1.2313;-3.0574;-7.94394;-6.90683;-7.94394;644.456;305;1223;1222;1024;224;1024;1024;1024;1;4;0;0.0166973;-0.395785;-0.218924;-3.75; ;;-0.888306;-0.6313;-2.96256;-0.88063;-0.60124;-2.97168
3437;3440;2019/10/09 14:40:26;0;447.667;110.333;4.48337;446.676;105.279;0;39;1;-0.273252;-1.3913;-4.74407;-0.214652;-1.38876;-4.6558;-1.43734;-0.260537;-2.63319;29.5771;39.356;159.379;408;145;7.11801;412.929;142.497;0;188;1;-0.894034;-0.57914;-2.80421;-0.884652;-0.59461;-2.92144;-0.538641;-0.402739;-0.0946097;0.328905;-3.17214;-1.70517;1;-0.170093;-0.209625;-1.5;-0.0445591;-1.17914;-2.92123;-9.86281;-7.20217;-9.86281;644.456;305;1222;1222;1024;224;1024;1024;1024;1;4;0;0.0166963;-0.510279;-0.293476;-3.75; ;;-0.894034;-0.57914;-2.80421;-0.884652;-0.59461;-2.92144
3438;3441;2019/10/09 14:40:26;0;449;110;4.49294;449.013;104.627;0;40;1;-0.287479;-1.38524;-4.736;-0.2365;-1.38771;-4.67986;-1.46153;-0.185873;-2.41183;17.0948;25.228;101.13;408;147;6.85639;412.717;144.354;0;189;1;-0.889991;-0.63246;-2.9051;-0.886253;-0.60597;-2.91654;-0.424343;-0.40349;0.0706487;1.9787;-2.74957;-0.536481;1;-0.233675;-0.155245;-1.5;-0.00282523;-1.23246;-2.97492;-12.1675;-5.24182;-12.1675;644.456;434;1069;1222;1024;224;1024;1024;1024;1;4;0;0.0166973;-0.701025;-0.217343;-3.75; ;;-0.889991;-0.63246;-2.9051;-0.886253;-0.60597;-2.91654
3439;3442;2019/10/09 14:40:26;0;450;109;4.48221;450.957;103.929;0;41;1;-0.299299;-1.37927;-4.75347;-0.25534;-1.38518;-4.70194;-1.45764;-0.11312;-2.19806;10.0447;15.754;62.0313;409;149;7.0644;412.871;146.286;0;190;1;-0.9002935;-0.61091;-2.8103;-0.890465;-0.60745;-2.88467;-0.333752;-0.411361;0.204962;3.36734;-2.39157;0.435913;1;-0.262382;-0.174269;-1.5;0.00704186;-1.21091;-2.84488;-13.3772;-4.64226;-13.3772;644.456;512;914;1110;1024;224;1024;1024;1024;1;4;0;0.0166963;-0.787145;-0.243977;-3.75; ;;-0.9002935;-0.61091;-2.8103;-0.890465;-0.60745;-2.88467
3440;3443;2019/10/09 14:40:26;0;452;109;4.47155;452.932;103.512;0;42;1;-0.322332;-1.38256;-4.7648;-0.275437;-1.38439;-4.7208;-1.43505;-0.0736477;-2.0385;6.31566;8.72;35.4636;408;150;6.9964;412.615;147.963;0;191;1;-0.892192;-0.62766;-2.83418;-0.890983;-0.61351;-2.86952;-0.259667;-0.392978;0.390149;4.2511;-1.85228;1.94011;1;-0.310823;-0.156733;-1.5;0.0353855;-1.22766;-2.8397;-14.755;-3.80996;-14.755;644.456;604;821;996;1024;224;1024;1024;1024;1;4;0;0.0166975;-0.932469;-0.219426;-3.75; ;;-0.892192;-0.62766;-2.83418;-0.890983;-0.61351;-2.86952
3441;3444;2019/10/09 14:40:26;0;453.667;108.333;4.50811;454.82;103.088;0;43;1;-0.338166;-1.36519;-4.73023;-0.294256;-1.37863;-4.72363;-1.38877;-0.020402;-1.81143;4.71463;5.54319;22.5994;408;152;7.16171;412.382;149.786;0;192;1;-0.894681;-0.61326;-2.75992;-0.892093;-0.61343;-2.83664;-0.206301;-0.321627;0.709767;4.6096;-0.986945;4.32611;1;-0.340853;-0.165373;-1.5;0.0465974;-1.21326;-2.72169;-15.4352;-3.27502;-15.4352;644.456;639;821;932;1024;224;1024;1024;1024;1;4;0;0.0166653;-1.02256;-0.231522;-3.75; ;;-0.894681;-0.61326;-2.75992;-0.892093;-0.61343;-2.83664
3442;3445;2019/10/09 14:40:26;0;455;108;4.50757;456.546;102.755;0;44;1;-0.352967;-1.36227;-4.73283;-0.311869;-1.37372;-4.72639;-1.32186;0.0434987;-1.5199;3.13344;4.74727;18.4372;408;154;7.21823;412.166;151.719;0;193;1;-0.895505;-0.61608;-2.7303;-0.893116;-0.61423;-2.80474;-0.173651;-0.244838;1.09265;4.70459;0.139219;8.13177;1;-0.365943;-0.157644;-1.5;0.0540737;-1.21608;-2.60683;-15.7223;-2.30364;-15.7223;644.456;637;821;897;1024;224;1024;1024;1024;1;4;0;0.016697;-1.09783;-0.220702;-3.75; ;;-0.895505;-0.61608;-2.7303;-0.893116;-0.61423;-2.80474
3443;3446;2019/10/09 14:40:26;0;456;107;4.49037;458.043;102.277;0;45;1;-0.365432;-1.35822;-4.75708;-0.327938;-1.36907;-4.7356;-1.24558;0.104755;-1.23067;2.64593;4.30735;16.664;408;155;7.13414;411.961;153.41;0;194;1;-0.894274;-0.63507;-2.75922;-0.893464;-0.62048;-2.79108;-0.139387;-0.250224;1.17625;4.41742;0.692694;9.95501;1;-0.387473;-0.134001;-1.5;0.0595351;-1.23507;-2.51858;-15.8803;-1.07699;-15.8803;644.456;626;821;889;1024;224;1024;1024;1024;1;4;0;0.0166963;-1.16242;-0.187601;-3.75; ;;-0.894274;-0.63507;-2.75922;-0.893464;-0.62048;-2.79108
3444;3447;2019/10/09 14:40:26;0;458;106.571;4.46428;459.693;101.873;0;46;1;-0.389922;-1.36215;-4.78751;-0.346533;-1.36699;-4.75117;-1.18682;0.145581;-1.02323;2.68473;3.90825;15.5445;408;157;7.30947;411.764;155.245;0;195;1;-0.89681;-0.61924;-2.68431;-0.894467;-0.62011;-2.75905;-0.11644;-0.206613;1.33477;3.88025;1.20197;11.022;1;-0.409761;-0.147758;-1.5;0.0632279;-1.21924;-2.39708;-16.0977;-0.796639;-16.0977;644.456;628;821;883;1024;224;1024;1024;1024;1;4;0;0.016697;-1.22928;-0.206861;-3.75; ;;-0.89681;-0.61924;-2.68431;-0.894467;-0.62011;-2.75905
3445;3448;2019/10/09 14:40:26;0;460;106;4.43826;461.453;101.475;0;47;1;-0.414694;-1.36478;-4.81912;-0.366981;-1.36633;-4.77155;-1.15799;0.16262;-0.891981;2.80762;3.44626;14.5433;408;157;7.30947;412.776;155.983;0;196;1;-0.89681;-0.61924;-2.68431;-0.894467;-0.62011;-2.75905;-0.11644;-0.206613;1.33477;3.88025;1.20197;11.022;1;-0.434841;-0.147092;-1.5;0.06786;-1.21924;-2.32932;-16.4225;-0.56302;-16.4225;644.456;630;821;884;1024;224;1024;1024;1024;1;4;0;0.0166963;-1.30452;-0.205929;-3.75; ;;-0.89681;-0.61924;-2.68431;-0.894467;-0.62011;-2.75905
3446;3449;2019/10/09 14:40:26;0;461.667;105.667;4.44473;463.188;101.154;0;48;1;-0.432802;-1.35967;-4.81418;-0.386728;-1.36433;-4.78434;-1.13929;0.177684;-0.788987;2.86582;3.07159;13.7166;408;159;7.19687;411.945;157.886;0;197;1;-0.895195;-0.64832;-2.71946;-0.894686;-0.62857;-2.74717;-0.084312;-0.196278;1.27155;3.18207;1.45749;10.2645;1;-0.456719;-0.11601;-1.5;0.0699914;-1.24832;-2.37039;-16.976;0.198499;-16.976;644.456;626;821;889;1024;224;1024;1024;1024;1;4;0;0.0166973;-1.37016;-0.162415;-3.75; ;;-0.895195;-0.64832;-2.71946;-0.894686;-0.62857;-2.74717
3447;3450;2019/10/09 14:40:26;0;462.333;105.667;4.40823;464.586;100.993;0;49;1;-0.443932;-1.37093;-4.85403;-0.403889;-1.36631;-4.80525;-1.12132;0.155797;-0.799291;2.78738;2.54648;12.2712;408;160;7.26783;411.487;159.42;0;198;1;-0.896219;-0.64284;-2.68863;-0.895146;-0.63285;-2.72961;-0.064836;-0.183977;1.2419;2.57623;1.58998;9.07459;1;-0.482037;-0.123471;-1.5;0.0781477;-1.24284;-2.35204;-17.5182;-0.221824;-17.5182;644.456;638;821;890;1024;224;1024;1024;1024;1;4;0;0.016696;-1.44611;-0.17286;-3.75; ;;-0.896219;-0.64284;-2.68863;-0.895146;-0.63285;-2.72961
3448;3451;2019/10/09 14:40:26;0;464;106;4.34495;466.058;101.051;0;50;1;-0.469539;-1.39409;-4.92262;-0.423584;-1.37464;-4.84046;-1.11885;0.0897958;-0.935043;2.48302;1.71274;9.69795;408;162;7.37957;411.188;161.108;0;199;1;-0.89779;-0.63682;-2.63971;-0.895939;-0.63404;-2.70264;-0.0520655;-0.180914;1.20375;2.0736;1.43557;7.13539;1;-0.505212;-0.137824;-1.5;0.0816279;-1.23682;-2.29547;-18.0769;-1.34105;-18.0769;644.456;663;821;887;1024;224;1024;1024;1024;1;4;0;0.0166973;-1.51564;-0.192954;-3.75; ;;-0.89779;-0.63682;-2.63971;-0.895939;-0.63404;-2.70264
3449;3452;2019/10/09 14:40:26;0;465;106;4.30678;467.371;101.16;0;51;1;-0.485286;-1.40644;-4.96624;-0.442094;-1.38418;-4.87819;-1.12711;-0.00646782;-1.1304;1.96284;0.583552;6.21912;408;162;7.20022;410.966;162.258;0;200;1;-0.895244;-0.66514;-2.70671;-0.89573;-0.64337;-2.70386;-0.0401857;-0.208291;1.0675;1.70094;0.986425;4.19517;1;-0.530673;-0.119046;-1.5;0.0885788;-1.26514;-2.38269;-18.7526;-2.25072;-18.7526;644.456;690;821;887;1024;224;1024;1024;1024;1;4;0;0.016696;-1.59202;-0.166664;-3.75; ;;-0.895244;-0.66514;-2.70671;-0.89573;-0.64337;-2.70386
3450;3453;2019/10/09 14:40:26;0;466.4;106.8;4.25495;468.698;101.557;0;52;1;-0.507616;-1.4314;-5.02157;-0.461751;-1.39835;-4.92121;-1.13631;-0.129076;-1.35716;1.3794;-0.746518;2.39813;409;164;7.32104;411.108;163.692;0;201;1;-0.9037887;-0.65729;-2.65371;-0.898148;-0.64755;-2.68882;-0.0401432;-0.217605;0.990512;1.36022;0.703492;1.88143;1;-0.545361;-0.141064;-1.5;0.08361;-1.25729;-2.36896;-19.1257;-4.24535;-19.1257;644.456;733;821;881;1024;224;1024;1024;1024;1;4;0;0.0166973;-1.63608;-0.19749;-3.75; ;;-0.9037887;-0.65729;-2.65371;-0.898148;-0.64755;-2.68882
3451;3454;2019/10/09 14:40:26;0;468;108;4.26813;470.098;102.288;0;53;1;-0.524755;-1.43869;-4.99834;-0.480652;-1.41045;-4.94435;-1.13565;-0.253623;-1.50423;0.916854;-2.10989;-1.0057;409;164;7.37289;411.18;164.686;0;202;1;-0.9044654;-0.64915;-2.63469;-0.9000431;-0.64803;-2.67258;-0.0431686;-0.226113;0.890266;1.0669;0.355355;-0.39244;1;-0.563853;-0.161307;-1.5;0.0832007;-1.24915;-2.38036;-19.4883;-6.23288;-19.4883;644.456;776;821;877;1024;224;1024;1024;1024;1;4;0;0.0166963;-1.69156;-0.22583;-3.75; ;;-0.9044654;-0.64915;-2.63469;-0.9000431;-0.64803;-2.67258
3452;3455;2019/10/09 14:40:27;0;468.4;108.8;4.184;471.17;103.13;0;54;1;-0.540076;-1.47558;-5.09358;-0.498479;-1.42999;-4.98912;-1.12759;-0.414343;-1.72017;0.596833;-3.62979;-4.32144;409;165;7.2756;411.203;165.686;0;203;1;-0.9031878;-0.67024;-2.66682;-0.9009865;-0.65469;-2.67085;-0.0510595;-0.239954;0.838915;0.772916;0.0388208;-1.96294;1;-0.582047;-0.159755;-1.5;0.0835682;-1.27024;-2.44368;-19.7587;-8.294;-19.7587;644.456;823;821;871;1024;224;1024;1024;1024;1;4;0;0.016697;-1.74614;-0.223657;-3.75; ;;-0.9031878;-0.67024;-2.66682;-0.9009865;-0.65469;-2.67085
3453;3456;2019/10/09 14:40:27;0;468.4;108.8;4.184;472.759;101.987;1;0;1;-0.540076;-1.47558;-5.09358;-0.498479;-1.42999;-4.98912;-1.12759;-0.414343;-1.72017;0.596833;-3.62979;-4.32144;409;166;7.31849;411.189;166.69;0;204;1;-0.9037552;-0.66907;-2.64713;-0.9018171;-0.659;-2.66374;-0.0572744;-0.248391;0.766385;0.493942;-0.233907;-3.07643;1;-0.579106;-0.160924;-1.5;0.0806273;-1.26907;-2.44054;-19.6535;-8.31528;-19.6535;644.456;823;821;876;1024;224;1024;1024;1024;1;4;0;0.016697;-1.73732;-0.225294;-3.75; ;;-0.9037552;-0.66907;-2.64713;-0.9018171;-0.659;-2.66374
3454;3457;2019/10/09 14:40:27;0;468.4;108.8;4.184;474.348;100.845;2;0;1;-0.540076;-1.47558;-5.09358;-0.498479;-1.42999;-4.98912;-1.12759;-0.414343;-1.72017;0.596833;-3.62979;-4.32144;409;166;7.31849;411.848;167.599;0;205;1;-0.9037552;-0.66907;-2.64713;-0.9018171;-0.659;-2.66374;-0.0572744;-0.248391;0.766385;0.493942;-0.233907;-3.07643;1;-0.577462;-0.160924;-1.5;0.0789827;-1.26907;-2.46615;-19.6189;-8.31528;-19.6189;644.456;823;821;876;1024;224;1024;1024;1024;1;4;0;0.016697;-1.73239;-0.225294;-3.75; ;;-0.9037552;-0.66907;-2.64713;-0.9018171;-0.659;-2.66374
3455;3458;2019/10/09 14:40:27;0;468.4;108.8;4.184;475.937;99.7026;3;0;1;-0.540076;-1.47558;-5.09358;-0.498479;-1.42999;-4.98912;-1.12759;-0.414343;-1.72017;0.596833;-3.62979;-4.32144;409;169;7.16649;411.408;169.048;0;206;1;-0.9017139;-0.7113;-2.69283;-0.9017862;-0.67469;-2.67246;-0.0543768;-0.288155;0.563114;0.288455;-0.507372;-4.03842;1;-0.579829;-0.118696;-1.5;0.0813501;-1.3113;-2.51621;-19.6889;-7.54673;-19.6889;644.456;813;821;884;1024;224;1024;1024;1024;1;4;0;0.016697;-1.73949;-0.166174;-3.75; ;;-0.9017139;-0.7113;-2.69283;-0.9017862;-0.67469;-2.67246
3456;3459;2019/10/09 14:40:27;0;470;116;4.22929;474.565;106.688;0;1;1;-0.553171;-1.53068;-4.99223;-0.514887;-1.4602;-4.99005;-0.972017;-0.49852;-1.52402;0.755526;-3.91957;-4.522;409;171;6.94017;411.171;170.668;0;207;1;-0.898509;-0.7628;-2.77435;-0.9008029;-0.70112;-2.70303;-0.0499865;-0.370547;0.340713;0.13953;-0.859736;-4.91046;1;-0.601898;-0.0973989;-1.5;0.0870114;-1.3628;-2.6744;-19.0941;-8.25343;-19.0941;644.456;826;821;896;1024;224;1024;1024;1024;1;4;0;0.0667869;-1.80569;-0.136358;-3.75; ;;-0.898509;-0.7628;-2.77435;-0.9008029;-0.70112;-2.70303
3457;3460;2019/10/09 14:40:27;0;470.571;118;4.31721;474.428;110.426;0;2;1;-0.548511;-1.5188;-4.87783;-0.524974;-1.47778;-4.95639;-0.853098;-0.573641;-1.22299;1.16071;-4.11773;-3.47969;409;173;7.02311;411.017;172.413;0;208;1;-0.899707;-0.75974;-2.73317;-0.9004743;-0.71871;-2.71207;-0.0379538;-0.465885;0.124834;0.0912114;-1.36558;-5.90904;1;-0.612883;-0.118034;-1.5;0.0879093;-1.35974;-2.69876;-18.5766;-9.60554;-18.5766;644.456;847;821;913;1024;224;1024;1024;1024;1;4;0;0.016696;-1.83865;-0.165247;-3.75; ;;-0.899707;-0.75974;-2.73317;-0.9004743;-0.71871;-2.71207
3458;3461;2019/10/09 14:40:27;0;470.571;118;4.31721;475.827;109.81;1;0;1;-0.548511;-1.5188;-4.87783;-0.524974;-1.47778;-4.95639;-0.853098;-0.573641;-1.22299;1.16071;-4.11773;-3.47969;409;175;7.20807;410.9;174.255;0;209;1;-0.9022808;-0.73897;-2.65413;-0.9010162;-0.72479;-2.69469;-0.0261026;-0.542248;-0.000768512;0.113134;-1.9013;-6.59495;1;-0.613391;-0.138804;-1.5;0.0884171;-1.33897;-2.67353;-18.6702;-9.98356;-18.6702;644.456;851;821;919;1024;224;1024;1024;1024;1;4;0;0.016696;-1.84017;-0.194326;-3.75; ;;-0.9022808;-0.73897;-2.65413;-0.9010162;-0.72479;-2.69469
3459;3462;2019/10/09 14:40:27;0;470.571;118;4.31721;477.227;109.193;2;0;1;-0.548511;-1.5188;-4.87783;-0.524974;-1.47778;-4.95639;-0.853098;-0.573641;-1.22299;1.16071;-4.11773;-3.47969;409;177;7.28448;410.801;176.174;0;210;1;-0.9033059;-0.73741;-2.61821;-0.9017031;-0.72857;-2.67175;-0.0181141;-0.578221;-0.00352513;0.180636;-2.2985;-6.84021;1;-0.615314;-0.140367;-1.5;0.0903406;-1.33741;-2.6684;-18.7665;-10.012;-18.7665;644.456;851;821;920;1024;224;1024;1024;1024;1;4;0;0.016696;-1.84594;-0.196514;-3.75; ;;-0.9033059;-0.73741;-2.61821;-0.9017031;-0.72857;-2.67175
3460;3463;2019/10/09 14:40:27;0;470.571;118;4.31721;478.627;108.577;3;0;1;-0.548511;-1.5188;-4.87783;-0.524974;-1.47778;-4.95639;-0.853098;-0.573641;-1.22299;1.16071;-4.11773;-3.47969;408;180;7.36207;410.39;178.473;0;211;1;-0.897547;-0.74134;-2.57889;-0.9004563;-0.7324;-2.64389;-0.00621096;-0.598144;0.0658109;0.283144;-2.57611;-6.50181;1;-0.622954;-0.136439;-1.5;0.0979798;-1.34134;-2.62976;-19.0102;-9.94051;-19.0102;644.456;851;821;917;1024;224;1024;1024;1024;1;4;0;0.016696;-1.86886;-0.191014;-3.75; ;;-0.897547;-0.74134;-2.57889;-0.9004563;-0.7324;-2.64389
3461;3464;2019/10/09 14:40:27;0;470.571;118;4.31721;480.027;107.961;4;0;1;-0.548511;-1.5188;-4.87783;-0.524974;-1.47778;-4.95639;-0.853098;-0.573641;-1.22299;1.16071;-4.11773;-3.47969;407;181;7.26832;409.755;180.405;0;212;1;-0.88936;-0.76308;-2.60901;-0.897127;-0.74161;-2.63343;0.0148753;-0.626072;0.195362;0.446403;-2.89494;-5.36948;1;-0.634083;-0.114698;-1.5;0.109109;-1.36308;-2.64279;-19.3916;-9.54484;-19.3916;644.456;846;821;910;1024;224;1024;1024;1024;1;4;0;0.016696;-1.90225;-0.160578;-3.75; ;;-0.88936;-0.76308;-2.60901;-0.897127;-0.74161;-2.63343
3462;3465;2019/10/09 14:40:27;0;477.75;138.25;4.05611;481.426;107.344;5;0;1;-0.548511;-1.5188;-4.87783;-0.524974;-1.47778;-4.95639;-0.853098;-0.573641;-1.22299;1.16071;-4.11773;-3.47969;406.667;183.333;7.4147;409.17;182.499;0;213;1;-0.889301;-0.75125;-2.54787;-0.89478;-0.7445;-2.60776;0.032976;-0.548837;0.497632;0.599102;-2.44885;-2.59513;1;-0.639529;-0.12653;-1.5;0.114555;-1.35125;-2.54722;-19.6326;-9.76017;-19.6326;644.456;848;821;893;1024;224;1024;1024;1024;1;4;0;0.016696;-1.91859;-0.177142;-3.75; ;;-0.889301;-0.75125;-2.54787;-0.89478;-0.7445;-2.60776
3463;3466;2019/10/09 14:40:27;0;479;139;3.80899;482.826;106.728;6;0;1;-0.548511;-1.5188;-4.87783;-0.524974;-1.47778;-4.95639;-0.853098;-0.573641;-1.22299;1.16071;-4.11773;-3.47969;406;186;7.41576;408.518;184.816;0;214;1;-0.884831;-0.76604;-2.53761;-0.891795;-0.75096;-2.58671;0.054441;-0.458084;0.799123;0.728383;-1.43816;1.13528;1;-0.649276;-0.111734;-1.5;0.124302;-1.36604;-2.44978;-19.9876;-9.49088;-19.9876;644.456;845;821;873;1024;224;1024;1024;1024;1;4;0;0.016696;-1.94783;-0.156427;-3.75; ;;-0.884831;-0.76604;-2.53761;-0.891795;-0.75096;-2.58671
3464;3467;2019/10/09 14:40:27;0;480;137;3.682;484.226;106.111;7;0;1;-0.548511;-1.5188;-4.87783;-0.524974;-1.47778;-4.95639;-0.853098;-0.573641;-1.22299;1.16071;-4.11773;-3.47969;406;186;7.34702;408.03;186.442;0;215;1;-0.883753;-0.77789;-2.56182;-0.889383;-0.75904;-2.57925;0.0791168;-0.411614;0.940424;0.85716;-0.341288;4.43925;1;-0.657149;-0.0998881;-1.5;0.132175;-1.37789;-2.37801;-20.3256;-9.27529;-20.3256;644.456;842;821;858;1024;224;1024;1024;1024;1;4;0;0.016696;-1.97145;-0.139843;-3.75; ;;-0.883753;-0.77789;-2.56182;-0.889383;-0.75904;-2.57925
3465;3468;2019/10/09 14:40:27;0;480;137;3.682;485.625;105.495;8;0;1;-0.548511;-1.5188;-4.87783;-0.524974;-1.47778;-4.95639;-0.853098;-0.573641;-1.22299;1.16071;-4.11773;-3.47969;406;188;7.36612;407.663;188.204;0;216;1;-0.884055;-0.78588;-2.54758;-0.887784;-0.76709;-2.56975;0.103047;-0.400765;0.971521;0.998077;0.50379;6.5568;1;-0.66493;-0.0918958;-1.5;0.139956;-1.38588;-2.31218;-20.6565;-9.12983;-20.6565;644.456;840;821;849;1024;224;1024;1024;1024;1;4;0;0.016696;-1.99479;-0.128654;-3.75; ;;-0.884055;-0.78588;-2.54758;-0.887784;-0.76709;-2.56975
3466;3469;2019/10/09 14:40:27;0;480;137;3.682;487.025;104.879;9;0;1;-0.548511;-1.5188;-4.87783;-0.524974;-1.47778;-4.95639;-0.853098;-0.573641;-1.22299;1.16071;-4.11773;-3.47969;405;189;7.25172;407.065;189.744;0;217;1;-0.875345;-0.81191;-2.58477;-0.884052;-0.78054;-2.57425;0.127327;-0.432652;0.860954;1.13205;0.963064;7.109;1;-0.68068;-0.0658672;-1.5;0.155706;-1.41191;-2.34202;-21.1573;-8.65611;-21.1573;644.456;834;821;850;1024;224;1024;1024;1024;1;4;0;0.016696;-2.04204;-0.0922141;-3.75; ;;-0.875345;-0.81191;-2.58477;-0.884052;-0.78054;-2.57425
3467;3470;2019/10/09 14:40:27;0;486.4;134.8;4.17938;-1;-1;10;0;0;0;0;0;0;0;0;0;0;0;0;0;0;404;191;7.26666;406.302;191.442;0;218;1;-0.868734;-0.82067;-2.57179;-0.879457;-0.79258;-2.57351;0.146953;-0.463117;0.755795;1.2066;1.2285;6.50315;0;-0.68068;-0.0658672;-1.5;0.177806;-1.42067;-2.30709;-21.1573;-8.65611;-21.1573;644.456;224;1024;1024;1024;224;1024;1024;1024;1;4;0;0;-2.04204;-0.0922141;-3.75; ;;-0.868734;-0.82067;-2.57179;-0.879457;-0.79258;-2.57351
3468;3471;2019/10/09 14:40:27;0;486.4;134.8;4.17938;-1;-1;11;0;0;0;0;0;0;0;0;0;0;0;0;0;0;403;191;7.39492;405.421;192.616;0;219;1;-0.864263;-0.79777;-2.52631;-0.874899;-0.79414;-2.55935;0.167554;-0.476065;0.646749;1.26131;1.02767;4.49729;0;-0.68068;-0.0658672;-1.5;0.187186;-1.39777;-2.31171;-21.1573;-8.65611;-21.1573;644.456;224;1024;1024;1024;224;1024;1024;1024;1;4;0;0;-2.04204;-0.0922141;-3.75; ;;-0.864263;-0.79777;-2.52631;-0.874899;-0.79414;-2.55935
3469;3472;2019/10/09 14:40:27;0;-1;-1;-1;-1;-1;11;0;0;0;0;0;0;0;0;0;0;0;0;0;0;402;193;7.39316;404.456;194.047;0;220;1;-0.857481;-0.80934;-2.51949;-0.869673;-0.7987;-2.54739;0.188861;-0.476241;0.545046;1.29351;0.544101;1.68387;0;-0.68068;-0.0658672;-1.5;0.199651;-1.40934;-2.34896;-21.1573;-8.65611;-21.1573;644.456;224;1024;1024;1024;224;1024;1024;1024;1;4;0;0;-2.04204;-0.0922141;-3.75; ;;-0.857481;-0.80934;-2.51949;-0.869673;-0.7987;-2.54739
3470;3473;2019/10/09 14:40:27;0;-1;-1;-1;-1;-1;11;0;0;0;0;0;0;0;0;0;0;0;0;0;0;400.667;194.667;7.40124;403.326;195.559;0;221;1;-0.848647;-0.81729;-2.51049;-0.863366;-0.80428;-2.53632;0.2172;-0.466364;0.498407;1.32746;0.107848;-0.754598;0;-0.68068;-0.0658672;-1.5;0.214185;-1.41729;-2.37916;-21.1573;-8.65611;-21.1573;644.456;224;1024;1024;1024;224;1024;1024;1024;1;4;0;0;-2.04204;-0.0922141;-3.75; ;;-0.848647;-0.81729;-2.51049;-0.863366;-0.80428;-2.53632
3471;3474;2019/10/09 14:40:27;0;-1;-1;-1;-1;-1;11;0;0;0;0;0;0;0;0;0;0;0;0;0;0;399;197;7.45272;401.972;197.341;0;222;1;-0.838533;-0.82123;-2.4842;-0.855916;-0.80936;-2.52069;0.257567;-0.448595;0.494933;1.41346;-0.126273;-2.35572;0;-0.68068;-0.0658672;-1.5;0.232611;-1.42123;-2.37095;-21.1573;-8.65611;-21.1573;644.456;224;1024;1024;1024;224;1024;1024;1024;1;4;0;0;-2.04204;-0.0922141;-3.75; ;;-0.838533;-0.82123;-2.4842;-0.855916;-0.80936;-2.52069
3472;3475;2019/10/09 14:40:27;0;-1;-1;-1;-1;-1;11;0;0;0;0;0;0;0;0;0;0;0;0;0;0;397;198;7.48621;400.351;198.894;0;223;1;-0.825925;-0.82088;-2.46919;-0.846919;-0.81282;-2.50524;0.302811;-0.398047;0.572531;1.54876;0.0624111;-2.56507;0;-0.68068;-0.0658672;-1.5;0.25838;-1.42088;-2.35719;-21.1573;-8.65611;-21.1573;644.456;224;1024;1024;1024;224;1024;1024;1024;1;4;0;0;-2.04204;-0.0922141;-3.75; ;;-0.825925;-0.82088;-2.46919;-0.846919;-0.81282;-2.50524
3473;3476;2019/10/09 14:40:27;0;-1;-1;-1;-1;-1;11;0;0;0;0;0;0;0;0;0;0;0;0;0;0;396;200;7.46623;398.86;200.599;0;224;1;-0.818776;-0.83557;-2.46857;-0.838476;-0.81964;-2.49424;0.34532;-0.346895;0.660061;1.72131;0.501507;-1.9213;0;-0.68068;-0.0658672;-1.5;0.282865;-1.43557;-2.32639;-21.1573;-8.65611;-21.1573;644.456;224;1024;1024;1024;224;1024;1024;1024;1;4;0;0;-2.04204;-0.0922141;-3.75; ;;-0.818776;-0.83557;-2.46857;-0.838476;-0.81964;-2.49424
3474;3477;2019/10/09 14:40:27;0;-1;-1;-1;-1;-1;11;0;0;0;0;0;0;0;0;0;0;0;0;0;0;394.667;202.667;7.51893;397.358;202.626;0;225;1;-0.811197;-0.84098;-2.44116;-0.830292;-0.82604;-2.47831;0.385301;-0.335544;0.719618;1.90223;0.86199;-0.861824;0;-0.68068;-0.0658672;-1.5;0.306792;-1.44098;-2.26563;-21.1573;-8.65611;-21.1573;644.456;224;1024;1024;1024;224;1024;1024;1024;1;4;0;0;-2.04204;-0.0922141;-3.75; ;;-0.811197;-0.84098;-2.44116;-0.830292;-0.82604;-2.47831
3475;3478;2019/10/09 14:40:27;0;-1;-1;-1;-1;-1;11;0;0;0;0;0;0;0;0;0;0;0;0;0;0;393;204;7.37501;395.745;204.46;0;226;1;-0.796236;-0.87468;-2.48481;-0.820075;-0.84063;-2.48026;0.429221;-0.368771;0.699821;2.10107;0.946309;0.100906;0;-0.68068;-0.0658672;-1.5;0.340425;-1.47468;-2.27957;-21.1573;-8.65611;-21.1573;644.456;224;1024;1024;1024;224;1024;1024;1024;1;4;0;0;-2.04204;-0.0922141;-3.75; ;;-0.796236;-0.87468;-2.48481;-0.820075;-0.84063;-2.48026
3476;3479;2019/10/09 14:40:27;0;-1;-1;-1;-1;-1;11;0;0;0;0;0;0;0;0;0;0;0;0;0;0;391;206;7.59734;393.948;206.367;0;227;1;-0.789063;-0.84541;-2.40339;-0.810771;-0.84207;-2.4572;0.467535;-0.372159;0.735823;2.2602;0.943937;1.00852;0;-0.68068;-0.0658672;-1.5;0.35901;-1.44541;-2.21197;-21.1573;-8.65611;-21.1573;644.456;224;1024;1024;1024;224;1024;1024;1024;1;4;0;0;-2.04204;-0.0922141;-3.75; ;;-0.789063;-0.84541;-2.40339;-0.810771;-0.84207;-2.4572
3477;3480;2019/10/09 14:40:27;0;-1;-1;-1;-1;-1;11;0;0;0;0;0;0;0;0;0;0;0;0;0;0;390;208;7.74168;392.339;208.324;0;228;1;-0.78655;-0.83108;-2.35054;-0.803505;-0.83877;-2.4252;0.489792;-0.340725;0.822747;2.28337;0.997076;1.91404;0;-0.68068;-0.0658672;-1.5;0.373911;-1.43108;-2.14801;-21.1573;-8.65611;-21.1573;644.456;224;1024;1024;1024;224;1024;1024;1024;1;4;0;0;-2.04204;-0.0922141;-3.75; ;;-0.78655;-0.83108;-2.35054;-0.803505;-0.83877;-2.4252
3478;3481;2019/10/09 14:40:27;0;-1;-1;-1;-1;-1;11;0;0;0;0;0;0;0;0;0;0;0;0;0;0;388.667;209.333;7.82975;390.763;210.106;0;229;1;-0.780453;-0.8232;-2.31886;-0.79659;-0.8341;-2.3933;0.494833;-0.289416;0.940599;2.13675;1.032;2.61808;0;-0.68068;-0.0658672;-1.5;0.389629;-1.4232;-2.08316;-21.1573;-8.65611;-21.1573;644.456;224;1024;1024;1024;224;1024;1024;1024;1;4;0;0;-2.04204;-0.0922141;-3.75; ;;-0.780453;-0.8232;-2.31886;-0.79659;-0.8341;-2.3933
3479;3482;2019/10/09 14:40:27;0;-1;-1;-1;-1;-1;11;0;0;0;0;0;0;0;0;0;0;0;0;0;0;388.667;209.333;7.82975;390.308;211.579;0;230;1;-0.780453;-0.8232;-2.31886;-0.79659;-0.8341;-2.3933;0.494833;-0.289416;0.940599;2.13675;1.032;2.61808;0;-0.68068;-0.0658672;-1.5;0.396302;-1.4232;-2.03288;-21.1573;-8.65611;-21.1573;644.456;224;1024;1024;1024;224;1024;1024;1024;1;4;0;0;-2.04204;-0.0922141;-3.75; ;;-0.780453;-0.8232;-2.31886;-0.79659;-0.8341;-2.3933
3480;3483;2019/10/09 14:40:27;0;-1;-1;-1;-1;-1;11;0;0;0;0;0;0;0;0;0;0;0;0;0;0;387;211;7.80837;388.576;212.829;0;231;1;-0.769201;-0.83571;-2.31948;-0.788373;-0.83458;-2.37116;0.468374;-0.224785;0.985602;1.70319;1.03712;2.68499;0;-0.68068;-0.0658672;-1.5;0.408029;-1.43571;-2.03259;-21.1573;-8.65611;-21.1573;644.456;224;1024;1024;1024;224;1024;1024;1024;1;4;0;0;-2.04204;-0.0922141;-3.75; ;;-0.769201;-0.83571;-2.31948;-0.788373;-0.83458;-2.37116
3481;3484;2019/10/09 14:40:27;0;-1;-1;-1;-1;-1;11;0;0;0;0;0;0;0;0;0;0;0;0;0;0;386;212;7.66078;387.158;214.001;0;232;1;-0.758241;-0.86688;-2.36154;-0.779334;-0.84427;-2.36827;0.455429;-0.197264;0.967982;1.26193;1.09553;2.46102;0;-0.68068;-0.0658672;-1.5;0.413965;-1.46688;-2.04917;-21.1573;-8.65611;-21.1573;644.456;224;1024;1024;1024;224;1024;1024;1024;1;4;0;0;-2.04204;-0.0922141;-3.75; ;;-0.758241;-0.86688;-2.36154;-0.779334;-0.84427;-2.36827
3482;3485;2019/10/09 14:40:27;0;-1;-1;-1;-1;-1;11;0;0;0;0;0;0;0;0;0;0;0;0;0;0;386.667;212.667;7.58939;386.443;215.004;0;233;1;-0.76035;-0.8834;-2.38181;-0.773639;-0.85601;-2.37233;0.432185;-0.170989;0.950175;0.7673;1.33422;2.33344;0;-0.68068;-0.0658672;-1.5;0.407605;-1.4834;-2.07483;-21.1573;-8.65611;-21.1573;644.456;224;1024;1024;1024;224;1024;1024;1024;1;4;0;0;-2.04204;-0.0922141;-3.75; ;;-0.76035;-0.8834;-2.38181;-0.773639;-0.85601;-2.37233
3483;3486;2019/10/09 14:40:27;0;-1;-1;-1;-1;-1;11;0;0;0;0;0;0;0;0;0;0;0;0;0;0;385;214;7.67676;385.414;216.107;0;234;1;-0.752244;-0.87489;-2.34936;-0.76722;-0.86167;-2.36544;0.408364;-0.169699;0.884156;0.257866;1.49345;1.90773;0;-0.68068;-0.0658672;-1.5;0.404305;-1.47489;-2.05518;-21.1573;-8.65611;-21.1573;644.456;224;1024;1024;1024;224;1024;1024;1024;1;4;0;0;-2.04204;-0.0922141;-3.75; ;;-0.752244;-0.87489;-2.34936;-0.76722;-0.86167;-2.36544
3484;3487;2019/10/09 14:40:27;0;-1;-1;-1;-1;-1;11;0;0;0;0;0;0;0;0;0;0;0;0;0;0;385;215;7.5876;384.703;217.167;0;235;1;-0.749333;-0.89653;-2.37393;-0.761854;-0.87213;-2.36799;0.387566;-0.215991;0.726316;-0.195143;1.32296;0.814607;0;-0.68068;-0.0658672;-1.5;0.397477;-1.49653;-2.10607;-21.1573;-8.65611;-21.1573;644.456;224;1024;1024;1024;224;1024;1024;1024;1;4;0;0;-2.04204;-0.0922141;-3.75; ;;-0.749333;-0.89653;-2.37393;-0.761854;-0.87213;-2.36799
3485;3488;2019/10/09 14:40:27;0;-1;-1;-1;-1;-1;11;0;0;0;0;0;0;0;0;0;0;0;0;0;0;384;218;7.944;383.894;218.836;0;236;1;-0.754297;-0.8496;-2.2548;-0.759587;-0.86537;-2.33403;0.35918;-0.236624;0.638642;-0.581357;0.974456;-0.544678;0;-0.68068;-0.0658672;-1.5;0.373738;-1.4496;-2.06486;-21.1573;-8.65611;-21.1573;644.456;224;1024;1024;1024;224;1024;1024;1024;1;4;0;0;-2.04204;-0.0922141;-3.75; ;;-0.754297;-0.8496;-2.2548;-0.759587;-0.86537;-2.33403
3486;3489;2019/10/09 14:40:27;0;-1;-1;-1;-1;-1;11;0;0;0;0;0;0;0;0;0;0;0;0;0;0;383;219;7.68644;383.015;220.303;0;237;1;-0.739572;-0.90024;-2.32845;-0.753583;-0.87583;-2.33236;0.354422;-0.306681;0.538098;-0.80381;0.25767;-2.11364;0;-0.68068;-0.0658672;-1.5;0.380107;-1.50024;-2.16566;-21.1573;-8.65611;-21.1573;644.456;224;1024;1024;1024;224;1024;1024;1024;1;4;0;0;-2.04204;-0.0922141;-3.75; ;;-0.739572;-0.90024;-2.32845;-0.753583;-0.87583;-2.33236
3487;3490;2019/10/09 14:40:27;0;-1;-1;-1;-1;-1;11;0;0;0;0;0;0;0;0;0;0;0;0;0;0;383;220;7.71987;382.405;221.622;0;238;1;-0.7407;-0.89957;-2.31459;-0.749718;-0.88296;-2.32703;0.330905;-0.338461;0.48754;-0.979498;-0.409181;-3.18654;0;-0.68068;-0.0658672;-1.5;0.374232;-1.49957;-2.1901;-21.1573;-8.65611;-21.1573;644.456;224;1024;1024;1024;224;1024;1024;1024;1;4;0;0;-2.04204;-0.0922141;-3.75; ;;-0.7407;-0.89957;-2.31459;-0.749718;-0.88296;-2.32703
3488;3491;2019/10/09 14:40:27;0;-1;-1;-1;-1;-1;11;0;0;0;0;0;0;0;0;0;0;0;0;0;0;382;221;7.74507;381.671;222.835;0;239;1;-0.735101;-0.9004;-2.30335;-0.745333;-0.88819;-2.31992;0.311564;-0.331558;0.501785;-1.06932;-0.886643;-3.70229;0;-0.68068;-0.0658672;-1.5;0.370377;-1.5004;-2.19794;-21.1573;-8.65611;-21.1573;644.456;224;1024;1024;1024;224;1024;1024;1024;1;4;0;0;-2.04204;-0.0922141;-3.75; ;;-0.735101;-0.9004;-2.30335;-0.745333;-0.88819;-2.31992
3489;3492;2019/10/09 14:40:27;0;-1;-1;-1;-1;-1;11;0;0;0;0;0;0;0;0;0;0;0;0;0;0;381;223;7.61587;380.846;224.291;0;240;1;-0.724055;-0.93509;-2.33605;-0.73895;-0.90226;-2.32476;0.29982;-0.360988;0.463494;-1.075;-1.29578;-3.90103;0;-0.68068;-0.0658672;-1.5;0.376944;-1.53509;-2.22339;-21.1573;-8.65611;-21.1573;644.456;224;1024;1024;1024;224;1024;1024;1024;1;4;0;0;-2.04204;-0.0922141;-3.75; ;;-0.724055;-0.93509;-2.33605;-0.73895;-0.90226;-2.32476
3490;3493;2019/10/09 14:40:27;0;-1;-1;-1;-1;-1;11;0;0;0;0;0;0;0;0;0;0;0;0;0;0;380;224;7.79446;379.956;225.604;0;241;1;-0.723976;-0.90755;-2.27786;-0.734457;-0.90385;-2.31069;0.289284;-0.343232;0.506875;-1.03743;-1.28552;-3.21682;0;-0.68068;-0.0658672;-1.5;0.370118;-1.50755;-2.1824;-21.1573;-8.65611;-21.1573;644.456;224;1024;1024;1024;224;1024;1024;1024;1;4;0;0;-2.04204;-0.0922141;-3.75; ;;-0.723976;-0.90755;-2.27786;-0.734457;-0.90385;-2.31069
3491;3494;2019/10/09 14:40:27;0;-1;-1;-1;-1;-1;11;0;0;0;0;0;0;0;0;0;0;0;0;0;0;379;225;7.68318;379.019;226.813;0;242;1;-0.713483;-0.93336;-2.30799;-0.728165;-0.9127;-2.30988;0.299035;-0.394913;0.400554;-0.862608;-1.40335;-2.88076;0;-0.68068;-0.0658672;-1.5;0.379349;-1.53336;-2.19533;-21.1573;-8.65611;-21.1573;644.456;224;1024;1024;1024;224;1024;1024;1024;1;4;0;0;-2.04204;-0.0922141;-3.75; ;;-0.713483;-0.93336;-2.30799;-0.728165;-0.9127;-2.30988
3492;3495;2019/10/09 14:40:27;0;-1;-1;-1;-1;-1;11;0;0;0;0;0;0;0;0;0;0;0;0;0;0;377.333;226.667;7.87052;377.836;228.159;0;243;1;-0.709736;-0.90806;-2.24604;-0.722637;-0.91131;-2.29073;0.302985;-0.378589;0.40655;-0.722947;-1.12913;-2.25371;0;-0.68068;-0.0658672;-1.5;0.382035;-1.50806;-2.17312;-21.1573;-8.65611;-21.1573;644.456;224;1024;1024;1024;224;1024;1024;1024;1;4;0;0;-2.04204;-0.0922141;-3.75; ;;-0.709736;-0.90806;-2.24604;-0.722637;-0.91131;-2.29073
3493;3496;2019/10/09 14:40:27;0;-1;-1;-1;-1;-1;11;0;0;0;0;0;0;0;0;0;0;0;0;0;0;376;228;7.82867;376.581;229.499;0;244;1;-0.699686;-0.92268;-2.25363;-0.715751;-0.91472;-2.2796;0.317416;-0.353977;0.4333;-0.487627;-0.73943;-1.5688;0;-0.68068;-0.0658672;-1.5;0.393977;-1.52268;-2.17796;-21.1573;-8.65611;-21.1573;644.456;224;1024;1024;1024;224;1024;1024;1024;1;4;0;0;-2.04204;-0.0922141;-3.75; ;;-0.699686;-0.92268;-2.25363;-0.715751;-0.91472;-2.2796
3494;3497;2019/10/09 14:40:27;0;-1;-1;-1;-1;-1;11;0;0;0;0;0;0;0;0;0;0;0;0;0;0;375;229;7.86142;375.382;230.729;0;245;1;-0.69459;-0.92205;-2.24054;-0.709403;-0.91692;-2.26788;0.333914;-0.327097;0.467774;-0.203337;-0.425848;-1.07709;0;-0.68068;-0.0658672;-1.5;0.403904;-1.52205;-2.15609;-21.1573;-8.65611;-21.1573;644.456;224;1024;1024;1024;224;1024;1024;1024;1;4;0;0;-2.04204;-0.0922141;-3.75; ;;-0.69459;-0.92205;-2.24054;-0.709403;-0.91692;-2.26788
3495;3498;2019/10/09 14:40:27;0;-1;-1;-1;-1;-1;11;0;0;0;0;0;0;0;0;0;0;0;0;0;0;373;231;7.97563;373.906;232.197;0;246;1;-0.68645;-0.91213;-2.20085;-0.702517;-0.91548;-2.24777;0.345819;-0.24905;0.588078;0.0616685;0.191448;-0.148802;0;-0.68068;-0.0658672;-1.5;0.416737;-1.51213;-2.10629;-21.1573;-8.65611;-21.1573;644.456;224;1024;1024;1024;224;1024;1024;1024;1;4;0;0;-2.04204;-0.0922141;-3.75; ;;-0.68645;-0.91213;-2.20085;-0.702517;-0.91548;-2.24777
3496;3499;2019/10/09 14:40:27;0;-1;-1;-1;-1;-1;11;0;0;0;0;0;0;0;0;0;0;0;0;0;0;372;232;7.77984;372.548;233.52;0;247;1;-0.672145;-0.95302;-2.25396;-0.693406;-0.92674;-2.24963;0.371407;-0.240846;0.596663;0.364911;0.523686;0.269234;0;-0.68068;-0.0658672;-1.5;0.440438;-1.55302;-2.11251;-21.1573;-8.65611;-21.1573;644.456;224;1024;1024;1024;224;1024;1024;1024;1;4;0;0;-2.04204;-0.0922141;-3.75; ;;-0.672145;-0.95302;-2.25396;-0.693406;-0.92674;-2.24963
3497;3500;2019/10/09 14:40:27;0;-1;-1;-1;-1;-1;11;0;0;0;0;0;0;0;0;0;0;0;0;0;0;371;233;7.83372;371.278;234.737;0;248;1;-0.668031;-0.94834;-2.2346;-0.685793;-0.93322;-2.24512;0.392032;-0.226444;0.616581;0.590272;0.986888;1.02411;0;-0.68068;-0.0658672;-1.5;0.45274;-1.54834;-2.09058;-21.1573;-8.65611;-21.1573;644.456;224;1024;1024;1024;224;1024;1024;1024;1;4;0;0;-2.04204;-0.0922141;-3.75; ;;-0.668031;-0.94834;-2.2346;-0.685793;-0.93322;-2.24512
3498;3501;2019/10/09 14:40:27;0;-1;-1;-1;-1;-1;11;0;0;0;0;0;0;0;0;0;0;0;0;0;0;369;234;8.1894;369.754;235.878;0;249;1;-0.670262;-0.89052;-2.13202;-0.681134;-0.92041;-2.21119;0.400936;-0.172215;0.68754;0.745268;1.41616;1.73643;0;-0.68068;-0.0658672;-1.5;0.452768;-1.49052;-1.98852;-21.1573;-8.65611;-21.1573;644.456;224;1024;1024;1024;224;1024;1024;1024;1;4;0;0;-2.04204;-0.0922141;-3.75; ;;-0.670262;-0.89052;-2.13202;-0.681134;-0.92041;-2.21119
3499;3502;2019/10/09 14:40:27;0;-1;-1;-1;-1;-1;11;0;0;0;0;0;0;0;0;0;0;0;0;0;0;367;235;8.02133;368.046;236.963;0;250;1;-0.650911;-0.92485;-2.17431;-0.672067;-0.92174;-2.20013;0.414988;-0.131373;0.729855;0.836756;1.73853;2.22597;0;-0.68068;-0.0658672;-1.5;0.479754;-1.52485;-2.00024;-21.1573;-8.65611;-21.1573;644.456;224;1024;1024;1024;224;1024;1024;1024;1;4;0;0;-2.04204;-0.0922141;-3.75; ;;-0.650911;-0.92485;-2.17431;-0.672067;-0.92174;-2.20013
3500;3503;2019/10/09 14:40:27;0;-1;-1;-1;-1;-1;11;0;0;0;0;0;0;0;0;0;0;0;0;0;0;366;235;8.04631;366.526;237.69;0;251;1;-0.645793;-0.92042;-2.16741;-0.664185;-0.92135;-2.19031;0.429544;-0.0965091;0.74765;0.883894;1.96383;2.4531;0;-0.68068;-0.0658672;-1.5;0.490639;-1.52042;-1.97746;-21.1573;-8.65611;-21.1573;644.456;224;1024;1024;1024;224;1024;1024;1024;1;4;0;0;-2.04204;-0.0922141;-3.75; ;;-0.645793;-0.92042;-2.16741;-0.664185;-0.92135;-2.19031
3501;3504;2019/10/09 14:40:27;0;-1;-1;-1;-1;-1;11;0;0;0;0;0;0;0;0;0;0;0;0;0;0;364;236;8.24366;364.812;238.493;0;252;1;-0.642167;-0.89147;-2.11099;-0.657579;-0.91238;-2.16652;0.436777;-0.0455703;0.772353;0.892749;1.98905;2.20609;0;-0.68068;-0.0658672;-1.5;0.496677;-1.49147;-1.91932;-21.1573;-8.65611;-21.1573;644.456;224;1024;1024;1024;224;1024;1024;1024;1;4;0;0;-2.04204;-0.0922141;-3.75; ;;-0.642167;-0.89147;-2.11099;-0.657579;-0.91238;-2.16652
3502;3505;2019/10/09 14:40:27;0;-1;-1;-1;-1;-1;11;0;0;0;0;0;0;0;0;0;0;0;0;0;0;363;236;8.03799;363.302;238.999;0;253;1;-0.626803;-0.92707;-2.16628;-0.648346;-0.91679;-2.16644;0.4416;0.0123032;0.794847;0.815323;2.20207;2.1133;0;-0.68068;-0.0658672;-1.5;0.518888;-1.52707;-1.95866;-21.1573;-8.65611;-21.1573;644.456;224;1024;1024;1024;224;1024;1024;1024;1;4;0;0;-2.04204;-0.0922141;-3.75; ;;-0.626803;-0.92707;-2.16628;-0.648346;-0.91679;-2.16644
3503;3506;2019/10/09 14:40:27;0;-1;-1;-1;-1;-1;11;0;0;0;0;0;0;0;0;0;0;0;0;0;0;362;236;8.28803;361.93;239.309;0;254;1;-0.632041;-0.88402;-2.09942;-0.643455;-0.90696;-2.14634;0.433651;0.112012;0.870494;0.655019;2.66978;2.27967;0;-0.68068;-0.0658672;-1.5;0.51183;-1.48402;-1.89046;-21.1573;-8.65611;-21.1573;644.456;224;1024;1024;1024;224;1024;1024;1024;1;4;0;0;-2.04204;-0.0922141;-3.75; ;;-0.632041;-0.88402;-2.09942;-0.643455;-0.90696;-2.14634
3504;3507;2019/10/09 14:40:27;0;-1;-1;-1;-1;-1;11;0;0;0;0;0;0;0;0;0;0;0;0;0;0;361;237;8.17641;360.658;239.798;0;255;1;-0.620915;-0.90801;-2.1254;-0.636693;-0.90728;-2.14006;0.437258;0.119544;0.805719;0.537731;2.76433;1.83866;0;-0.68068;-0.0658672;-1.5;0.524712;-1.50801;-1.88307;-21.1573;-8.65611;-21.1573;644.456;224;1024;1024;1024;224;1024;1024;1024;1;4;0;0;-2.04204;-0.0922141;-3.75; ;;-0.620915;-0.90801;-2.1254;-0.636693;-0.90728;-2.14006
3505;3508;2019/10/09 14:40:27;0;-1;-1;-1;-1;-1;11;0;0;0;0;0;0;0;0;0;0;0;0;0;0;361;237;8.17641;359.67;240.992;0;256;1;-0.620915;-0.90801;-2.1254;-0.636693;-0.90728;-2.14006;0.437258;0.119544;0.805719;0.537731;2.76433;1.83866;0;-0.68068;-0.0658672;-1.5;0.523755;-1.50801;-1.90882;-21.1573;-8.65611;-21.1573;644.456;224;1024;1024;1024;224;1024;1024;1024;1;4;0;0;-2.04204;-0.0922141;-3.75; ;;-0.620915;-0.90801;-2.1254;-0.636693;-0.90728;-2.14006
3506;3509;2019/10/09 14:40:27;0;-1;-1;-1;-1;-1;11;0;0;0;0;0;0;0;0;0;0;0;0;0;0;358;238;8.14648;358.038;241.03;0;257;1;-0.601146;-0.91829;-2.13002;-0.626029;-0.91058;-2.13705;0.419627;0.109854;0.698929;0.338485;2.48266;0.997551;0;-0.68068;-0.0658672;-1.5;0.544182;-1.51829;-1.91223;-21.1573;-8.65611;-21.1573;644.456;224;1024;1024;1024;224;1024;1024;1024;1;4;0;0;-2.04204;-0.0922141;-3.75; ;;-0.601146;-0.91829;-2.13002;-0.626029;-0.91058;-2.13705
3507;3510;2019/10/09 14:40:27;0;-1;-1;-1;-1;-1;11;0;0;0;0;0;0;0;0;0;0;0;0;0;0;356;238;8.32648;356.304;241.106;0;258;1;-0.597783;-0.88763;-2.08289;-0.617555;-0.9037;-2.1208;0.41107;0.126208;0.656823;0.139983;2.25043;0.288253;0;-0.68068;-0.0658672;-1.5;0.535238;-1.48763;-1.91133;-21.1573;-8.65611;-21.1573;644.456;224;1024;1024;1024;224;1024;1024;1024;1;4;0;0;-2.04204;-0.0922141;-3.75; ;;-0.597783;-0.88763;-2.08289;-0.617555;-0.9037;-2.1208
3508;3511;2019/10/09 14:40:27;0;-1;-1;-1;-1;-1;11;0;0;0;0;0;0;0;0;0;0;0;0;0;0;354;239;8.17115;354.483;241.496;0;259;1;-0.577923;-0.91911;-2.12007;-0.605666;-0.90832;-2.12058;0.424308;0.0896341;0.551297;0.0413164;1.81297;-0.583572;0;-0.68068;-0.0658672;-1.5;0.553486;-1.51911;-1.9601;-21.1573;-8.65611;-21.1573;644.456;224;1024;1024;1024;224;1024;1024;1024;1;4;0;0;-2.04204;-0.0922141;-3.75; ;;-0.577923;-0.91911;-2.12007;-0.605666;-0.90832;-2.12058
3509;3512;2019/10/09 14:40:27;0;-1;-1;-1;-1;-1;11;0;0;0;0;0;0;0;0;0;0;0;0;0;0;353;240;8.35197;352.917;242.073;0;260;1;-0.581086;-0.89337;-2.0698;-0.598292;-0.90384;-2.10535;0.425889;0.09812;0.53988;-0.0289766;1.38148;-1.22273;0;-0.68068;-0.0658672;-1.5;0.549031;-1.49337;-1.95074;-21.1573;-8.65611;-21.1573;644.456;224;1024;1024;1024;224;1024;1024;1024;1;4;0;0;-2.04204;-0.0922141;-3.75; ;;-0.581086;-0.89337;-2.0698;-0.598292;-0.90384;-2.10535
3510;3513;2019/10/09 14:40:27;0;-1;-1;-1;-1;-1;11;0;0;0;0;0;0;0;0;0;0;0;0;0;0;353;240;8.35197;351.817;243.119;0;261;1;-0.581086;-0.89337;-2.0698;-0.598292;-0.90384;-2.10535;0.425889;0.09812;0.53988;-0.0289766;1.38148;-1.22273;0;-0.68068;-0.0658672;-1.5;0.549243;-1.49337;-1.95459;-21.1573;-8.65611;-21.1573;644.456;224;1024;1024;1024;224;1024;1024;1024;1;4;0;0;-2.04204;-0.0922141;-3.75; ;;-0.581086;-0.89337;-2.0698;-0.598292;-0.90384;-2.10535
3511;3514;2019/10/09 14:40:27;0;-1;-1;-1;-1;-1;11;0;0;0;0;0;0;0;0;0;0;0;0;0;0;349;242;8.311;349.618;243.729;0;262;1;-0.555005;-0.91026;-2.07363;-0.585306;-0.90576;-2.09583;0.429663;0.0624582;0.475171;-0.0293269;0.680496;-1.91745;0;-0.68068;-0.0658672;-1.5;0.576149;-1.51026;-1.95737;-21.1573;-8.65611;-21.1573;644.456;224;1024;1024;1024;224;1024;1024;1024;1;4;0;0;-2.04204;-0.0922141;-3.75; ;;-0.555005;-0.91026;-2.07363;-0.585306;-0.90576;-2.09583
3512;3515;2019/10/09 14:40:28;0;-1;-1;-1;-1;-1;11;0;0;0;0;0;0;0;0;0;0;0;0;0;0;346;243;8.40573;347.189;244.498;0;263;1;-0.542211;-0.89932;-2.04643;-0.572377;-0.90383;-2.08101;0.450393;0.0477894;0.461917;0.0217395;0.193425;-2.18;0;-0.68068;-0.0658672;-1.5;0.587222;-1.49932;-1.95329;-21.1573;-8.65611;-21.1573;644.456;224;1024;1024;1024;224;1024;1024;1024;1;4;0;0;-2.04204;-0.0922141;-3.75; ;;-0.542211;-0.89932;-2.04643;-0.572377;-0.90383;-2.08101
3513;3516;2019/10/09 14:40:28;0;-1;-1;-1;-1;-1;11;0;0;0;0;0;0;0;0;0;0;0;0;0;0;344;244;8.39446;344.913;245.347;0;264;1;-0.529708;-0.90616;-2.04597;-0.559576;-0.90453;-2.0705;0.497659;0.0493833;0.504898;0.280097;-0.0908965;-1.97204;0;-0.68068;-0.0658672;-1.5;0.60642;-1.50616;-1.95636;-21.1573;-8.65611;-21.1573;644.456;224;1024;1024;1024;224;1024;1024;1024;1;4;0;0;-2.04204;-0.0922141;-3.75; ;;-0.529708;-0.90616;-2.04597;-0.559576;-0.90453;-2.0705
3514;3517;2019/10/09 14:40:28;0;-1;-1;-1;-1;-1;11;0;0;0;0;0;0;0;0;0;0;0;0;0;0;343;245;8.33733;343.037;246.242;0;265;1;-0.5205;-0.92079;-2.05703;-0.547854;-0.90941;-2.06646;0.537137;0.0100832;0.48891;0.599496;-0.451953;-1.75788;0;-0.68068;-0.0658672;-1.5;0.633511;-1.52079;-1.95078;-21.1573;-8.65611;-21.1573;644.456;224;1024;1024;1024;224;1024;1024;1024;1;4;0;0;-2.04204;-0.0922141;-3.75; ;;-0.5205;-0.92079;-2.05703;-0.547854;-0.90941;-2.06646
3515;3518;2019/10/09 14:40:28;0;-1;-1;-1;-1;-1;11;0;0;0;0;0;0;0;0;0;0;0;0;0;0;340;246;8.47029;340.779;247.168;0;266;1;-0.510354;-0.9034;-2.02071;-0.536604;-0.90761;-2.05273;0.558636;0.00849045;0.525541;0.819418;-0.548874;-1.14287;0;-0.68068;-0.0658672;-1.5;0.654291;-1.5034;-1.92085;-21.1573;-8.65611;-21.1573;644.456;224;1024;1024;1024;224;1024;1024;1024;1;4;0;0;-2.04204;-0.0922141;-3.75; ;;-0.510354;-0.9034;-2.02071;-0.536604;-0.90761;-2.05273
3516;3519;2019/10/09 14:40:28;0;-1;-1;-1;-1;-1;11;0;0;0;0;0;0;0;0;0;0;0;0;0;0;336.667;247.333;8.44437;338.14;248.222;0;267;1;-0.489153;-0.91429;-2.02273;-0.522368;-0.90961;-2.04373;0.595016;-0.0146716;0.52619;1.07046;-0.715334;-0.732576;0;-0.68068;-0.0658672;-1.5;0.68469;-1.51429;-1.90918;-21.1573;-8.65611;-21.1573;644.456;224;1024;1024;1024;224;1024;1024;1024;1;4;0;0;-2.04204;-0.0922141;-3.75; ;;-0.489153;-0.91429;-2.02273;-0.522368;-0.90961;-2.04373
3517;3520;2019/10/09 14:40:28;0;-1;-1;-1;-1;-1;11;0;0;0;0;0;0;0;0;0;0;0;0;0;0;334;248;8.27925;335.439;249.154;0;268;1;-0.462892;-0.94585;-2.06185;-0.504526;-0.92048;-2.04917;0.679544;-0.0675716;0.502032;1.63998;-0.948375;-0.332297;0;-0.68068;-0.0658672;-1.5;0.72745;-1.54585;-1.94353;-21.1573;-8.65611;-21.1573;644.456;224;1024;1024;1024;224;1024;1024;1024;1;4;0;0;-2.04204;-0.0922141;-3.75; ;;-0.462892;-0.94585;-2.06185;-0.504526;-0.92048;-2.04917
3518;3521;2019/10/09 14:40:28;0;-1;-1;-1;-1;-1;11;0;0;0;0;0;0;0;0;0;0;0;0;0;0;332;248;8.4247;332.907;249.785;0;269;1;-0.46032;-0.92089;-2.02539;-0.491264;-0.9206;-2.04203;0.731591;-0.10751;0.456841;2.10674;-1.18909;-0.219643;0;-0.68068;-0.0658672;-1.5;0.75648;-1.52089;-1.91522;-21.1573;-8.65611;-21.1573;644.456;224;1024;1024;1024;224;1024;1024;1024;1;4;0;0;-2.04204;-0.0922141;-3.75; ;;-0.46032;-0.92089;-2.02539;-0.491264;-0.9206;-2.04203
3519;3522;2019/10/09 14:40:28;0;-1;-1;-1;-1;-1;11;0;0;0;0;0;0;0;0;0;0;0;0;0;0;329;249;8.46191;330.179;250.519;0;270;1;-0.445001;-0.91956;-2.01302;-0.477385;-0.92029;-2.03333;0.767123;-0.127432;0.42251;2.33994;-1.41943;-0.460741;0;-0.68068;-0.0658672;-1.5;0.788836;-1.51956;-1.917;-21.1573;-8.65611;-21.1573;644.456;224;1024;1024;1024;224;1024;1024;1024;1;4;0;0;-2.04204;-0.0922141;-3.75; ;;-0.445001;-0.91956;-2.01302;-0.477385;-0.92029;-2.03333
3520;3523;2019/10/09 14:40:28;0;-1;-1;-1;-1;-1;11;0;0;0;0;0;0;0;0;0;0;0;0;0;0;327;249;8.41132;327.63;251.007;0;271;1;-0.429799;-0.9281;-2.02542;-0.463109;-0.92263;-2.03096;0.798636;-0.129257;0.395251;2.44806;-1.40801;-0.650398;0;-0.68068;-0.0658672;-1.5;0.817934;-1.5281;-1.93898;-21.1573;-8.65611;-21.1573;644.456;224;1024;1024;1024;224;1024;1024;1024;1;4;0;0;-2.04204;-0.0922141;-3.75; ;;-0.429799;-0.9281;-2.02542;-0.463109;-0.92263;-2.03096
3521;3524;2019/10/09 14:40:28;0;-1;-1;-1;-1;-1;11;0;0;0;0;0;0;0;0;0;0;0;0;0;0;324;249;8.45892;324.892;251.319;0;272;1;-0.41531;-0.92006;-2.01374;-0.448769;-0.92186;-2.02579;0.82988;-0.134464;0.344715;2.55184;-1.41558;-1.11223;0;-0.68068;-0.0658672;-1.5;0.84262;-1.52006;-1.93609;-21.1573;-8.65611;-21.1573;644.456;224;1024;1024;1024;224;1024;1024;1024;1;4;0;0;-2.04204;-0.0922141;-3.75; ;;-0.41531;-0.92006;-2.01374;-0.448769;-0.92186;-2.02579
3522;3525;2019/10/09 14:40:28;0;-1;-1;-1;-1;-1;11;0;0;0;0;0;0;0;0;0;0;0;0;0;0;322;250;8.50356;322.34;251.822;0;273;1;-0.406643;-0.9175;-1.99968;-0.436132;-0.92055;-2.01796;0.842249;-0.124366;0.309732;2.51824;-1.28733;-1.53159;0;-0.68068;-0.0658672;-1.5;0.860832;-1.5175;-1.93857;-21.1573;-8.65611;-21.1573;644.456;224;1024;1024;1024;224;1024;1024;1024;1;4;0;0;-2.04204;-0.0922141;-3.75; ;;-0.406643;-0.9175;-1.99968;-0.436132;-0.92055;-2.01796
3523;3526;2019/10/09 14:40:28;0;-1;-1;-1;-1;-1;11;0;0;0;0;0;0;0;0;0;0;0;0;0;0;320;250;8.47283;319.923;252.146;0;274;1;-0.392713;-0.92264;-2.00711;-0.423106;-0.92118;-2.0147;0.830437;-0.0774066;0.323441;2.11342;-0.811668;-1.63202;0;-0.68068;-0.0658672;-1.5;0.879897;-1.52264;-1.95686;-21.1573;-8.65611;-21.1573;644.456;224;1024;1024;1024;224;1024;1024;1024;1;4;0;0;-2.04204;-0.0922141;-3.75; ;;-0.392713;-0.92264;-2.00711;-0.423106;-0.92118;-2.0147
3524;3527;2019/10/09 14:40:28;0;-1;-1;-1;-1;-1;11;0;0;0;0;0;0;0;0;0;0;0;0;0;0;318;250;8.49938;317.607;252.342;0;275;1;-0.382867;-0.9182;-2.00069;-0.411034;-0.92029;-2.0105;0.818597;-0.0451784;0.319976;1.61544;-0.238127;-1.52568;0;-0.68068;-0.0658672;-1.5;0.884948;-1.5182;-1.94638;-21.1573;-8.65611;-21.1573;644.456;224;1024;1024;1024;224;1024;1024;1024;1;4;0;0;-2.04204;-0.0922141;-3.75; ;;-0.382867;-0.9182;-2.00069;-0.411034;-0.92029;-2.0105
3525;3528;2019/10/09 14:40:28;0;-1;-1;-1;-1;-1;11;0;0;0;0;0;0;0;0;0;0;0;0;0;0;315;251;8.47696;315.046;252.764;0;276;1;-0.363576;-0.92686;-2.00287;-0.396797;-0.92226;-2.00821;0.812926;-0.0349701;0.292282;1.15214;0.2263;-1.43537;0;-0.68068;-0.0658672;-1.5;0.900676;-1.52686;-1.94957;-21.1573;-8.65611;-21.1573;644.456;224;1024;1024;1024;224;1024;1024;1024;1;4;0;0;-2.04204;-0.0922141;-3.75; ;;-0.363576;-0.92686;-2.00287;-0.396797;-0.92226;-2.00821
3526;3529;2019/10/09 14:40:28;0;-1;-1;-1;-1;-1;11;0;0;0;0;0;0;0;0;0;0;0;0;0;0;313.333;250.667;8.47191;312.734;252.927;0;277;1;-0.35338;-0.92608;-2.00517;-0.383772;-0.9234;-2.0073;0.804529;-0.0240659;0.269834;0.714817;0.555781;-1.36198;0;-0.68068;-0.0658672;-1.5;0.908386;-1.52608;-1.96106;-21.1573;-8.65611;-21.1573;644.456;224;1024;1024;1024;224;1024;1024;1024;1;4;0;0;-2.04204;-0.0922141;-3.75; ;;-0.35338;-0.92608;-2.00517;-0.383772;-0.9234;-2.0073
3527;3530;2019/10/09 14:40:28;0;-1;-1;-1;-1;-1;11;0;0;0;0;0;0;0;0;0;0;0;0;0;0;311;251;8.52027;310.391;253.115;0;278;1;-0.343384;-0.91961;-1.99243;-0.371655;-0.92227;-2.00284;0.790614;-0.0160597;0.253554;0.27211;0.806225;-1.18117;0;-0.68068;-0.0658672;-1.5;0.913551;-1.51961;-1.95626;-21.1573;-8.65611;-21.1573;644.456;224;1024;1024;1024;224;1024;1024;1024;1;4;0;0;-2.04204;-0.0922141;-3.75; ;;-0.343384;-0.91961;-1.99243;-0.371655;-0.92227;-2.00284
3528;3531;2019/10/09 14:40:28;0;-1;-1;-1;-1;-1;11;0;0;0;0;0;0;0;0;0;0;0;0;0;0;310;252;8.50814;308.452;253.535;0;279;1;-0.336583;-0.92653;-1.99211;-0.361134;-0.92354;-1.99962;0.773815;-0.0215818;0.225352;-0.109972;0.894127;-1.04561;0;-0.68068;-0.0658672;-1.5;0.915196;-1.52653;-1.96137;-21.1573;-8.65611;-21.1573;644.456;224;1024;1024;1024;224;1024;1024;1024;1;4;0;0;-2.04204;-0.0922141;-3.75; ;;-0.336583;-0.92653;-1.99211;-0.361134;-0.92354;-1.99962
3529;3532;2019/10/09 14:40:28;0;-1;-1;-1;-1;-1;11;0;0;0;0;0;0;0;0;0;0;0;0;0;0;307;251;8.48569;306.17;253.486;0;280;1;-0.317187;-0.9254;-2.00076;-0.34795;-0.9241;-1.99996;0.764368;-0.0246084;0.194077;-0.329779;0.747285;-1.14388;0;-0.68068;-0.0658672;-1.5;0.928712;-1.5254;-1.97914;-21.1573;-8.65611;-21.1573;644.456;224;1024;1024;1024;224;1024;1024;1024;1;4;0;0;-2.04204;-0.0922141;-3.75; ;;-0.317187;-0.9254;-2.00076;-0.34795;-0.9241;-1.99996
