ID;RS_ID;time;insect_log;imLx_drone; imLy_drone; disparity_drone; imLx_pred_drone; imLy_pred_drone; n_frames_lost_drone; n_frames_tracking_drone; foundL_drone; posX_drone; posY_drone; posZ_drone; sposX_drone; sposY_drone; sposZ_drone; svelX_drone; svelY_drone; svelZ_drone; saccX_drone; saccY_drone; saccZ_drone; imLx_insect; imLy_insect; disparity_insect; imLx_pred_insect; imLy_pred_insect; n_frames_lost_insect; n_frames_tracking_insect; foundL_insect; posX_insect; posY_insect; posZ_insect; sposX_insect; sposY_insect; sposZ_insect; svelX_insect; svelY_insect; svelZ_insect; saccX_insect; saccY_insect; saccZ_insect; valid; posErrX; posErrY; posErrZ; velX; velY; velZ; accX; accY; accZ; hoverthrottle; autoThrottle; autoRoll; autoPitch; autoYaw; joyThrottle; joyRoll; joyPitch; joyYaw; joyArmSwitch; joyModeSwitch; joyTakeoffSwitch; dt; velx_sp; vely_sp; velz_sp;
5939;5954;2019/11/01 19:50:53;0;-1;-1;-1;-1;-1;100;0;0;0;0;0;0;0;0;0;0;0;0;0;0;540.25;473.75;15.435;540.25;473.75;0;1;1;-0.375996;-0.44497;-0.571429;-0.375996;-0.44497;-0.571429;0;0;0;0;0;0;0;0;0;0;0;0;0;0;0;0;675;304;1024;1024;1024;224;1024;1024;1024;1;4;0;0;0;0;0; 
5940;5955;2019/11/01 19:50:53;0;-1;-1;-1;-1;-1;100;0;0;0;0;0;0;0;0;0;0;0;0;0;0;535.75;468.25;15.4349;539.841;473.25;0;2;1;-0.361433;-0.43138;-0.582924;-0.371627;-0.4409;-0.574878;0;0;0;0;0;0;0;0;0;0;0;0;0;0;0;0;675;304;1024;1024;1024;224;1024;1024;1024;1;4;0;0;0;0;0; 
5941;5956;2019/11/01 19:50:53;0;-1;-1;-1;-1;-1;100;0;0;0;0;0;0;0;0;0;0;0;0;0;0;533.333;462.667;15.4947;538.795;471.549;0;3;1;-0.352246;-0.41211;-0.592295;-0.365813;-0.43226;-0.580103;0;0;0;0;0;0;0;0;0;0;0;0;0;0;0;0;675;304;1024;1024;1024;224;1024;1024;1024;1;4;0;0;0;0;0; 
5942;5957;2019/11/01 19:50:53;0;-1;-1;-1;-1;-1;100;0;0;0;0;0;0;0;0;0;0;0;0;0;0;528.222;455.333;15.2927;536.595;468.175;0;4;1;-0.340203;-0.41248;-0.615587;-0.35813;-0.42633;-0.590748;0;0;0;0;0;0;0;0;0;0;0;0;0;0;0;0;675;304;1024;1024;1024;224;1024;1024;1024;1;4;0;0;0;0;0; 
5943;5958;2019/11/01 19:50:54;0;-1;-1;-1;-1;-1;100;0;0;0;0;0;0;0;0;0;0;0;0;0;0;524.5;449.25;15.2028;533.715;463.669;0;5;1;-0.329982;-0.40556;-0.632131;-0.349686;-0.42009;-0.603163;0;0;0;0;0;0;0;0;0;0;0;0;0;0;0;0;675;304;1024;1024;1024;224;1024;1024;1024;1;4;0;0;0;0;0; 
5944;5959;2019/11/01 19:50:54;0;-1;-1;-1;-1;-1;100;0;0;0;0;0;0;0;0;0;0;0;0;0;0;521.75;444.25;15.1761;530.64;458.68;0;6;1;-0.321511;-0.39546;-0.643871;-0.341233;-0.41271;-0.615375;0;0;0;0;0;0;0;0;0;0;0;0;0;0;0;0;675;304;1024;1024;1024;224;1024;1024;1024;1;4;0;0;0;0;0; 
5945;5960;2019/11/01 19:50:54;0;-1;-1;-1;-1;-1;100;0;0;0;0;0;0;0;0;0;0;0;0;0;0;519.75;438.25;15.0104;527.702;453.179;0;7;1;-0.318404;-0.39562;-0.66387;-0.334385;-0.40758;-0.629924;0;0;0;0;0;0;0;0;0;0;0;0;0;0;0;0;675;304;1024;1024;1024;224;1024;1024;1024;1;4;0;0;0;0;0; 
5946;5961;2019/11/01 19:50:54;0;-1;-1;-1;-1;-1;100;0;0;0;0;0;0;0;0;0;0;0;0;0;0;516;432.571;14.922;524.442;447.444;0;8;1;-0.307735;-0.38936;-0.680074;-0.32639;-0.40211;-0.644969;0.451548;0.38712;-0.699629;1.89531;1.42696;-4.9219;0;0;0;0;0;0;0;0;0;0;675;304;1024;1024;1024;224;1024;1024;1024;1;4;0;0;0;0;0; 
5947;5962;2019/11/01 19:50:54;0;-1;-1;-1;-1;-1;100;0;0;0;0;0;0;0;0;0;0;0;0;0;0;514;428.571;14.9275;521.444;442.034;0;9;1;-0.300929;-0.37863;-0.688468;-0.318751;-0.39507;-0.658019;0.45885;0.380785;-0.730905;1.57896;0.311559;-4.62214;0;0;0;0;0;0;0;0;0;0;675;304;1024;1024;1024;224;1024;1024;1024;1;4;0;0;0;0;0; 
5948;5963;2019/11/01 19:50:54;0;-1;-1;-1;-1;-1;100;0;0;0;0;0;0;0;0;0;0;0;0;0;0;513.429;424;14.7473;519.055;436.727;0;10;1;-0.30267;-0.38365;-0.706878;-0.313927;-0.39164;-0.672677;0.451818;0.366961;-0.765692;0.914153;0.232652;-3.28491;0;0;0;0;0;0;0;0;0;0;675;304;1024;1024;1024;224;1024;1024;1024;1;4;0;0;0;0;0; 
5949;5964;2019/11/01 19:50:54;0;-1;-1;-1;-1;-1;100;0;0;0;0;0;0;0;0;0;0;0;0;0;0;510;418.571;14.7619;516.314;431.259;0;11;1;-0.290768;-0.36825;-0.718039;-0.306979;-0.38463;-0.686285;0.441623;0.361808;-0.791333;0.292572;0.0942561;-2.16196;0;0;0;0;0;0;0;0;0;0;675;304;1024;1024;1024;224;1024;1024;1024;1;4;0;0;0;0;0; 
5950;5965;2019/11/01 19:50:54;0;-1;-1;-1;-1;-1;100;0;0;0;0;0;0;0;0;0;0;0;0;0;0;509.333;414.222;14.8007;514.102;425.98;0;12;1;-0.287755;-0.35345;-0.725633;-0.301212;-0.37527;-0.69809;0.424785;0.366555;-0.805088;-0.149649;-0.246909;-1.59133;0;0;0;0;0;0;0;0;0;0;675;304;1024;1024;1024;224;1024;1024;1024;1;4;0;0;0;0;0; 
5951;5966;2019/11/01 19:50:54;0;-1;-1;-1;-1;-1;100;0;0;0;0;0;0;0;0;0;0;0;0;0;0;508.25;409.75;14.8238;512.162;420.803;0;13;1;-0.283655;-0.33983;-0.734232;-0.295945;-0.36464;-0.708933;0.408366;0.391391;-0.798544;-0.0969697;0.18883;-0.664323;0;0;0;0;0;0;0;0;0;0;675;304;1024;1024;1024;224;1024;1024;1024;1;4;0;0;0;0;0; 
5952;5967;2019/11/01 19:50:54;0;-1;-1;-1;-1;-1;100;0;0;0;0;0;0;0;0;0;0;0;0;0;0;507.429;406;14.5604;510.501;415.909;0;14;1;-0.285969;-0.35425;-0.755825;-0.292952;-0.36152;-0.723;0.378539;0.396917;-0.790714;-0.349715;0.152417;-0.762306;0;0;0;0;0;0;0;0;0;0;675;304;1024;1024;1024;224;1024;1024;1024;1;4;0;0;0;0;0; 
5953;5968;2019/11/01 19:50:54;0;-1;-1;-1;-1;-1;100;0;0;0;0;0;0;0;0;0;0;0;0;0;0;505.75;401.75;14.5363;508.793;411.077;0;15;1;-0.280674;-0.34534;-0.766504;-0.289269;-0.35667;-0.736051;0.344838;0.391477;-0.785987;-0.665043;0.134139;-0.677308;0;0;0;0;0;0;0;0;0;0;675;304;1024;1024;1024;224;1024;1024;1024;1;4;0;0;0;0;0; 
5954;5969;2019/11/01 19:50:54;0;-1;-1;-1;-1;-1;100;0;0;0;0;0;0;0;0;0;0;0;0;0;0;504;396.571;14.5601;507.031;406.015;0;16;1;-0.274211;-0.32957;-0.776726;-0.284751;-0.34854;-0.748254;0.323391;0.406989;-0.773347;-0.911795;0.240302;-0.436947;0;0;0;0;0;0;0;0;0;0;675;304;1024;1024;1024;224;1024;1024;1024;1;4;0;0;0;0;0; 
5955;5970;2019/11/01 19:50:54;0;-1;-1;-1;-1;-1;100;0;0;0;0;0;0;0;0;0;0;0;0;0;0;502.25;391.75;14.6109;505.226;400.888;0;17;1;-0.267274;-0.31236;-0.784667;-0.279508;-0.33768;-0.759178;0.303716;0.431613;-0.755043;-1.09769;0.422892;-0.117274;0;0;0;0;0;0;0;0;0;0;675;304;1024;1024;1024;224;1024;1024;1024;1;4;0;0;0;0;0; 
5956;5971;2019/11/01 19:50:54;0;-1;-1;-1;-1;-1;100;0;0;0;0;0;0;0;0;0;0;0;0;0;0;501.75;387.75;14.5893;503.765;395.956;0;18;1;-0.265958;-0.30384;-0.794672;-0.275443;-0.32753;-0.769826;0.285115;0.449583;-0.739445;-1.21627;0.585237;0.191724;0;0;0;0;0;0;0;0;0;0;675;304;1024;1024;1024;224;1024;1024;1024;1;4;0;0;0;0;0; 
5957;5972;2019/11/01 19:50:54;0;-1;-1;-1;-1;-1;100;0;0;0;0;0;0;0;0;0;0;0;0;0;0;498;383;14.4452;501.58;390.946;0;19;1;-0.255643;-0.30431;-0.813207;-0.269503;-0.32056;-0.78284;0.276642;0.445732;-0.738756;-1.25569;0.568111;0.353745;0;0;0;0;0;0;0;0;0;0;675;304;1024;1024;1024;224;1024;1024;1024;1;4;0;0;0;0;0; 
5958;5973;2019/11/01 19:50:54;0;-1;-1;-1;-1;-1;100;0;0;0;0;0;0;0;0;0;0;0;0;0;0;495;378;14.4999;499.088;385.801;0;20;1;-0.244342;-0.28623;-0.821259;-0.261955;-0.31026;-0.794366;0.289748;0.472104;-0.728193;-1.10792;0.641066;0.461872;0;0;0;0;0;0;0;0;0;0;675;304;1024;1024;1024;224;1024;1024;1024;1;4;0;0;0;0;0; 
5959;5974;2019/11/01 19:50:54;0;-1;-1;-1;-1;-1;100;0;0;0;0;0;0;0;0;0;0;0;0;0;0;492.857;372.571;14.5456;496.63;380.43;0;21;1;-0.236214;-0.26795;-0.830715;-0.254232;-0.29757;-0.805271;0.313737;0.519222;-0.713285;-0.788932;0.894685;0.567397;0;0;0;0;0;0;0;0;0;0;675;304;1024;1024;1024;224;1024;1024;1024;1;4;0;0;0;0;0; 
5960;5975;2019/11/01 19:50:54;0;-1;-1;-1;-1;-1;100;0;0;0;0;0;0;0;0;0;0;0;0;0;0;491.75;368.25;14.3975;494.515;375.231;0;22;1;-0.234803;-0.26954;-0.848943;-0.248404;-0.28916;-0.818372;0.333367;0.548608;-0.707932;-0.433527;1.10225;0.601619;0;0;0;0;0;0;0;0;0;0;675;304;1024;1024;1024;224;1024;1024;1024;1;4;0;0;0;0;0; 
5961;5976;2019/11/01 19:50:54;0;-1;-1;-1;-1;-1;100;0;0;0;0;0;0;0;0;0;0;0;0;0;0;488;363.429;14.2945;491.843;370.009;0;23;1;-0.223389;-0.26582;-0.865939;-0.240899;-0.28216;-0.832642;0.354173;0.550858;-0.718079;-0.0586594;1.13746;0.508558;0;0;0;0;0;0;0;0;0;0;675;304;1024;1024;1024;224;1024;1024;1024;1;4;0;0;0;0;0; 
5962;5977;2019/11/01 19:50:54;0;-1;-1;-1;-1;-1;100;0;0;0;0;0;0;0;0;0;0;0;0;0;0;485;358.25;14.3891;488.995;364.662;0;24;1;-0.211505;-0.24377;-0.871853;-0.232081;-0.27064;-0.844405;0.385635;0.557656;-0.728618;0.366147;1.11397;0.348364;0;0;0;0;0;0;0;0;0;0;675;304;1024;1024;1024;224;1024;1024;1024;1;4;0;0;0;0;0; 
5963;5978;2019/11/01 19:50:54;0;-1;-1;-1;-1;-1;100;0;0;0;0;0;0;0;0;0;0;0;0;0;0;483.333;354.222;14.3461;486.43;359.583;0;25;1;-0.206334;-0.23678;-0.883518;-0.224357;-0.26048;-0.856139;0.411635;0.574473;-0.729829;0.758667;1.1824;0.24466;0;0;0;0;0;0;0;0;0;0;675;304;1024;1024;1024;224;1024;1024;1024;1;4;0;0;0;0;0; 
5964;5979;2019/11/01 19:50:54;0;-1;-1;-1;-1;-1;100;0;0;0;0;0;0;0;0;0;0;0;0;0;0;481.429;350;14.1974;484.001;354.643;0;26;1;-0.201794;-0.2384;-0.902367;-0.217588;-0.25386;-0.870008;0.424122;0.569894;-0.739911;0.99171;1.09988;0.100011;0;0;0;0;0;0;0;0;0;0;675;304;1024;1024;1024;224;1024;1024;1024;1;4;0;0;0;0;0; 
5965;5980;2019/11/01 19:50:54;0;-1;-1;-1;-1;-1;100;0;0;0;0;0;0;0;0;0;0;0;0;0;0;478.25;344.25;14.1152;481.278;349.334;0;27;1;-0.191719;-0.23006;-0.920758;-0.209827;-0.24672;-0.885233;0.431769;0.544962;-0.763209;1.06629;0.762701;-0.139324;0;0;0;0;0;0;0;0;0;0;675;304;1024;1024;1024;224;1024;1024;1024;1;4;0;0;0;0;0; 
5966;5981;2019/11/01 19:50:54;0;-1;-1;-1;-1;-1;100;0;0;0;0;0;0;0;0;0;0;0;0;0;0;475.429;340;14.1791;478.453;344.225;0;28;1;-0.180914;-0.21308;-0.926276;-0.201153;-0.23663;-0.897546;0.447717;0.536723;-0.774039;1.09634;0.410164;-0.347541;0;0;0;0;0;0;0;0;0;0;675;304;1024;1024;1024;224;1024;1024;1024;1;4;0;0;0;0;0; 
5967;5982;2019/11/01 19:50:54;0;-1;-1;-1;-1;-1;100;0;0;0;0;0;0;0;0;0;0;0;0;0;0;474.25;335.75;14.1321;476.068;339.267;0;29;1;-0.17735;-0.20565;-0.939058;-0.194012;-0.22733;-0.91;0.455836;0.540932;-0.773286;1.06371;0.206467;-0.428951;0;0;0;0;0;0;0;0;0;0;675;304;1024;1024;1024;224;1024;1024;1024;1;4;0;0;0;0;0; 
5968;5983;2019/11/01 19:50:54;0;-1;-1;-1;-1;-1;100;0;0;0;0;0;0;0;0;0;0;0;0;0;0;473.429;330;13.9629;474.118;333.954;0;30;1;-0.17656;-0.20455;-0.96372;-0.188776;-0.2205;-0.926116;0.446402;0.52477;-0.790214;0.880848;-0.00742257;-0.503301;0;0;0;0;0;0;0;0;0;0;675;304;1024;1024;1024;224;1024;1024;1024;1;4;0;0;0;0;0; 
5969;5984;2019/11/01 19:50:54;0;-1;-1;-1;-1;-1;100;0;0;0;0;0;0;0;0;0;0;0;0;0;0;471.6;325;13.8785;472.172;328.62;0;31;1;-0.171051;-0.19812;-0.981194;-0.183459;-0.21379;-0.942639;0.431135;0.501317;-0.819495;0.606366;-0.296544;-0.659986;0;0;0;0;0;0;0;0;0;0;675;304;1024;1024;1024;224;1024;1024;1024;1;4;0;0;0;0;0; 
5970;5985;2019/11/01 19:50:54;0;-1;-1;-1;-1;-1;100;0;0;0;0;0;0;0;0;0;0;0;0;0;0;469.429;320;13.855;470.123;323.276;0;32;1;-0.163512;-0.18639;-0.994503;-0.177475;-0.20557;-0.958198;0.41884;0.493599;-0.843814;0.34273;-0.482546;-0.810842;0;0;0;0;0;0;0;0;0;0;675;304;1024;1024;1024;224;1024;1024;1024;1;4;0;0;0;0;0; 
5971;5986;2019/11/01 19:50:54;0;-1;-1;-1;-1;-1;100;0;0;0;0;0;0;0;0;0;0;0;0;0;0;468.25;315.75;14.0357;468.312;318.162;0;33;1;-0.157211;-0.15956;-0.991462;-0.171396;-0.19177;-0.968177;0.404748;0.515573;-0.837459;0.0977524;-0.40687;-0.782959;0;0;0;0;0;0;0;0;0;0;675;304;1024;1024;1024;224;1024;1024;1024;1;4;0;0;0;0;0; 
5972;5987;2019/11/01 19:50:54;0;-1;-1;-1;-1;-1;100;0;0;0;0;0;0;0;0;0;0;0;0;0;0;468;311.429;13.8007;466.968;313.2;0;34;1;-0.158983;-0.16736;-1.01844;-0.167672;-0.18444;-0.983257;0.376528;0.517701;-0.844693;-0.225582;-0.320067;-0.751874;0;0;0;0;0;0;0;0;0;0;675;304;1024;1024;1024;224;1024;1024;1024;1;4;0;0;0;0;0; 
5973;5988;2019/11/01 19:50:54;0;-1;-1;-1;-1;-1;100;0;0;0;0;0;0;0;0;0;0;0;0;0;0;466;306.4;13.6671;465.413;308.128;0;35;1;-0.153227;-0.16473;-1.04027;-0.163338;-0.17853;-1.00036;0.348387;0.505477;-0.867596;-0.564356;-0.3336;-0.827671;0;0;0;0;0;0;0;0;0;0;675;304;1024;1024;1024;224;1024;1024;1024;1;4;0;0;0;0;0; 
5974;5989;2019/11/01 19:50:54;0;-1;-1;-1;-1;-1;100;0;0;0;0;0;0;0;0;0;0;0;0;0;0;463.091;301.273;13.7157;463.417;302.948;0;36;1;-0.142089;-0.14635;-1.04864;-0.156964;-0.16888;-1.01484;0.336051;0.509394;-0.874822;-0.779211;-0.261549;-0.834417;0;0;0;0;0;0;0;0;0;0;675;304;1024;1024;1024;224;1024;1024;1024;1;4;0;0;0;0;0; 
5975;5990;2019/11/01 19:50:54;0;-1;-1;-1;-1;-1;100;0;0;0;0;0;0;0;0;0;0;0;0;0;0;461.75;296.25;13.9477;461.598;297.726;0;37;1;-0.134922;-0.11354;-1.04281;-0.150351;-0.15228;-1.02323;0.333818;0.551219;-0.846685;-0.856081;0.0423142;-0.609213;0;0;0;0;0;0;0;0;0;0;675;304;1024;1024;1024;224;1024;1024;1024;1;4;0;0;0;0;0; 
5976;5991;2019/11/01 19:50:54;0;-1;-1;-1;-1;-1;100;0;0;0;0;0;0;0;0;0;0;0;0;0;0;460;292;13.6225;459.778;292.722;0;38;1;-0.131725;-0.12822;-1.07777;-0.144763;-0.14506;-1.0396;0.330896;0.572314;-0.833002;-0.864783;0.339672;-0.322359;0;0;0;0;0;0;0;0;0;0;675;304;1024;1024;1024;224;1024;1024;1024;1;4;0;0;0;0;0; 
5977;5992;2019/11/01 19:50:54;0;-1;-1;-1;-1;-1;100;0;0;0;0;0;0;0;0;0;0;0;0;0;0;457;288;13.5525;457.563;287.959;0;39;1;-0.121347;-0.12279;-1.09285;-0.137739;-0.13838;-1.05557;0.332919;0.556544;-0.84874;-0.80566;0.367387;-0.238456;0;0;0;0;0;0;0;0;0;0;675;580;1088;897;1024;224;1024;1024;1024;1;4;0;0;0;0;0; 
5978;5993;2019/11/01 19:50:54;0;-1;-1;-1;-1;-1;101;0;0;0;0;0;0;0;0;0;0;0;0;0;0;454;282.571;13.6109;455.062;282.921;0;40;1;-0.109816;-0.10276;-1.10103;-0.129362;-0.12769;-1.06921;0.352713;0.560517;-0.852423;-0.578485;0.39138;-0.173934;0;0;0;0;-0.0095141;-1.20276;-1.35674;0;0;0;675;580;1085;900;1024;224;1024;1024;1024;1;4;0;0;0;0;0; 
5979;5994;2019/11/01 19:50:54;0;-1;-1;-1;-1;-1;102;0;0;0;0;0;0;0;0;0;0;0;0;0;0;452;278.4;13.745;452.672;278.085;0;41;1;-0.101475;-0.08042;-1.10007;-0.120996;-0.11351;-1.07847;0.380689;0.595919;-0.823316;-0.218119;0.595932;0.0724354;0;0;0;0;0.00859585;-1.18042;-1.36609;0;0;0;675;580;1083;902;1024;224;1024;1024;1024;1;4;0;0;0;0;0; 
5980;5995;2019/11/01 19:50:54;0;-1;-1;-1;-1;-1;103;0;0;0;0;0;0;0;0;0;0;0;0;0;0;449;275;13.4961;450.047;273.643;0;42;1;-0.0922412;-0.09073;-1.12848;-0.112369;-0.10668;-1.09347;0.406464;0.6059;-0.80793;0.150267;0.742876;0.310541;0;0;0;0;0.0282598;-1.19073;-1.38909;0;0;0;675;580;1082;905;1024;224;1024;1024;1024;1;4;0;0;0;0;0; 
5981;5996;2019/11/01 19:50:54;0;-1;-1;-1;-1;-1;104;0;0;0;0;0;0;0;0;0;0;0;0;0;0;445.667;271.667;13.6172;447.147;269.511;0;43;1;-0.079192;-0.07169;-1.12634;-0.102416;-0.09618;-1.10333;0.435268;0.587516;-0.804571;0.495219;0.590646;0.354476;0;0;0;0;0.0534651;-1.17169;-1.39003;0;0;0;675;580;1079;907;1024;224;1024;1024;1024;1;4;0;0;0;0;0; 
5982;5997;2019/11/01 19:50:54;0;-1;-1;-1;-1;-1;105;0;0;0;0;0;0;0;0;0;0;0;0;0;0;441.75;268.25;13.5117;443.864;265.579;0;44;1;-0.0653294;-0.07042;-1.1433;-0.0912901;-0.08845;-1.11532;0.474662;0.578533;-0.785102;0.871145;0.379221;0.403932;0;0;0;0;0.0799658;-1.17042;-1.41187;0;0;0;675;580;1077;909;1024;224;1024;1024;1024;1;4;0;0;0;0;0; 
5983;5998;2019/11/01 19:50:54;0;-1;-1;-1;-1;-1;106;0;0;0;0;0;0;0;0;0;0;0;0;0;0;438;266.571;13.4412;440.36;262.346;0;45;1;-0.0517341;-0.07126;-1.15332;-0.0794233;-0.08329;-1.12672;0.517631;0.567056;-0.755139;1.26018;0.269503;0.616075;0;0;0;0;0.110202;-1.17126;-1.42116;0;0;0;675;1824;1077;909;1024;224;1024;1024;1024;1;4;0;0;0;0;0; 
5984;5999;2019/11/01 19:50:54;0;-1;-1;-1;-1;-1;107;0;0;0;0;0;0;0;0;0;0;0;0;0;0;435;263;13.357;436.935;259.019;0;46;1;-0.0408399;-0.06781;-1.16921;-0.0678483;-0.07865;-1.13947;0.556181;0.536043;-0.733608;1.56849;0.0639849;0.844031;0;0;0;0;0.139543;-1.16781;-1.43236;0;0;0;675;1824;1077;909;1024;224;1024;1024;1024;1;4;0;0;0;0;0; 
5985;6000;2019/11/01 19:50:54;0;-1;-1;-1;-1;-1;108;0;0;0;0;0;0;0;0;0;0;0;0;0;0;431;262;13.0768;433.254;256.44;0;47;1;-0.0264339;-0.08778;-1.19673;-0.0554239;-0.08139;-1.15665;0.595515;0.449876;-0.752311;1.79882;-0.544708;0.789919;0;0;0;0;0.169856;-1.18778;-1.45564;0;0;0;675;1824;1077;909;1024;224;1024;1024;1024;1;4;0;0;0;0;0; 
5986;6001;2019/11/01 19:50:54;0;-1;-1;-1;-1;-1;109;0;0;0;0;0;0;0;0;0;0;0;0;0;0;426.667;259.778;13.211;429.284;254.016;0;48;1;-0.0097789;-0.07031;-1.19;-0.0417304;-0.07806;-1.16665;0.639346;0.38416;-0.743574;2.00912;-1.21216;0.730906;0;0;0;0;0.207452;-1.17031;-1.46443;0;0;0;675;1824;1077;909;1024;224;1024;1024;1024;1;4;0;0;0;0;0; 
5987;6002;2019/11/01 19:50:54;0;-1;-1;-1;-1;-1;110;0;0;0;0;0;0;0;0;0;0;0;0;0;0;423.429;260;12.8737;425.456;252.479;0;49;1;0.00253052;-0.09902;-1.22063;-0.0284521;-0.08435;-1.18285;0.678921;0.27773;-0.76361;2.1783;-1.96417;0.602086;0;0;0;0;0.238363;-1.19902;-1.49491;0;0;0;675;1824;1077;909;1024;224;1024;1024;1024;1;4;0;0;0;0;0; 
5988;6003;2019/11/01 19:50:54;0;-1;-1;-1;-1;-1;111;0;0;0;0;0;0;0;0;0;0;0;0;0;0;418.222;258.667;12.6482;421.109;251.09;0;50;1;0.0231392;-0.11458;-1.24578;-0.0129747;-0.09342;-1.20173;0.72004;0.146798;-0.803149;2.28669;-2.90228;0.289196;0;0;0;0;0.277952;-1.21458;-1.53238;0;0;0;675;1824;1077;909;1024;224;1024;1024;1024;1;4;0;0;0;0;0; 
5989;6004;2019/11/01 19:50:54;0;-1;-1;-1;-1;-1;112;0;0;0;0;0;0;0;0;0;0;0;0;0;0;414;258;12.6418;416.702;250.016;0;51;1;0.0398362;-0.11314;-1.24812;0.00286856;-0.09934;-1.21565;0.760588;0.0240295;-0.836933;2.34206;-3.90949;-0.153057;0;0;0;0;0.317611;-1.21314;-1.55796;0;0;0;675;1824;1077;909;1024;224;1024;1024;1024;1;4;0;0;0;0;0; 
5990;6005;2019/11/01 19:50:54;0;-1;-1;-1;-1;-1;113;0;0;0;0;0;0;0;0;0;0;0;0;0;0;407;259;12.5664;411.371;249.698;0;52;1;0.0679031;-0.12285;-1.25304;0.0223789;-0.10639;-1.22686;0.816601;-0.0963366;-0.851093;2.44501;-4.87058;-0.56091;0;0;0;0;0.36793;-1.22285;-1.58318;0;0;0;675;1824;1077;909;1024;224;1024;1024;1024;1;4;0;0;0;0;0; 
5991;6006;2019/11/01 19:50:54;0;-1;-1;-1;-1;-1;114;0;0;0;0;0;0;0;0;0;0;0;0;0;0;402;260;12.5404;406.012;249.923;0;53;1;0.0879625;-0.12822;-1.25306;0.042054;-0.11294;-1.23472;0.879158;-0.183772;-0.822383;2.5995;-5.45229;-0.61632;0;0;0;0;0.417862;-1.22822;-1.5969;0;0;0;675;1824;1077;909;1024;224;1024;1024;1024;1;4;0;0;0;0;0; 
5992;6007;2019/11/01 19:50:54;0;-1;-1;-1;-1;-1;115;0;0;0;0;0;0;0;0;0;0;0;0;0;0;397;262.4;12.6229;400.637;250.984;0;54;1;0.107176;-0.1281;-1.23874;0.0615905;-0.11749;-1.23593;0.940021;-0.267662;-0.770019;2.76019;-5.87389;-0.47538;0;0;0;0;0.471196;-1.2281;-1.57925;0;0;0;675;1824;1077;909;1024;224;1024;1024;1024;1;4;0;0;0;0;0; 
5993;6008;2019/11/01 19:50:54;0;-1;-1;-1;-1;-1;116;0;0;0;0;0;0;0;0;0;0;0;0;0;0;391.75;266.25;12.557;395.178;253.105;0;55;1;0.128625;-0.14572;-1.23536;0.081701;-0.12596;-1.23576;1.00382;-0.326719;-0.673267;2.95332;-5.9377;0.0754823;0;0;0;0;0.524232;-1.24572;-1.55942;0;0;0;675;1824;1077;909;1024;224;1024;1024;1024;1;4;0;0;0;0;0; 
5994;6009;2019/11/01 19:50:54;0;-1;-1;-1;-1;-1;117;0;0;0;0;0;0;0;0;0;0;0;0;0;0;385.75;269.75;12.5544;389.423;255.877;0;56;1;0.152527;-0.15659;-1.22662;0.102949;-0.13515;-1.23302;1.06514;-0.362634;-0.528882;3.14984;-5.59661;1.14035;0;0;0;0;0.582188;-1.25659;-1.51479;0;0;0;675;1824;1077;909;1024;224;1024;1024;1024;1;4;0;0;0;0;0; 
5995;6010;2019/11/01 19:50:54;0;-1;-1;-1;-1;-1;118;0;0;0;0;0;0;0;0;0;0;0;0;0;0;381;272;12.4444;383.858;258.714;0;57;1;0.172944;-0.17371;-1.23163;0.123947;-0.14672;-1.2326;1.12251;-0.406759;-0.385027;3.33493;-5.07796;2.48852;0;0;0;0;0.634266;-1.27371;-1.4607;0;0;0;675;1824;1077;909;1024;224;1024;1024;1024;1;4;0;0;0;0;0; 
5996;6011;2019/11/01 19:50:54;0;-1;-1;-1;-1;-1;119;0;0;0;0;0;0;0;0;0;0;0;0;0;0;375.333;275.778;12.5035;378.144;262.073;0;58;1;0.194768;-0.1797;-1.21607;0.145194;-0.15661;-1.22764;1.16386;-0.444575;-0.234126;3.38747;-4.43718;3.95646;0;0;0;0;0.69053;-1.2797;-1.38612;0;0;0;675;1824;1077;909;1024;224;1024;1024;1024;1;4;0;0;0;0;0; 
5997;6012;2019/11/01 19:50:54;0;-1;-1;-1;-1;-1;120;0;0;0;0;0;0;0;0;0;0;0;0;0;0;370;280;12.6306;372.433;265.944;0;59;1;0.213902;-0.18057;-1.19304;0.165806;-0.1638;-1.21726;1.19242;-0.469815;-0.0707598;3.28323;-3.80438;5.37486;0;0;0;0;0.739412;-1.28057;-1.29876;0;0;0;675;1824;1077;909;1024;224;1024;1024;1024;1;4;0;0;0;0;0; 
5998;6013;2019/11/01 19:50:54;0;-1;-1;-1;-1;-1;121;0;0;0;0;0;0;0;0;0;0;0;0;0;0;365.5;282.833;12.5375;366.995;269.733;0;60;1;0.233422;-0.19796;-1.19462;0.186091;-0.17405;-1.21047;1.21254;-0.507723;0.0591956;3.05802;-3.24112;6.53569;0;0;0;0;0.779763;-1.29796;-1.22704;0;0;0;675;1824;1077;909;1024;224;1024;1024;1024;1;4;0;0;0;0;0; 
5999;6014;2019/11/01 19:50:54;0;-1;-1;-1;-1;-1;122;0;0;0;0;0;0;0;0;0;0;0;0;0;0;360.25;288.25;12.7608;361.521;274.275;0;61;1;0.24989;-0.19319;-1.16002;0.205231;-0.17979;-1.19534;1.22074;-0.519582;0.19691;2.7009;-2.71471;7.39575;0;0;0;0;0.820415;-1.2932;-1.13217;0;0;0;675;1824;1077;909;1024;224;1024;1024;1024;1;4;0;0;0;0;0; 
6000;6015;2019/11/01 19:50:54;0;-1;-1;-1;-1;-1;123;0;0;0;0;0;0;0;0;0;0;0;0;0;0;355;294;12.641;356.024;279.46;0;62;1;0.273007;-0.22186;-1.15635;0.225563;-0.19241;-1.18364;1.222;-0.540392;0.315292;2.24686;-2.33855;7.80796;0;0;0;0;0.855526;-1.32186;-1.06238;0;0;0;675;1824;1077;909;1024;224;1024;1024;1024;1;4;0;0;0;0;0; 
6001;6016;2019/11/01 19:50:54;0;-1;-1;-1;-1;-1;124;0;0;0;0;0;0;0;0;0;0;0;0;0;0;351;298;12.6469;350.914;284.54;0;63;1;0.288679;-0.23335;-1.1456;0.244498;-0.20469;-1.17223;1.21452;-0.555718;0.430222;1.71548;-1.99788;7.93979;0;0;0;0;0.883071;-1.33335;-0.992244;0;0;0;675;1824;645;1500;1024;224;1024;1024;1024;1;4;0;0;0;0;0; 
6002;6017;2019/11/01 19:50:54;0;406.146;312.748;10.7776;406.146;312.748;0;1;1;0.0831308;-1.49948;-1.30017;0.0831308;-1.49948;-1.30017;0;0;0;0;0;0;345.733;303.2;12.7412;345.685;289.916;0;64;1;0.307194;-0.2398;-1.12397;0.263307;-0.21523;-1.15775;1.2003;-0.56746;0.537186;1.17476;-1.68937;7.84347;1;0;0;0;0.911067;-1.3398;-0.910057;0;0;0;495.14;1824;639;1499;1024;224;1024;1024;1024;1;4;0;100.317;0;0;0; 
6003;6018;2019/11/01 19:50:55;0;418;311.747;11.5015;407.224;312.657;0;2;1;0.0264116;-1.40178;-1.22115;0.066115;-1.47017;-1.27647;0;0;0;0;0;0;340.4;309.8;12.7279;340.35;295.942;0;65;1;0.328447;-0.26087;-1.10841;0.282849;-0.22892;-1.14295;1.18749;-0.60048;0.61902;0.685189;-1.53532;7.46014;1;0;0;0;0.911067;-1.3398;-0.910057;0;0;0;495.14;1824;633;1498;1024;224;1024;1024;1024;1;4;0;0.0166978;0;0;0; 
6004;6019;2019/11/01 19:50:55;0;424.472;311.5;12.374;409.996;312.471;0;3;1;-0.00158088;-1.30218;-1.13568;0.0458063;-1.41977;-1.23423;0;0;0;0;0;0;336;314;12.8299;335.24;301.661;0;66;1;0.342969;-0.26334;-1.08904;0.300885;-0.23925;-1.12678;1.17083;-0.620595;0.705566;0.244584;-1.37185;7.05683;1;0;0;0;0.911067;-1.3398;-0.910057;0;0;0;495.14;1824;629;1496;1024;224;1024;1024;1024;1;4;0;0.0166968;0;0;0; 
6005;6020;2019/11/01 19:50:55;0;431.769;310.462;13.385;414.528;312.053;0;4;1;-0.0286962;-1.20086;-1.05241;0.0234555;-1.3541;-1.17968;0;0;0;0;0;0;330.375;319.25;12.8986;329.906;307.482;0;67;1;0.362927;-0.27213;-1.07011;0.319498;-0.24911;-1.10978;1.15873;-0.649124;0.764943;-0.100825;-1.34033;6.50207;1;0;0;0;0.911067;-1.3398;-0.910057;0;0;0;495.14;1824;624;1495;1024;224;1024;1024;1024;1;4;0;0.0166978;0;0;0; 
6006;6021;2019/11/01 19:50:55;0;441.725;308.625;14.1518;421.002;311.238;0;5;1;-0.0622861;-1.13084;-0.999566;-0.00226697;-1.28712;-1.12565;0;0;0;0;0;0;324.667;325;12.9059;324.384;313.525;0;68;1;0.38482;-0.28842;-1.05514;0.339094;-0.2609;-1.09339;1.14853;-0.662938;0.819311;-0.353845;-1.29348;5.91362;1;0;0;0;0.911067;-1.3398;-0.910057;0;0;0;495.14;1824;621;1494;1024;224;1024;1024;1024;1;4;0;0.0166968;0;0;0; 
6007;6022;2019/11/01 19:50:55;0;453.14;305.44;15.47;429.252;309.753;0;6;1;-0.093841;-1.02663;-0.921033;-0.0297392;-1.20897;-1.06426;0;0;0;0;0;0;319;330;13.0311;318.742;319.479;0;69;1;0.402845;-0.29067;-1.03263;0.35822;-0.26983;-1.07516;1.14313;-0.657826;0.879121;-0.497309;-1.18374;5.34033;1;0;0;0;0.911067;-1.3398;-0.910057;0;0;0;495.14;1824;618;1492;1024;224;1024;1024;1024;1;4;0;0.0167061;0;0;0; 
6008;6023;2019/11/01 19:50:55;0;466.193;300.719;16.6872;439.18;307.335;0;7;1;-0.126073;-0.940949;-0.862975;-0.0586394;-1.12857;-1.00388;0;0;0;0;0;0;313.6;334;13.1622;313.104;325.038;0;70;1;0.419329;-0.28941;-1.01254;0.376552;-0.27571;-1.05637;1.13799;-0.636159;0.932205;-0.547132;-0.984511;4.78125;1;0;0;0;0.911067;-1.3398;-0.910057;0;0;0;495.14;1824;614;1490;1024;224;1024;1024;1024;1;4;0;0.0166968;0;0;0; 
6009;6024;2019/11/01 19:50:55;0;480.851;293.518;18.1944;450.736;303.529;0;8;1;-0.155877;-0.847904;-0.804255;-0.0878107;-1.04437;-0.94399;-1.53631;4.24987;3.31838;-5.16275;24.8983;18.9495;309.867;336.533;13.0808;308.001;329.835;0;71;1;0.436198;-0.30483;-1.0126;0.394446;-0.28444;-1.04324;1.12833;-0.603369;0.957392;-0.564482;-0.60224;4.21965;1;0;0;0;0.911067;-1.3398;-0.910057;0;0;0;495.14;1824;615;1490;1024;224;1024;1024;1024;1;4;0;0.0166978;0;0;0; 
6010;6025;2019/11/01 19:50:55;0;496.575;280.988;18.3555;463.764;297.197;0;9;1;-0.197303;-0.814422;-0.819212;-0.120659;-0.975384;-0.906557;-1.58637;4.32407;3.29921;-4.57498;20.1516;14.4427;306.125;338.625;13.1052;303.288;333.928;0;72;1;0.449646;-0.30848;-1.00556;0.411006;-0.29166;-1.03194;1.11664;-0.571261;0.953072;-0.555045;-0.164388;3.51992;1;0;0;0;0.911067;-1.3398;-0.910057;0;0;0;495.14;1824;617;1492;1024;224;1024;1024;1024;1;4;0;0.0166968;0;0;0; 
6011;6026;2019/11/01 19:50:55;0;509.421;264.303;18.4831;477.064;287.795;0;10;1;-0.230663;-0.774356;-0.842672;-0.15366;-0.915075;-0.887391;-1.65893;4.34717;3.14646;-4.02404;13.7443;8.18539;302.429;339.286;13.2005;298.873;337.049;0;73;1;0.460391;-0.30095;-0.996689;0.425822;-0.29444;-1.02136;1.09446;-0.523737;0.924828;-0.589594;0.401952;2.75026;1;0;0;0;0.911067;-1.3398;-0.910057;0;0;0;495.14;1824;625;1496;1024;224;1024;1024;1024;1;4;0;0.0166978;0;0;0; 
6012;6027;2019/11/01 19:50:55;0;535.837;251.673;18.4926;494.41;277.246;0;11;1;-0.301906;-0.747905;-0.864266;-0.198133;-0.864924;-0.880454;-1.77732;4.29386;2.86678;-3.35963;9.37419;3.43608;297.429;341;13.337;294.26;339.796;0;74;1;0.474409;-0.29254;-0.982345;0.440398;-0.29387;-1.00966;1.06112;-0.445866;0.889177;-0.702739;1.1078;1.92909;1;0;0;0;0.911067;-1.3398;-0.910057;0;0;0;495.14;1824;632;1499;1024;224;1024;1024;1024;1;4;0;0.0166968;0;0;0; 
6013;6028;2019/11/01 19:50:55;0;542.58;240.725;18.4902;509.146;266.318;0;12;1;-0.320162;-0.725409;-0.883474;-0.234742;-0.82307;-0.88136;-1.8849;4.1171;2.45034;-2.97583;3.3856;-2.8256;294.4;342;13.473;290.131;342.04;0;75;1;0.480849;-0.28232;-0.970033;0.452533;-0.29041;-0.99777;1.01323;-0.349662;0.842495;-0.940294;1.89507;1.01122;1;0;0;0;0.911067;-1.3398;-0.910057;0;0;0;495.14;1824;644;1504;1024;224;1024;1024;1024;1;4;0;0.016698;0;0;0; 
6014;6029;2019/11/01 19:50:55;0;533.143;214.349;16.5232;517.264;250.646;0;13;1;-0.329745;-0.750868;-1.04013;-0.263243;-0.801409;-0.928991;-1.94785;3.77648;1.7692;-2.65178;-2.118;-9.07171;291.273;342.182;13.3249;286.325;343.658;0;76;1;0.497919;-0.2971;-0.980377;0.466149;-0.29242;-0.992552;0.965668;-0.276506;0.760313;-1.25221;2.57301;-0.0795745;1;0;0;0;0.911067;-1.3398;-0.910057;0;0;0;495.14;1824;661;1512;1024;224;1024;1024;1024;1;4;0;0.0166968;0;0;0; 
6015;6030;2019/11/01 19:50:55;0;552.5;204.071;14.4954;528.851;236.121;0;14;1;-0.442586;-0.828857;-1.20851;-0.317046;-0.809644;-1.01285;-2.08397;3.20306;0.786602;-3.77769;-5.45036;-15.5516;288;342.333;13.3627;282.704;344.809;0;77;1;0.508745;-0.29386;-0.977236;0.478928;-0.29285;-0.987957;0.916708;-0.19946;0.676916;-1.59626;3.15648;-1.16759;1;0;0;0;0.911067;-1.3398;-0.910057;0;0;0;495.14;1824;678;1519;1024;224;1024;1024;1024;1;4;0;0.0166978;0;0;0; 
6016;6031;2019/11/01 19:50:55;0;575;194;12.5764;543.942;222.504;0;15;1;-0.599497;-0.924782;-1.41874;-0.599497;-0.924782;-1.41874;0;0;0;0;0;0;285;343;13.4443;279.305;345.788;0;78;1;0.516805;-0.2879;-0.969707;0.490291;-0.29136;-0.982482;0.866583;-0.118514;0.603604;-1.95614;3.70155;-2.09586;1;0;0;0;0.911067;-1.3398;-0.910057;0;0;0;495.14;1824;695;1524;1024;224;1024;1024;1024;1;4;0;0.0166968;0;0;0; 
6017;6032;2019/11/01 19:50:55;0;575;194;12.5764;545.82;220.945;1;0;1;-0.599497;-0.924782;-1.41874;-0.599497;-0.924782;-1.41874;0;0;0;0;0;0;281.833;343.333;13.3269;276.011;346.536;0;79;1;0.533227;-0.3002;-0.97744;0.503172;-0.29401;-0.980969;0.828783;-0.0693934;0.523437;-2.23446;4.03497;-2.86014;1;0;0;0;0.911067;-1.3398;-0.910057;0;0;0;495.14;1824;711;1530;1024;224;1024;1024;1024;1;4;0;0.0166968;0;0;0; 
6018;6033;2019/11/01 19:50:55;0;575;194;12.5764;547.699;219.386;2;0;1;-0.599497;-0.924782;-1.41874;-0.599497;-0.924782;-1.41874;0;0;0;0;0;0;279;345;13.2938;272.9;347.542;0;80;1;0.545203;-0.30822;-0.975832;0.515781;-0.29828;-0.979428;0.798251;-0.0592147;0.434756;-2.39021;3.96475;-3.53043;1;0;0;0;0.911067;-1.3398;-0.910057;0;0;0;495.14;1824;726;1535;1024;224;1024;1024;1024;1;4;0;0.0166968;0;0;0; 
6019;6034;2019/11/01 19:50:55;0;575;194;12.5764;549.578;217.827;3;0;1;-0.599497;-0.924782;-1.41874;-0.599497;-0.924782;-1.41874;0;0;0;0;0;0;275.6;346;13.2161;269.738;348.525;0;81;1;0.561259;-0.31879;-0.979126;0.529425;-0.30443;-0.979337;0.785953;-0.0915183;0.334448;-2.34158;3.40953;-4.14672;1;0;0;0;0.911067;-1.3398;-0.910057;0;0;0;495.14;1824;741;1540;1024;224;1024;1024;1024;1;4;0;0.0166968;0;0;0; 
6020;6035;2019/11/01 19:50:55;0;575;194;12.5764;551.457;216.268;4;0;1;-0.599497;-0.924782;-1.41874;-0.599497;-0.924782;-1.41874;0;0;0;0;0;0;272.769;347.231;13.2611;266.72;349.566;0;82;1;0.570019;-0.31786;-0.97281;0.541603;-0.30846;-0.977379;0.772835;-0.118971;0.261248;-2.17487;2.67471;-4.48063;1;0;0;0;0.911067;-1.3398;-0.910057;0;0;0;495.14;1824;751;1544;1024;224;1024;1024;1024;1;4;0;0.0166968;0;0;0; 
6021;6036;2019/11/01 19:50:55;0;575;194;12.5764;553.336;214.709;5;0;1;-0.599497;-0.924782;-1.41874;-0.599497;-0.924782;-1.41874;0;0;0;0;0;0;269.231;348.769;13.0993;263.577;350.747;0;83;1;0.590556;-0.33862;-0.981042;0.556289;-0.31751;-0.978478;0.772579;-0.169843;0.194596;-1.88038;1.72308;-4.61413;1;0;0;0;0.911067;-1.3398;-0.910057;0;0;0;495.14;1824;759;1547;1024;224;1024;1024;1024;1;4;0;0.0166968;0;0;0; 
6022;6037;2019/11/01 19:50:55;0;575;194;12.5764;555.214;213.15;6;0;1;-0.599497;-0.924782;-1.41874;-0.599497;-0.924782;-1.41874;0;0;0;0;0;0;266.769;349.231;13.0237;260.687;351.688;0;84;1;0.603424;-0.34774;-0.985588;0.570429;-0.32658;-0.980611;0.783513;-0.242502;0.124228;-1.4599;0.538803;-4.68247;1;0;0;0;0.911067;-1.3398;-0.910057;0;0;0;495.14;1824;769;1550;1024;224;1024;1024;1024;1;4;0;0.0166968;0;0;0; 
6023;6038;2019/11/01 19:50:55;0;575;194;12.5764;557.093;211.591;7;0;1;-0.599497;-0.924782;-1.41874;-0.599497;-0.924782;-1.41874;0;0;0;0;0;0;263.333;351.778;13.0188;257.667;353.12;0;85;1;0.616836;-0.35571;-0.979651;0.584351;-0.33532;-0.980323;0.794231;-0.310415;0.0771173;-1.01389;-0.639037;-4.59149;1;0;0;0;0.911067;-1.3398;-0.910057;0;0;0;495.14;1824;769;1553;1024;224;1024;1024;1024;1;4;0;0.0166968;0;0;0; 
6024;6039;2019/11/01 19:50:55;0;575;194;12.5764;558.972;210.032;8;0;1;-0.599497;-0.924782;-1.41874;-0.599497;-0.924782;-1.41874;0;0;0;0;0;0;260.167;352.667;12.9656;254.637;354.38;0;86;1;0.63157;-0.36389;-0.981462;0.598517;-0.34389;-0.980665;0.806875;-0.368374;0.0413337;-0.5739;-1.61779;-4.3257;1;0;0;0;0.911067;-1.3398;-0.910057;0;0;0;495.14;1824;773;1554;1024;224;1024;1024;1024;1;4;0;0.0166968;0;0;0; 
6025;6040;2019/11/01 19:50:55;0;575;194;12.5764;560.851;208.473;9;0;1;-0.599497;-0.924782;-1.41874;-0.599497;-0.924782;-1.41874;0;0;0;0;0;0;256.833;355.5;12.8264;251.545;356.136;0;87;1;0.651407;-0.38712;-0.984988;0.614384;-0.35686;-0.981962;0.823339;-0.430356;0.0143224;-0.195067;-2.32354;-3.87358;1;0;0;0;0.911067;-1.3398;-0.910057;0;0;0;495.14;1824;768;1556;1024;224;1024;1024;1024;1;4;0;0.0166968;0;0;0; 
6026;6041;2019/11/01 19:50:55;0;575;194;12.5764;-1;-1;10;0;0;0;0;0;0;0;0;0;0;0;0;0;0;253.846;356.769;12.7068;248.518;357.752;0;88;1;0.669281;-0.40399;-0.991037;0.630853;-0.371;-0.984684;0.850351;-0.507909;-0.0205727;0.192456;-2.94703;-3.44936;0;0;0;0;0.911067;-1.3398;-0.910057;0;0;0;495.14;1824;767;1557;1024;224;1024;1024;1024;1;4;0;0;0;0;0; 
6027;6042;2019/11/01 19:50:55;0;575;194;12.5764;-1;-1;11;0;0;0;0;0;0;0;0;0;0;0;0;0;0;250.625;357.75;12.7646;245.46;359.174;0;89;1;0.678858;-0.40056;-0.984071;0.645255;-0.37987;-0.9845;0.86542;-0.553721;-0.0363881;0.48616;-3.30092;-2.99186;0;0;0;0;0.911067;-1.3398;-0.910057;0;0;0;495.14;1824;767;1557;1024;224;1024;1024;1024;1;4;0;0;0;0;0; 
6028;6043;2019/11/01 19:50:55;0;575;194;12.5764;-1;-1;12;0;0;0;0;0;0;0;0;0;0;0;0;0;0;247.231;359.231;12.6926;242.324;360.615;0;90;1;0.696067;-0.41295;-0.985889;0.660498;-0.38979;-0.984917;0.878868;-0.584632;-0.0390242;0.672414;-3.34656;-2.44693;0;0;0;0;0.911067;-1.3398;-0.910057;0;0;0;495.14;1824;767;1557;1024;224;1024;1024;1024;1;4;0;0;0;0;0; 
6029;6044;2019/11/01 19:50:55;0;575;194;12.5764;-1;-1;13;0;0;0;0;0;0;0;0;0;0;0;0;0;0;244;360;12.551;239.183;361.842;0;91;1;0.716782;-0.43124;-0.995039;0.677383;-0.40223;-0.987953;0.898767;-0.617925;-0.05388;0.820823;-3.23573;-1.99119;0;0;0;0;0.911067;-1.3398;-0.910057;0;0;0;495.14;1824;745;1550;1024;224;1024;1024;1024;1;4;0;0;0;0;0; 
6030;6045;2019/11/01 19:50:55;0;575;194;12.5764;-1;-1;14;0;0;0;0;0;0;0;0;0;0;0;0;0;0;241.333;359.5;12.4391;236.217;362.51;0;92;1;0.733939;-0.44258;-1.00528;0.69435;-0.41433;-0.993153;0.92189;-0.652007;-0.082189;0.951708;-3.07389;-1.6879;0;0;0;0;0.911067;-1.3398;-0.910057;0;0;0;495.14;1824;760;1546;1024;224;1024;1024;1024;1;4;0;0;0;0;0; 
6031;6046;2019/11/01 19:50:55;0;575;194;12.5764;-1;-1;15;0;0;0;0;0;0;0;0;0;0;0;0;0;0;238.833;357.5;12.2668;233.429;362.294;0;93;1;0.754432;-0.45663;-1.02467;0.712374;-0.42702;-1.00261;0.944377;-0.671331;-0.131743;1.05429;-2.80646;-1.59593;0;0;0;0;0.911067;-1.3398;-0.910057;0;0;0;495.14;1824;803;1528;1024;224;1024;1024;1024;1;4;0;0;0;0;0; 
6032;6047;2019/11/01 19:50:55;0;575;194;12.5764;-1;-1;16;0;0;0;0;0;0;0;0;0;0;0;0;0;0;236.429;355.286;12.3067;230.799;361.371;0;94;1;0.761745;-0.44504;-1.02715;0.727186;-0.43243;-1.00997;0.951249;-0.648054;-0.179997;1.03542;-2.24343;-1.59409;0;0;0;0;0.911067;-1.3398;-0.910057;0;0;0;495.14;1824;887;1481;1024;224;1024;1024;1024;1;4;0;0;0;0;0; 
6033;6048;2019/11/01 19:50:55;0;575;194;12.5764;-1;-1;17;0;0;0;0;0;0;0;0;0;0;0;0;0;0;234.133;352.8;12.4072;228.318;359.852;0;95;1;0.764816;-0.42569;-1.02529;0.738475;-0.4304;-1.01456;0.942946;-0.590604;-0.228031;0.930787;-1.49332;-1.72162;0;0;0;0;0.911067;-1.3398;-0.910057;0;0;0;495.14;1824;1014;1331;1024;224;1024;1024;1024;1;4;0;0;0;0;0; 
6034;6049;2019/11/01 19:50:55;0;575;194;12.5764;-1;-1;18;0;0;0;0;0;0;0;0;0;0;0;0;0;0;233;350;12.2838;226.314;357.805;0;96;1;0.777111;-0.43132;-1.04294;0.750066;-0.43068;-1.02308;0.92338;-0.517596;-0.289178;0.736195;-0.62834;-2.03175;0;0;0;0;0.911067;-1.3398;-0.910057;0;0;0;495.14;1824;1014;1331;1024;224;1024;1024;1024;1;4;0;0;0;0;0; 
6035;6050;2019/11/01 19:50:55;0;575;194;12.5764;-1;-1;19;0;0;0;0;0;0;0;0;0;0;0;0;0;0;230.769;347.231;12.0402;224.302;355.39;0;97;1;0.802084;-0.45149;-1.07145;0.765671;-0.43692;-1.03759;0.906531;-0.449077;-0.371687;0.472717;0.297149;-2.48795;0;0;0;0;0.911067;-1.3398;-0.910057;0;0;0;495.14;1824;1014;1331;1024;224;1024;1024;1024;1;4;0;0;0;0;0; 
6036;6051;2019/11/01 19:50:55;0;575;194;12.5764;-1;-1;20;0;0;0;0;0;0;0;0;0;0;0;0;0;0;228.727;343.818;12.0474;222.343;352.51;0;98;1;0.810078;-0.43983;-1.07996;0.778993;-0.43779;-1.0503;0.88187;-0.363113;-0.451179;0.123845;1.33174;-2.96602;0;0;0;0;0.911067;-1.3398;-0.910057;0;0;0;495.14;1824;1014;1331;1024;224;1024;1024;1024;1;4;0;0;0;0;0; 
6037;6052;2019/11/01 19:50:55;0;575;194;12.5764;-1;-1;21;0;0;0;0;0;0;0;0;0;0;0;0;0;0;227;339.429;11.9413;220.519;348.988;0;99;1;0.824501;-0.43859;-1.10141;0.792646;-0.43803;-1.06563;0.849618;-0.261836;-0.522343;-0.304032;2.43403;-3.33915;0;0;0;0;0.911067;-1.3398;-0.910057;0;0;0;495.14;224;1024;1024;1024;224;1024;1024;1024;1;4;0;0;0;0;0; 
6038;6053;2019/11/01 19:50:55;0;575;194;12.5764;-1;-1;22;0;0;0;0;0;0;0;0;0;0;0;0;0;0;225.231;334.769;11.928;218.778;344.92;0;100;1;0.832825;-0.42529;-1.11523;0.804699;-0.43421;-1.08051;0.819257;-0.164223;-0.595054;-0.709419;3.39219;-3.66067;0;0;0;0;0.911067;-1.3398;-0.910057;0;0;0;495.14;224;1024;1024;1024;224;1024;1024;1024;1;4;0;0;0;0;0; 
6039;6054;2019/11/01 19:50:55;0;-1;-1;-1;-1;-1;22;0;0;0;0;0;0;0;0;0;0;0;0;0;0;223.091;330.727;12.1359;216.975;340.663;0;101;1;0.827368;-0.38816;-1.10686;0.8115;-0.4204;-1.08842;0.783119;-0.0585778;-0.651901;-1.06379;4.15952;-3.88878;0;0;0;0;1.03764;-1.48816;-1.25959;0;0;0;495.14;224;1024;1024;1024;224;1024;1024;1024;1;4;0;0;0;0;0; 
6040;6055;2019/11/01 19:50:55;0;-1;-1;-1;-1;-1;22;0;0;0;0;0;0;0;0;0;0;0;0;0;0;221.5;327.167;11.9877;215.3;336.431;0;102;1;0.844226;-0.39399;-1.13013;0.821318;-0.41248;-1.10093;0.754357;0.0375268;-0.701981;-1.31313;4.71214;-3.98145;0;0;0;0;1.04798;-1.49399;-1.29974;0;0;0;495.14;224;1024;1024;1024;224;1024;1024;1024;1;4;0;0;0;0;0; 
6041;6056;2019/11/01 19:50:55;0;-1;-1;-1;-1;-1;22;0;0;0;0;0;0;0;0;0;0;0;0;0;0;219;323;11.8066;213.424;332.031;0;103;1;0.867755;-0.40192;-1.15885;0.835249;-0.40931;-1.1183;0.730415;0.132767;-0.743459;-1.49105;5.15039;-3.87323;0;0;0;0;1.0677;-1.50192;-1.34491;0;0;0;495.14;224;1024;1024;1024;224;1024;1024;1024;1;4;0;0;0;0;0; 
6042;6057;2019/11/01 19:50:55;0;-1;-1;-1;-1;-1;22;0;0;0;0;0;0;0;0;0;0;0;0;0;0;216.6;318.6;11.8009;211.433;327.445;0;104;1;0.878333;-0.38837;-1.17143;0.848174;-0.40303;-1.13424;0.714466;0.218474;-0.781233;-1.56302;5.41232;-3.64174;0;0;0;0;1.07279;-1.48837;-1.36935;0;0;0;495.14;224;1024;1024;1024;224;1024;1024;1024;1;4;0;0;0;0;0; 
6043;6058;2019/11/01 19:50:55;0;-1;-1;-1;-1;-1;22;0;0;0;0;0;0;0;0;0;0;0;0;0;0;212.4;314;11.8424;208.781;322.667;0;105;1;0.892978;-0.36869;-1.17986;0.861615;-0.39272;-1.14793;0.704053;0.311986;-0.797322;-1.519;5.53847;-3.28294;0;0;0;0;1.08386;-1.46869;-1.38858;0;0;0;495.14;224;1024;1024;1024;224;1024;1024;1024;1;4;0;0;0;0;0; 
6044;6059;2019/11/01 19:50:55;0;-1;-1;-1;-1;-1;22;0;0;0;0;0;0;0;0;0;0;0;0;0;0;208;310.571;12.0171;205.585;318.132;0;106;1;0.898281;-0.3379;-1.1719;0.872615;-0.37628;-1.15512;0.693596;0.418497;-0.776286;-1.41313;5.6497;-2.69337;0;0;0;0;1.08457;-1.4379;-1.38287;0;0;0;495.14;224;1024;1024;1024;224;1024;1024;1024;1;4;0;0;0;0;0; 
6045;6060;2019/11/01 19:50:55;0;-1;-1;-1;-1;-1;22;0;0;0;0;0;0;0;0;0;0;0;0;0;0;205.75;307.75;11.7845;202.68;313.976;0;107;1;0.92555;-0.35517;-1.20275;0.888495;-0.36995;-1.16941;0.723576;0.452531;-0.789154;-1.08561;5.43051;-2.16402;0;0;0;0;1.11162;-1.45517;-1.41101;0;0;0;495.14;224;1024;1024;1024;224;1024;1024;1024;1;4;0;0;0;0;0; 
6046;6061;2019/11/01 19:50:55;0;-1;-1;-1;-1;-1;22;0;0;0;0;0;0;0;0;0;0;0;0;0;0;200.364;304.364;11.7373;198.986;309.921;0;108;1;0.952199;-0.34962;-1.2169;0.907606;-0.36385;-1.18366;0.778669;0.465678;-0.803794;-0.554297;4.96777;-1.70492;0;0;0;0;1.14946;-1.44962;-1.43204;0;0;0;495.14;224;1024;1024;1024;224;1024;1024;1024;1;4;0;0;0;0;0; 
6047;6062;2019/11/01 19:50:55;0;-1;-1;-1;-1;-1;22;0;0;0;0;0;0;0;0;0;0;0;0;0;0;195;301;11.735;194.727;305.952;0;109;1;0.975221;-0.33895;-1.22638;0.927891;-0.35638;-1.19647;0.83709;0.490742;-0.794383;0.0933401;4.40994;-1.22627;0;0;0;0;1.19131;-1.43895;-1.44944;0;0;0;495.14;224;1024;1024;1024;224;1024;1024;1024;1;4;0;0;0;0;0; 
6048;6063;2019/11/01 19:50:55;0;-1;-1;-1;-1;-1;22;0;0;0;0;0;0;0;0;0;0;0;0;0;0;189.6;298;11.853;190.048;302.169;0;110;1;0.988274;-0.31597;-1.22234;0.946006;-0.34425;-1.20423;0.892864;0.529102;-0.756084;0.768288;3.8862;-0.635353;0;0;0;0;1.22163;-1.41597;-1.44379;0;0;0;495.14;224;1024;1024;1024;224;1024;1024;1024;1;4;0;0;0;0;0; 
6049;6064;2019/11/01 19:50:55;0;-1;-1;-1;-1;-1;22;0;0;0;0;0;0;0;0;0;0;0;0;0;0;186.909;295.273;11.9119;185.932;298.612;0;111;1;0.99467;-0.30072;-1.22368;0.960605;-0.33119;-1.21007;0.930951;0.563135;-0.701751;1.3669;3.33447;0.000368029;0;0;0;0;1.244;-1.40072;-1.43482;0;0;0;495.14;224;1024;1024;1024;224;1024;1024;1024;1;4;0;0;0;0;0; 
6050;6065;2019/11/01 19:50:55;0;-1;-1;-1;-1;-1;22;0;0;0;0;0;0;0;0;0;0;0;0;0;0;179.818;292.727;11.6601;180.824;295.281;0;112;1;1.04653;-0.32048;-1.25714;0.986383;-0.32798;-1.22419;1.01281;0.530713;-0.696827;2.09465;2.44872;0.317474;0;0;0;0;1.31325;-1.42048;-1.4582;0;0;0;495.14;224;1024;1024;1024;224;1024;1024;1024;1;4;0;0;0;0;0; 
6051;6066;2019/11/01 19:50:55;0;-1;-1;-1;-1;-1;22;0;0;0;0;0;0;0;0;0;0;0;0;0;0;174.4;290;11.9307;175.531;292.061;0;113;1;1.04548;-0.28181;-1.236;1.00411;-0.31413;-1.22773;1.06931;0.541284;-0.650963;2.63717;1.82359;0.742233;0;0;0;0;1.33583;-1.38181;-1.43576;0;0;0;495.14;224;1024;1024;1024;224;1024;1024;1024;1;4;0;0;0;0;0; 
6052;6067;2019/11/01 19:50:55;0;-1;-1;-1;-1;-1;22;0;0;0;0;0;0;0;0;0;0;0;0;0;0;169.111;287.333;12.2829;170.151;288.944;0;114;1;1.03701;-0.23677;-1.20756;1.01398;-0.29092;-1.22168;1.06631;0.61594;-0.542398;2.73074;1.6941;1.489;0;0;0;0;1.33848;-1.33677;-1.39109;0;0;0;495.14;224;1024;1024;1024;224;1024;1024;1024;1;4;0;0;0;0;0; 
6053;6068;2019/11/01 19:50:55;0;-1;-1;-1;-1;-1;22;0;0;0;0;0;0;0;0;0;0;0;0;0;0;165.75;284.25;12.0799;165.325;285.772;0;115;1;1.06834;-0.24782;-1.23609;1.03029;-0.27799;-1.226;1.04863;0.682536;-0.443341;2.48305;1.78223;2.29499;0;0;0;0;1.36994;-1.34782;-1.3895;0;0;0;495.14;224;1024;1024;1024;224;1024;1024;1024;1;4;0;0;0;0;0; 
6054;6069;2019/11/01 19:50:55;0;-1;-1;-1;-1;-1;22;0;0;0;0;0;0;0;0;0;0;0;0;0;0;162.571;282;11.9814;160.963;282.829;0;116;1;1.09038;-0.25091;-1.25231;1.04832;-0.26987;-1.2339;1.03767;0.706522;-0.38443;2.06799;1.77772;2.86088;0;0;0;0;1.38538;-1.35091;-1.37703;0;0;0;495.14;224;1024;1024;1024;224;1024;1024;1024;1;4;0;0;0;0;0; 
6055;6070;2019/11/01 19:50:55;0;-1;-1;-1;-1;-1;22;0;0;0;0;0;0;0;0;0;0;0;0;0;0;160.25;278.25;11.9029;157.214;279.576;0;117;1;1.10732;-0.24715;-1.27073;1.06602;-0.26305;-1.24495;1.04347;0.695985;-0.369919;1.69006;1.59706;3.04143;0;0;0;0;1.39904;-1.34715;-1.37881;0;0;0;495.14;224;1024;1024;1024;224;1024;1024;1024;1;4;0;0;0;0;0; 
6056;6071;2019/11/01 19:50:55;0;-1;-1;-1;-1;-1;22;0;0;0;0;0;0;0;0;0;0;0;0;0;0;159.333;274.222;11.8586;154.359;276.012;0;118;1;1.11531;-0.23885;-1.28643;1.08081;-0.25579;-1.25739;1.00308;0.705822;-0.354517;0.975201;1.65739;3.19159;0;0;0;0;1.4099;-1.33885;-1.39087;0;0;0;495.14;224;1024;1024;1024;224;1024;1024;1024;1;4;0;0;0;0;0; 
6057;6072;2019/11/01 19:50:55;0;-1;-1;-1;-1;-1;22;0;0;0;0;0;0;0;0;0;0;0;0;0;0;159.75;271;11.9856;152.577;272.482;0;119;1;1.10175;-0.21546;-1.28146;1.08709;-0.24369;-1.26461;0.933148;0.704734;-0.35996;0.0414876;1.64703;3.07683;0;0;0;0;1.37853;-1.31546;-1.37929;0;0;0;495.14;224;1024;1024;1024;224;1024;1024;1024;1;4;0;0;0;0;0; 
6058;6073;2019/11/01 19:50:55;0;-1;-1;-1;-1;-1;22;0;0;0;0;0;0;0;0;0;0;0;0;0;0;160.571;268;11.7754;151.7;269.052;0;120;1;1.11794;-0.22744;-1.31256;1.09634;-0.23881;-1.279;0.888734;0.630882;-0.444825;-0.684091;1.04788;2.23568;0;0;0;0;1.37502;-1.32744;-1.41173;0;0;0;495.14;224;1024;1024;1024;224;1024;1024;1024;1;4;0;0;0;0;0; 
6059;6074;2019/11/01 19:50:55;0;-1;-1;-1;-1;-1;22;0;0;0;0;0;0;0;0;0;0;0;0;0;0;161;264;11.7866;151.351;265.378;0;121;1;1.11506;-0.21333;-1.32226;1.10196;-0.23117;-1.29198;0.81939;0.565476;-0.530305;-1.32573;0.161347;0.994189;0;0;0;0;1.35908;-1.31333;-1.4444;0;0;0;495.14;224;1024;1024;1024;224;1024;1024;1024;1;4;0;0;0;0;0; 
6060;6075;2019/11/01 19:50:55;0;-1;-1;-1;-1;-1;22;0;0;0;0;0;0;0;0;0;0;0;0;0;0;162.667;260.222;11.7119;151.775;261.6;0;122;1;1.11506;-0.20876;-1.3411;1.10589;-0.22444;-1.30671;0.721507;0.520641;-0.608923;-2.05777;-0.645356;-0.299813;0;0;0;0;1.3399;-1.30876;-1.48661;0;0;0;495.14;224;1024;1024;1024;224;1024;1024;1024;1;4;0;0;0;0;0; 
6061;6076;2019/11/01 19:50:55;0;-1;-1;-1;-1;-1;22;0;0;0;0;0;0;0;0;0;0;0;0;0;0;165.333;257.111;11.5132;153.071;257.963;0;123;1;1.12273;-0.21931;-1.37296;1.11094;-0.2229;-1.32659;0.612284;0.472679;-0.691314;-2.95627;-1.2788;-1.46311;0;0;0;0;1.32169;-1.31931;-1.54087;0;0;0;495.14;224;1024;1024;1024;224;1024;1024;1024;1;4;0;0;0;0;0; 
6062;6077;2019/11/01 19:50:55;0;-1;-1;-1;-1;-1;22;0;0;0;0;0;0;0;0;0;0;0;0;0;0;166;254.571;11.5973;154.356;254.614;0;124;1;1.11173;-0.20212;-1.37007;1.11118;-0.21667;-1.33963;0.488638;0.43981;-0.74314;-3.82777;-1.82938;-2.42951;0;0;0;0;1.27833;-1.30212;-1.55817;0;0;0;495.14;224;1024;1024;1024;224;1024;1024;1024;1;4;0;0;0;0;0; 
6063;6078;2019/11/01 19:50:56;0;-1;-1;-1;-1;-1;22;0;0;0;0;0;0;0;0;0;0;0;0;0;0;169;250.4;11.5599;156.367;250.955;0;125;1;1.10235;-0.19223;-1.38613;1.10853;-0.20934;-1.35358;0.378789;0.401045;-0.8011;-4.51003;-2.31016;-3.21904;0;0;0;0;1.23409;-1.29223;-1.58648;0;0;0;495.14;224;1024;1024;1024;224;1024;1024;1024;1;4;0;0;0;0;0; 
6064;6079;2019/11/01 19:50:56;0;-1;-1;-1;-1;-1;22;0;0;0;0;0;0;0;0;0;0;0;0;0;0;171.75;247.75;11.4439;158.819;247.559;0;126;1;1.10153;-0.19549;-1.40766;1.10643;-0.20518;-1.3698;0.267537;0.37491;-0.843216;-5.18626;-2.40811;-3.52207;0;0;0;0;1.20427;-1.29549;-1.62495;0;0;0;495.14;224;1024;1024;1024;224;1024;1024;1024;1;4;0;0;0;0;0; 
6065;6080;2019/11/01 19:50:56;0;-1;-1;-1;-1;-1;22;0;0;0;0;0;0;0;0;0;0;0;0;0;0;172.222;244.667;11.241;160.852;244.219;0;127;1;1.11931;-0.2066;-1.44191;1.11029;-0.20561;-1.39143;0.193791;0.327003;-0.90303;-5.60957;-2.39701;-3.60141;0;0;0;0;1.19307;-1.3066;-1.67439;0;0;0;495.14;224;1024;1024;1024;224;1024;1024;1024;1;4;0;0;0;0;0; 
6066;6081;2019/11/01 19:50:56;0;-1;-1;-1;-1;-1;22;0;0;0;0;0;0;0;0;0;0;0;0;0;0;174.333;241.667;11.2767;163.097;240.947;0;128;1;1.10641;-0.19263;-1.44593;1.10913;-0.20171;-1.40778;0.1292;0.286959;-0.945351;-5.73063;-2.37122;-3.50409;0;0;0;0;1.16013;-1.29263;-1.69625;0;0;0;495.14;224;1024;1024;1024;224;1024;1024;1024;1;4;0;0;0;0;0; 
6067;6082;2019/11/01 19:50:56;0;-1;-1;-1;-1;-1;22;0;0;0;0;0;0;0;0;0;0;0;0;0;0;176.571;238;11.1719;165.528;237.513;0;129;1;1.10679;-0.1913;-1.47008;1.10843;-0.19859;-1.42647;0.0674646;0.269255;-0.966034;-5.61375;-2.23497;-3.19936;0;0;0;0;1.14315;-1.2913;-1.73613;0;0;0;495.14;224;1024;1024;1024;224;1024;1024;1024;1;4;0;0;0;0;0; 
6068;6083;2019/11/01 19:50:56;0;-1;-1;-1;-1;-1;22;0;0;0;0;0;0;0;0;0;0;0;0;0;0;178.25;234.25;10.98;167.906;233.938;0;130;1;1.11848;-0.19908;-1.50678;1.11144;-0.19874;-1.45056;0.041535;0.233144;-1.02255;-5.15345;-2.16616;-3.03526;0;0;0;0;1.13784;-1.29908;-1.78387;0;0;0;495.14;224;1024;1024;1024;224;1024;1024;1024;1;4;0;0;0;0;0; 
6069;6084;2019/11/01 19:50:56;0;-1;-1;-1;-1;-1;22;0;0;0;0;0;0;0;0;0;0;0;0;0;0;178;232.571;10.9987;169.623;230.922;0;131;1;1.11772;-0.19123;-1.50914;1.11333;-0.19648;-1.46814;0.044074;0.191202;-1.07093;-4.42853;-2.13756;-2.89854;0;0;0;0;1.1298;-1.29123;-1.80647;0;0;0;495.14;224;1024;1024;1024;224;1024;1024;1024;1;4;0;0;0;0;0; 
6070;6085;2019/11/01 19:50:56;0;-1;-1;-1;-1;-1;22;0;0;0;0;0;0;0;0;0;0;0;0;0;0;179;229;10.7798;171.252;227.71;0;132;1;1.13578;-0.20277;-1.55047;1.12006;-0.19837;-1.49284;0.0808873;0.141915;-1.13381;-3.40238;-2.21285;-2.89942;0;0;0;0;1.14901;-1.30277;-1.87193;0;0;0;495.14;224;1024;1024;1024;224;1024;1024;1024;1;4;0;0;0;0;0; 
6071;6086;2019/11/01 19:50:56;0;-1;-1;-1;-1;-1;22;0;0;0;0;0;0;0;0;0;0;0;0;0;0;178.333;225.667;10.7623;172.278;224.432;0;133;1;1.14072;-0.19291;-1.56298;1.12626;-0.19673;-1.51388;0.112299;0.120576;-1.16919;-2.36681;-2.15194;-2.80237;0;0;0;0;1.1655;-1.29291;-1.91028;0;0;0;495.14;224;1024;1024;1024;224;1024;1024;1024;1;4;0;0;0;0;0; 
6072;6087;2019/11/01 19:50:56;0;-1;-1;-1;-1;-1;22;0;0;0;0;0;0;0;0;0;0;0;0;0;0;178;223.429;10.9426;172.97;221.458;0;134;1;1.12345;-0.16546;-1.54383;1.12542;-0.18735;-1.52286;0.132429;0.129693;-1.16102;-1.40719;-1.9191;-2.54254;0;0;0;0;1.15768;-1.26546;-1.9002;0;0;0;495.14;224;1024;1024;1024;224;1024;1024;1024;1;4;0;0;0;0;0; 
6073;6088;2019/11/01 19:50:56;0;-1;-1;-1;-1;-1;22;0;0;0;0;0;0;0;0;0;0;0;0;0;0;178;221;10.6267;173.521;218.643;0;135;1;1.15685;-0.19139;-1.5971;1.13485;-0.18856;-1.54513;0.18496;0.117854;-1.17039;-0.375193;-1.75595;-2.34146;0;0;0;0;1.19831;-1.29139;-1.96055;0;0;0;495.14;224;1024;1024;1024;224;1024;1024;1024;1;4;0;0;0;0;0; 
6074;6089;2019/11/01 19:50:56;0;-1;-1;-1;-1;-1;22;0;0;0;0;0;0;0;0;0;0;0;0;0;0;178;217;10.6506;173.966;215.445;0;136;1;1.15425;-0.17438;-1.60561;1.14067;-0.18431;-1.56328;0.227668;0.128331;-1.15227;0.518051;-1.47205;-1.9228;0;0;0;0;1.21231;-1.27438;-1.97304;0;0;0;495.14;224;1024;1024;1024;224;1024;1024;1024;1;4;0;0;0;0;0; 
6075;6090;2019/11/01 19:50:56;0;-1;-1;-1;-1;-1;22;0;0;0;0;0;0;0;0;0;0;0;0;0;0;178;214.571;10.6995;174.331;212.469;0;137;1;1.14898;-0.16036;-1.6056;1.14316;-0.17712;-1.57598;0.255723;0.154309;-1.12193;1.15588;-1.03054;-1.35729;0;0;0;0;1.21995;-1.26036;-1.96483;0;0;0;495.14;224;1024;1024;1024;224;1024;1024;1024;1;4;0;0;0;0;0; 
6076;6091;2019/11/01 19:50:56;0;-1;-1;-1;-1;-1;22;0;0;0;0;0;0;0;0;0;0;0;0;0;0;176;211;10.7844;173.998;209.291;0;138;1;1.14919;-0.13858;-1.60364;1.14497;-0.16556;-1.58427;0.252883;0.223591;-1.03824;1.38025;-0.292216;-0.432783;0;0;0;0;1.22799;-1.23858;-1.94932;0;0;0;495.14;224;1024;1024;1024;224;1024;1024;1024;1;4;0;0;0;0;0; 
6077;6092;2019/11/01 19:50:56;0;-1;-1;-1;-1;-1;22;0;0;0;0;0;0;0;0;0;0;0;0;0;0;176;208.571;10.7495;173.794;206.331;0;139;1;1.15293;-0.13367;-1.61614;1.14736;-0.15599;-1.59383;0.235965;0.296825;-0.942173;1.32191;0.528376;0.646726;0;0;0;0;1.22937;-1.23367;-1.92999;0;0;0;495.14;224;1024;1024;1024;224;1024;1024;1024;1;4;0;0;0;0;0; 
6078;6093;2019/11/01 19:50:56;0;-1;-1;-1;-1;-1;22;0;0;0;0;0;0;0;0;0;0;0;0;0;0;175;206;10.5243;173.364;203.485;0;140;1;1.18235;-0.1486;-1.6586;1.15786;-0.15378;-1.61326;0.271089;0.312152;-0.926244;1.34677;1.04552;1.32541;0;0;0;0;1.25335;-1.2486;-1.9421;0;0;0;495.14;224;1024;1024;1024;224;1024;1024;1024;1;4;0;0;0;0;0; 
6079;6094;2019/11/01 19:50:56;0;-1;-1;-1;-1;-1;22;0;0;0;0;0;0;0;0;0;0;0;0;0;0;174;201.429;10.6251;172.77;200.085;0;141;1;1.17583;-0.12129;-1.65674;1.16325;-0.14403;-1.62631;0.276044;0.365094;-0.879849;1.17173;1.61446;1.95529;0;0;0;0;1.25666;-1.22129;-1.93292;0;0;0;495.14;224;1024;1024;1024;224;1024;1024;1024;1;4;0;0;0;0;0; 
6080;6095;2019/11/01 19:50:56;0;-1;-1;-1;-1;-1;22;0;0;0;0;0;0;0;0;0;0;0;0;0;0;172.667;197.778;10.7301;171.948;196.575;0;142;1;1.17054;-0.09734;-1.65151;1.16543;-0.13002;-1.63387;0.264508;0.435793;-0.809752;0.85013;2.19627;2.54073;0;0;0;0;1.25129;-1.19734;-1.90891;0;0;0;495.14;224;1024;1024;1024;224;1024;1024;1024;1;4;0;0;0;0;0; 
6081;6096;2019/11/01 19:50:56;0;-1;-1;-1;-1;-1;22;0;0;0;0;0;0;0;0;0;0;0;0;0;0;173;195;10.8232;171.493;193.267;0;143;1;1.15892;-0.0781;-1.64557;1.16348;-0.11445;-1.63738;0.239832;0.511714;-0.731012;0.44663;2.74476;3.08523;0;0;0;0;1.23425;-1.1781;-1.87616;0;0;0;495.14;224;1024;1024;1024;224;1024;1024;1024;1;4;0;0;0;0;0; 
6082;6097;2019/11/01 19:50:56;0;-1;-1;-1;-1;-1;22;0;0;0;0;0;0;0;0;0;0;0;0;0;0;171.75;191.75;10.49;170.8;189.956;0;144;1;1.20169;-0.10053;-1.70783;1.17494;-0.11027;-1.65851;0.263564;0.527778;-0.735022;0.310626;2.86137;3.06177;0;0;0;0;1.27069;-1.20053;-1.91816;0;0;0;495.14;224;1024;1024;1024;224;1024;1024;1024;1;4;0;0;0;0;0; 
6083;6098;2019/11/01 19:50:56;0;-1;-1;-1;-1;-1;22;0;0;0;0;0;0;0;0;0;0;0;0;0;0;171;187.6;10.6354;170.091;186.356;0;145;1;1.18878;-0.07059;-1.69707;1.17909;-0.09837;-1.67008;0.284845;0.546737;-0.745438;0.381538;2.71464;2.62256;0;0;0;0;1.26396;-1.17059;-1.90673;0;0;0;495.14;224;1024;1024;1024;224;1024;1024;1024;1;4;0;0;0;0;0; 
6084;6099;2019/11/01 19:50:56;0;-1;-1;-1;-1;-1;22;0;0;0;0;0;0;0;0;0;0;0;0;0;0;170.571;184;10.6738;169.475;182.723;0;146;1;1.18651;-0.05388;-1.70185;1.18132;-0.08502;-1.67961;0.264589;0.602553;-0.712154;0.202968;2.78825;2.42832;0;0;0;0;1.26795;-1.15388;-1.91498;0;0;0;495.14;224;1024;1024;1024;224;1024;1024;1024;1;4;0;0;0;0;0; 
6085;6100;2019/11/01 19:50:56;0;-1;-1;-1;-1;-1;22;0;0;0;0;0;0;0;0;0;0;0;0;0;0;170.667;181.778;10.532;169.093;179.507;0;147;1;1.20204;-0.06002;-1.73157;1.18754;-0.07752;-1.6952;0.255722;0.627077;-0.702343;0.0406406;2.71896;2.16572;0;0;0;0;1.27794;-1.16002;-1.93586;0;0;0;495.14;224;1024;1024;1024;224;1024;1024;1024;1;4;0;0;0;0;0; 
6086;6101;2019/11/01 19:50:56;0;-1;-1;-1;-1;-1;22;0;0;0;0;0;0;0;0;0;0;0;0;0;0;170;178;10.5122;168.636;176.099;0;148;1;1.20746;-0.0483;-1.74641;1.19351;-0.06875;-1.71056;0.265542;0.620868;-0.727611;0.0285102;2.37032;1.62739;0;0;0;0;1.28084;-1.1483;-1.94793;0;0;0;495.14;224;1024;1024;1024;224;1024;1024;1024;1;4;0;0;0;0;0; 
6087;6102;2019/11/01 19:50:56;0;-1;-1;-1;-1;-1;22;0;0;0;0;0;0;0;0;0;0;0;0;0;0;170;175.429;10.5093;168.338;172.937;0;149;1;1.2078;-0.03925;-1.75478;1.1978;-0.0599;-1.72383;0.296342;0.590289;-0.781726;0.242733;1.73592;0.773952;0;0;0;0;1.28461;-1.13925;-1.96526;0;0;0;495.14;224;1024;1024;1024;224;1024;1024;1024;1;4;0;0;0;0;0; 
6088;6103;2019/11/01 19:50:56;0;-1;-1;-1;-1;-1;22;0;0;0;0;0;0;0;0;0;0;0;0;0;0;170;173;10.4499;168.154;170;0;150;1;1.21466;-0.0363;-1.77225;1.20286;-0.05282;-1.73835;0.28926;0.583548;-0.78781;0.248236;1.26422;0.253606;0;0;0;0;1.30233;-1.1363;-2.00351;0;0;0;495.14;224;1024;1024;1024;224;1024;1024;1024;1;4;0;0;0;0;0; 
6089;6104;2019/11/01 19:50:56;0;-1;-1;-1;-1;-1;22;0;0;0;0;0;0;0;0;0;0;0;0;0;0;171;171;10.35;168.371;167.362;0;151;1;1.22157;-0.03893;-1.7956;1.20847;-0.04866;-1.75553;0.290849;0.548614;-0.813857;0.172913;0.766028;-0.121011;0;0;0;0;1.30798;-1.13893;-2.03095;0;0;0;495.14;224;1024;1024;1024;224;1024;1024;1024;1;4;0;0;0;0;0; 
6090;6105;2019/11/01 19:50:56;0;-1;-1;-1;-1;-1;22;0;0;0;0;0;0;0;0;0;0;0;0;0;0;170.333;169.667;10.0992;168.345;165.155;0;152;1;1.2552;-0.0597;-1.84445;1.22249;-0.05197;-1.78221;0.338892;0.461138;-0.897951;0.400414;-0.105007;-0.814433;0;0;0;0;1.34487;-1.1597;-2.09535;0;0;0;495.14;224;1024;1024;1024;224;1024;1024;1024;1;4;0;0;0;0;0; 
6091;6106;2019/11/01 19:50:56;0;-1;-1;-1;-1;-1;22;0;0;0;0;0;0;0;0;0;0;0;0;0;0;171;169;10.3001;168.568;163.471;0;153;1;1.22749;-0.03656;-1.81056;1.22399;-0.04735;-1.79071;0.348882;0.397164;-0.920139;0.612208;-0.98097;-1.35825;0;0;0;0;1.33259;-1.13656;-2.08905;0;0;0;495.14;224;1024;1024;1024;224;1024;1024;1024;1;4;0;0;0;0;0; 
6092;6107;2019/11/01 19:50:56;0;-1;-1;-1;-1;-1;22;0;0;0;0;0;0;0;0;0;0;0;0;0;0;172;167.429;9.79226;169.075;161.876;0;154;1;1.28604;-0.08419;-1.90963;1.2426;-0.0584;-1.82639;0.405331;0.279646;-1.01455;0.925459;-1.95097;-1.96061;0;0;0;0;1.40034;-1.18419;-2.2111;0;0;0;495.14;224;1024;1024;1024;224;1024;1024;1024;1;4;0;0;0;0;0; 
6093;6108;2019/11/01 19:50:56;0;-1;-1;-1;-1;-1;22;0;0;0;0;0;0;0;0;0;0;0;0;0;0;172;167;10.1951;169.469;160.709;0;155;1;1.23523;-0.03975;-1.83554;1.24039;-0.0528;-1.82913;0.413257;0.196137;-1.02919;1.02208;-2.7443;-2.1644;0;0;0;0;1.36678;-1.13975;-2.16482;0;0;0;495.14;224;1024;1024;1024;224;1024;1024;1024;1;4;0;0;0;0;0; 
6094;6109;2019/11/01 19:50:56;0;-1;-1;-1;-1;-1;22;0;0;0;0;0;0;0;0;0;0;0;0;0;0;173.667;166.333;9.74568;170.309;159.772;0;156;1;1.28364;-0.08508;-1.92238;1.25337;-0.06249;-1.85711;0.449618;0.0790884;-1.09166;1.2535;-3.66072;-2.51182;0;0;0;0;1.42416;-1.18508;-2.27234;0;0;0;495.14;224;1024;1024;1024;224;1024;1024;1024;1;4;0;0;0;0;0; 
6095;6110;2019/11/01 19:50:56;0;-1;-1;-1;-1;-1;22;0;0;0;0;0;0;0;0;0;0;0;0;0;0;174;165.429;9.509;171.046;158.924;0;157;1;1.31384;-0.10846;-1.9733;1.27151;-0.07628;-1.89197;0.52146;-0.0628448;-1.19975;1.67286;-4.63779;-3.04782;0;0;0;0;1.47349;-1.20846;-2.36092;0;0;0;495.14;224;1024;1024;1024;224;1024;1024;1024;1;4;0;0;0;0;0; 
6096;6111;2019/11/01 19:50:56;0;-1;-1;-1;-1;-1;22;0;0;0;0;0;0;0;0;0;0;0;0;0;0;174.4;164.8;9.91978;171.727;158.225;0;158;1;1.25742;-0.06014;-1.89363;1.26728;-0.07144;-1.89247;0.491714;-0.115448;-1.16007;1.61388;-5.08479;-2.87526;0;0;0;0;1.44157;-1.16014;-2.31731;0;0;0;495.14;224;1024;1024;1024;224;1024;1024;1024;1;4;0;0;0;0;0; 
6097;6112;2019/11/01 19:50:56;0;-1;-1;-1;-1;-1;22;0;0;0;0;0;0;0;0;0;0;0;0;0;0;174.4;164.8;9.59055;172.237;157.831;0;159;1;1.30059;-0.09654;-1.95864;1.27727;-0.07897;-1.91232;0.507774;-0.195529;-1.18156;1.60273;-5.4173;-2.76893;0;0;0;0;1.47756;-1.19654;-2.37617;0;0;0;495.14;224;1024;1024;1024;224;1024;1024;1024;1;4;0;0;0;0;0; 
6098;6113;2019/11/01 19:50:56;0;-1;-1;-1;-1;-1;22;0;0;0;0;0;0;0;0;0;0;0;0;0;0;175.429;163.143;9.42967;172.95;157.125;0;160;1;1.31733;-0.10854;-1.99772;1.28929;-0.08784;-1.93794;0.491061;-0.234866;-1.15431;1.30393;-5.30465;-2.21937;0;0;0;0;1.50436;-1.20854;-2.43293;0;0;0;495.14;224;1024;1024;1024;224;1024;1024;1024;1;4;0;0;0;0;0; 
