ID;RS_ID;time;insect_log;imLx_drone; imLy_drone; disparity_drone; imLx_pred_drone; imLy_pred_drone; n_frames_lost_drone; n_frames_tracking_drone; foundL_drone; posX_drone; posY_drone; posZ_drone; sposX_drone; sposY_drone; sposZ_drone; svelX_drone; svelY_drone; svelZ_drone; saccX_drone; saccY_drone; saccZ_drone; imLx_insect; imLy_insect; disparity_insect; imLx_pred_insect; imLy_pred_insect; n_frames_lost_insect; n_frames_tracking_insect; foundL_insect; posX_insect; posY_insect; posZ_insect; sposX_insect; sposY_insect; sposZ_insect; svelX_insect; svelY_insect; svelZ_insect; saccX_insect; saccY_insect; saccZ_insect; valid; posErrX; posErrY; posErrZ; velX; velY; velZ; accX; accY; accZ; hoverthrottle; autoThrottle; autoRoll; autoPitch; autoYaw; joyThrottle; joyRoll; joyPitch; joyYaw; joyArmSwitch; joyModeSwitch; joyTakeoffSwitch; dt; velx_sp; vely_sp; velz_sp;
610;616;2019/11/01 19:59:19;0;-1;-1;-1;-1;-1;100;0;0;0;0;0;0;0;0;0;0;0;0;0;0;306;80;6.63955;306;80;0;1;1;0.88846;-1.09228;-3.24257;0.88846;-1.09228;-3.24257;0;0;0;0;0;0;0;0;0;0;0;0;0;0;0;0;675;304;1024;1024;1024;224;1024;1024;1024;1;4;0;0;0;0;0; 
611;617;2019/11/01 19:59:19;0;-1;-1;-1;-1;-1;100;0;0;0;0;0;0;0;0;0;0;0;0;0;0;308;80;6.70664;306.182;80;0;2;1;0.864674;-1.08135;-3.21013;0.881324;-1.089;-3.23283;0;0;0;0;0;0;0;0;0;0;0;0;0;0;0;0;675;304;1024;1024;1024;224;1024;1024;1024;1;4;0;0;0;0;0; 
612;618;2019/11/01 19:59:19;0;-1;-1;-1;-1;-1;100;0;0;0;0;0;0;0;0;0;0;0;0;0;0;310;80;6.57994;306.796;80;0;3;1;0.86614;-1.10218;-3.27194;0.876769;-1.09295;-3.24457;0;0;0;0;0;0;0;0;0;0;0;0;0;0;0;0;675;304;1024;1024;1024;224;1024;1024;1024;1;4;0;0;0;0;0; 
613;619;2019/11/01 19:59:19;0;-1;-1;-1;-1;-1;100;0;0;0;0;0;0;0;0;0;0;0;0;0;0;311;81;6.68887;307.671;80.2079;0;4;1;0.844564;-1.08994;-3.21384;0.867107;-1.09205;-3.23535;0;0;0;0;0;0;0;0;0;0;0;0;0;0;0;0;675;304;1024;1024;1024;224;1024;1024;1024;1;4;0;0;0;0;0; 
614;620;2019/11/01 19:59:19;0;-1;-1;-1;-1;-1;100;0;0;0;0;0;0;0;0;0;0;0;0;0;0;313;81;6.65443;308.939;80.3966;0;5;1;0.833922;-1.09558;-3.23048;0.857152;-1.09311;-3.23389;0;0;0;0;0;0;0;0;0;0;0;0;0;0;0;0;675;304;1024;1024;1024;224;1024;1024;1024;1;4;0;0;0;0;0; 
615;621;2019/11/01 19:59:19;0;-1;-1;-1;-1;-1;100;0;0;0;0;0;0;0;0;0;0;0;0;0;0;314;82;6.7043;310.24;80.8073;0;6;1;0.820266;-1.09312;-3.20164;0.846086;-1.09311;-3.22421;0;0;0;0;0;0;0;0;0;0;0;0;0;0;0;0;675;304;1024;1024;1024;224;1024;1024;1024;1;4;0;0;0;0;0; 
616;622;2019/11/01 19:59:19;0;-1;-1;-1;-1;-1;100;0;0;0;0;0;0;0;0;0;0;0;0;0;0;315;81;6.57555;311.524;80.8627;0;7;1;0.82873;-1.10872;-3.26923;0.840879;-1.09779;-3.23772;0;0;0;0;0;0;0;0;0;0;0;0;0;0;0;0;675;304;1024;1024;1024;224;1024;1024;1024;1;4;0;0;0;0;0; 
617;623;2019/11/01 19:59:19;0;-1;-1;-1;-1;-1;100;0;0;0;0;0;0;0;0;0;0;0;0;0;0;315;81;6.57555;311.553;80.8674;1;0;1;0.82873;-1.10872;-3.26923;0.840879;-1.09779;-3.23772;0;0;0;0;0;0;0;0;0;0;0;0;0;0;0;0;675;304;1024;1024;1024;224;1024;1024;1024;1;4;0;0;0;0;0; 
618;624;2019/11/01 19:59:19;0;-1;-1;-1;-1;-1;100;0;0;0;0;0;0;0;0;0;0;0;0;0;0;315;81;6.57555;311.582;80.872;2;0;1;0.82873;-1.10872;-3.26923;0.840879;-1.09779;-3.23772;0;0;0;0;0;0;0;0;0;0;0;0;0;0;0;0;675;304;1024;1024;1024;224;1024;1024;1024;1;4;0;0;0;0;0; 
619;625;2019/11/01 19:59:19;0;-1;-1;-1;-1;-1;100;0;0;0;0;0;0;0;0;0;0;0;0;0;0;316;82;6.55057;313.278;81.3025;0;1;1;0.824265;-1.11878;-3.27678;0.835895;-1.10409;-3.24944;-0.340091;-0.112951;-0.124286;0.653409;-2.31536;-5.29367;0;0;0;0;0;0;0;0;0;0;675;304;1024;1024;1024;224;1024;1024;1024;1;4;0;0;0;0;0; 
620;626;2019/11/01 19:59:19;0;-1;-1;-1;-1;-1;100;0;0;0;0;0;0;0;0;0;0;0;0;0;0;316;82;6.67141;314.232;81.5442;0;2;1;0.809334;-1.09851;-3.21743;0.827927;-1.10242;-3.23983;-0.350311;-0.0961067;-0.0603963;0.159953;-0.96822;-1.25299;0;0;0;0;0;0;0;0;0;0;675;304;1024;1024;1024;224;1024;1024;1024;1;4;0;0;0;0;0; 
621;627;2019/11/01 19:59:19;0;-1;-1;-1;-1;-1;100;0;0;0;0;0;0;0;0;0;0;0;0;0;0;316.667;82.6667;6.85939;315.053;81.9067;0;3;1;0.782299;-1.07212;-3.12612;0.814238;-1.09333;-3.20572;-0.368502;-0.0614954;0.0524855;0.725195;-0.927499;-2.24782;0;0;0;0;0;0;0;0;0;0;675;304;1024;1024;1024;224;1024;1024;1024;1;4;0;0;0;0;0; 
622;628;2019/11/01 19:59:19;0;-1;-1;-1;-1;-1;100;0;0;0;0;0;0;0;0;0;0;0;0;0;0;317;83;6.55612;315.717;82.2558;0;4;1;0.815946;-1.12366;-3.26909;0.814751;-1.10243;-3.22473;-0.348123;-0.0648152;0.0589193;1.17834;-0.560731;-1.43439;0;0;0;0;0;0;0;0;0;0;675;304;1024;1024;1024;224;1024;1024;1024;1;4;0;0;0;0;0; 
623;629;2019/11/01 19:59:19;0;-1;-1;-1;-1;-1;100;0;0;0;0;0;0;0;0;0;0;0;0;0;0;318;84;6.61445;316.485;82.8005;0;5;1;0.801198;-1.11952;-3.2354;0.810685;-1.10756;-3.22793;-0.314926;-0.0821564;0.0242138;1.74895;-0.581658;-2.52381;0;0;0;0;0;0;0;0;0;0;675;304;1024;1024;1024;224;1024;1024;1024;1;4;0;0;0;0;0; 
624;630;2019/11/01 19:59:19;0;-1;-1;-1;-1;-1;100;0;0;0;0;0;0;0;0;0;0;0;0;0;0;318;84;6.61445;316.589;82.838;1;0;1;0.801198;-1.11952;-3.2354;0.810685;-1.10756;-3.22793;-0.314926;-0.0821564;0.0242138;1.74895;-0.581658;-2.52381;0;0;0;0;0;0;0;0;0;0;675;304;1024;1024;1024;224;1024;1024;1024;1;4;0;0;0;0;0; 
625;631;2019/11/01 19:59:19;0;-1;-1;-1;-1;-1;100;0;0;0;0;0;0;0;0;0;0;0;0;0;0;319;85;6.61724;317.549;83.6436;0;1;1;0.793311;-1.12482;-3.22917;0.805473;-1.11274;-3.2283;-0.283234;-0.0890783;0.0395985;1.12552;0.160439;0.744506;0;0;0;0;0;0;0;0;0;0;675;304;1024;1024;1024;224;1024;1024;1024;1;4;0;0;0;0;0; 
626;632;2019/11/01 19:59:19;0;-1;-1;-1;-1;-1;100;0;0;0;0;0;0;0;0;0;0;0;0;0;0;320;86;6.64613;318.477;84.4714;0;2;1;0.782346;-1.12568;-3.21028;0.798535;-1.11662;-3.2229;-0.297857;-0.0963445;0.114628;0.819912;0.153123;1.26472;0;0;0;0;0;0;0;0;0;0;675;304;1024;1024;1024;224;1024;1024;1024;1;4;0;0;0;0;0; 
627;633;2019/11/01 19:59:19;0;-1;-1;-1;-1;-1;100;0;0;0;0;0;0;0;0;0;0;0;0;0;0;320;86;6.90125;319.101;85.0285;0;3;1;0.753425;-1.08407;-3.09161;0.785002;-1.10685;-3.18351;-0.325686;-0.0729956;0.261622;0.576263;0.171004;1.86139;0;0;0;0;0;0;0;0;0;0;675;304;1024;1024;1024;224;1024;1024;1024;1;4;0;0;0;0;0; 
628;634;2019/11/01 19:59:19;0;-1;-1;-1;-1;-1;100;0;0;0;0;0;0;0;0;0;0;0;0;0;0;321;86;7.05892;319.846;85.4181;0;4;1;0.729519;-1.05985;-3.02256;0.768357;-1.09275;-3.13522;-0.352505;-0.0418284;0.398345;0.400531;0.16994;2.30102;0;0;0;0;0;0;0;0;0;0;675;304;1024;1024;1024;224;1024;1024;1024;1;4;0;0;0;0;0; 
629;635;2019/11/01 19:59:19;0;-1;-1;-1;-1;-1;100;0;0;0;0;0;0;0;0;0;0;0;0;0;0;322;87;6.83934;320.682;86.0011;0;5;1;0.745636;-1.09946;-3.11489;0.761541;-1.09477;-3.12912;-0.393603;0.00111831;0.566209;0.0846701;0.327609;3.11671;0;0;0;0;0;0;0;0;0;0;675;304;1024;1024;1024;224;1024;1024;1024;1;4;0;0;0;0;0; 
630;636;2019/11/01 19:59:19;0;-1;-1;-1;-1;-1;100;0;0;0;0;0;0;0;0;0;0;0;0;0;0;322;87;6.83934;320.879;86.1148;1;0;1;0.745636;-1.09946;-3.11489;0.761541;-1.09477;-3.12912;-0.393603;0.00111831;0.566209;0.0846701;0.327609;3.11671;0;0;0;0;0;0;0;0;0;0;675;304;1024;1024;1024;224;1024;1024;1024;1;4;0;0;0;0;0; 
631;637;2019/11/01 19:59:19;0;-1;-1;-1;-1;-1;100;0;0;0;0;0;0;0;0;0;0;0;0;0;0;325;89;6.70757;322.592;87.2898;0;1;1;0.737941;-1.13245;-3.16648;0.754461;-1.10607;-3.14033;-0.404526;0.00511279;0.602049;-0.217505;0.457893;3.60036;0;0;0;0;0;0;0;0;0;0;675;304;1024;1024;1024;224;1024;1024;1024;1;4;0;0;0;0;0; 
632;638;2019/11/01 19:59:19;0;-1;-1;-1;-1;-1;100;0;0;0;0;0;0;0;0;0;0;0;0;0;0;325;89;6.70757;322.838;87.4382;1;0;1;0.737941;-1.13245;-3.16648;0.754461;-1.10607;-3.14033;-0.404526;0.00511279;0.602049;-0.217505;0.457893;3.60036;0;0;0;0;0;0;0;0;0;0;675;304;1024;1024;1024;224;1024;1024;1024;1;4;0;0;0;0;0; 
633;639;2019/11/01 19:59:19;0;-1;-1;-1;-1;-1;100;0;0;0;0;0;0;0;0;0;0;0;0;0;0;325;89;6.70757;323.084;87.5865;2;0;1;0.737941;-1.13245;-3.16648;0.754461;-1.10607;-3.14033;-0.404526;0.00511279;0.602049;-0.217505;0.457893;3.60036;0;0;0;0;0;0;0;0;0;0;675;304;1024;1024;1024;224;1024;1024;1024;1;4;0;0;0;0;0; 
634;640;2019/11/01 19:59:19;0;-1;-1;-1;-1;-1;100;0;0;0;0;0;0;0;0;0;0;0;0;0;0;329;90;6.83618;326;88.824;0;1;1;0.694827;-1.11673;-3.1022;0.73657;-1.10927;-3.12889;-0.426117;0.0122902;0.625842;-0.510826;0.544556;3.72066;0;0;0;0;0;0;0;0;0;0;675;304;1024;1024;1024;224;1024;1024;1024;1;4;0;0;0;0;0; 
635;641;2019/11/01 19:59:19;0;-1;-1;-1;-1;-1;100;0;0;0;0;0;0;0;0;0;0;0;0;0;0;330;91;6.74226;327.845;89.8297;0;2;1;0.697096;-1.13795;-3.14063;0.724728;-1.11788;-3.13241;-0.452128;0.00402779;0.616354;-0.717131;0.593903;3.56788;0;0;0;0;0;0;0;0;0;0;675;304;1024;1024;1024;224;1024;1024;1024;1;4;0;0;0;0;0; 
636;642;2019/11/01 19:59:19;0;-1;-1;-1;-1;-1;100;0;0;0;0;0;0;0;0;0;0;0;0;0;0;332;91;6.63429;329.662;90.4457;0;3;1;0.69338;-1.15647;-3.19174;0.715324;-1.12945;-3.15021;-0.456744;-0.0577452;0.458445;-0.779124;0.396935;2.66463;0;0;0;0;0;0;0;0;0;0;675;304;1024;1024;1024;224;1024;1024;1024;1;4;0;0;0;0;0; 
637;643;2019/11/01 19:59:19;0;-1;-1;-1;-1;-1;100;0;0;0;0;0;0;0;0;0;0;0;0;0;0;333;91;6.6387;331.196;90.8557;0;4;1;0.685394;-1.15571;-3.18962;0.706345;-1.13733;-3.16204;-0.439109;-0.153303;0.203699;-0.697998;-0.0585609;1.08067;0;0;0;0;0;0;0;0;0;0;675;304;1024;1024;1024;224;1024;1024;1024;1;4;0;0;0;0;0; 
638;644;2019/11/01 19:59:19;0;-1;-1;-1;-1;-1;100;0;0;0;0;0;0;0;0;0;0;0;0;0;0;334;91;6.7187;332.574;91.1369;0;5;1;0.669797;-1.14194;-3.15164;0.695381;-1.13871;-3.15892;-0.439569;-0.208961;0.0429127;-0.541148;-0.594322;-0.744497;0;0;0;0;0;0;0;0;0;0;675;304;1024;1024;1024;224;1024;1024;1024;1;4;0;0;0;0;0; 
639;645;2019/11/01 19:59:19;0;-1;-1;-1;-1;-1;100;0;0;0;0;0;0;0;0;0;0;0;0;0;0;335;91;6.60481;333.857;91.3304;0;6;1;0.673784;-1.16164;-3.20599;0.688902;-1.14559;-3.17304;-0.460058;-0.243716;-0.0722023;-0.490982;-1.10171;-2.46575;0;0;0;0;0;0;0;0;0;0;675;304;1024;1024;1024;224;1024;1024;1024;1;4;0;0;0;0;0; 
640;646;2019/11/01 19:59:19;0;-1;-1;-1;-1;-1;100;0;0;0;0;0;0;0;0;0;0;0;0;0;0;337;91;6.5853;335.391;91.4615;0;7;1;0.660608;-1.16508;-3.21549;0.680414;-1.15144;-3.18578;-0.500251;-0.314586;-0.270447;-0.590582;-1.96614;-5.05805;0;0;0;0;0;0;0;0;0;0;675;304;1024;1024;1024;224;1024;1024;1024;1;4;0;0;0;0;0; 
641;647;2019/11/01 19:59:19;0;-1;-1;-1;-1;-1;100;0;0;0;0;0;0;0;0;0;0;0;0;0;0;337;91;6.57056;336.48;91.5474;0;8;1;0.66209;-1.16769;-3.2227;0.674917;-1.15631;-3.19685;-0.499032;-0.34222;-0.41956;-0.541624;-2.56214;-7.1709;0;0;0;0;0;0;0;0;0;0;675;304;1024;1024;1024;224;1024;1024;1024;1;4;0;0;0;0;0; 
642;648;2019/11/01 19:59:19;0;-1;-1;-1;-1;-1;100;0;0;0;0;0;0;0;0;0;0;0;0;0;0;338;91;6.56383;337.561;91.6005;0;9;1;0.655158;-1.16889;-3.22601;0.668989;-1.16009;-3.2056;-0.484419;-0.327631;-0.472884;-0.435475;-2.61485;-8.02104;0;0;0;0;0;0;0;0;0;0;675;304;1024;1024;1024;224;1024;1024;1024;1;4;0;0;0;0;0; 
643;649;2019/11/01 19:59:19;0;-1;-1;-1;-1;-1;100;0;0;0;0;0;0;0;0;0;0;0;0;0;0;339;91;6.57735;338.636;91.6299;0;10;1;0.646216;-1.16649;-3.21938;0.662157;-1.16201;-3.20973;-0.467079;-0.295101;-0.474172;-0.37296;-2.13506;-7.51914;0;0;0;0;0;0;0;0;0;0;675;304;1024;1024;1024;224;1024;1024;1024;1;4;0;0;0;0;0; 
644;650;2019/11/01 19:59:19;0;-1;-1;-1;-1;-1;100;0;0;0;0;0;0;0;0;0;0;0;0;0;0;340;90;6.54334;339.706;91.3269;0;11;1;0.641939;-1.16671;-3.24103;0.656092;-1.16342;-3.21912;-0.437116;-0.275691;-0.524877;-0.213981;-1.54747;-6.77848;0;0;0;0;0;0;0;0;0;0;675;304;1024;1024;1024;224;1024;1024;1024;1;4;0;0;0;0;0; 
645;651;2019/11/01 19:59:19;0;-1;-1;-1;-1;-1;100;0;0;0;0;0;0;0;0;0;0;0;0;0;0;340;90;6.65334;340.457;91.0979;0;12;1;0.631326;-1.14742;-3.18745;0.648662;-1.15862;-3.20962;-0.422933;-0.217431;-0.460975;0.0198418;-0.823537;-5.61933;0;0;0;0;0;0;0;0;0;0;675;304;1024;1024;1024;224;1024;1024;1024;1;4;0;0;0;0;0; 
646;652;2019/11/01 19:59:19;0;-1;-1;-1;-1;-1;100;0;0;0;0;0;0;0;0;0;0;0;0;0;0;340.667;89.3333;6.71721;341.185;90.713;0;13;1;0.620365;-1.13272;-3.16033;0.640173;-1.15085;-3.19483;-0.414428;-0.128112;-0.312749;0.354571;0.250407;-3.54049;0;0;0;0;0;0;0;0;0;0;675;304;1024;1024;1024;224;1024;1024;1024;1;4;0;0;0;0;0; 
647;653;2019/11/01 19:59:19;0;-1;-1;-1;-1;-1;100;0;0;0;0;0;0;0;0;0;0;0;0;0;0;342;89;6.64254;342.107;90.3207;0;14;1;0.617311;-1.14354;-3.19748;0.633314;-1.14866;-3.19563;-0.41476;-0.046293;-0.182746;0.549214;1.33179;-1.17877;0;0;0;0;0;0;0;0;0;0;675;304;1024;1024;1024;224;1024;1024;1024;1;4;0;0;0;0;0; 
648;654;2019/11/01 19:59:19;0;-1;-1;-1;-1;-1;100;0;0;0;0;0;0;0;0;0;0;0;0;0;0;342;89;6.64254;342.783;90.4475;1;0;1;0.617311;-1.14354;-3.19748;0.633314;-1.14866;-3.19563;-0.41476;-0.046293;-0.182746;0.549214;1.33179;-1.17877;0;0;0;0;0;0;0;0;0;0;675;304;1024;1024;1024;224;1024;1024;1024;1;4;0;0;0;0;0; 
649;655;2019/11/01 19:59:19;0;-1;-1;-1;-1;-1;100;0;0;0;0;0;0;0;0;0;0;0;0;0;0;343;90;6.56675;343.541;90.403;0;1;1;0.616829;-1.16255;-3.22948;0.628369;-1.15282;-3.20578;-0.387871;-0.00292631;-0.110268;0.659947;1.91031;0.533718;0;0;0;0;0;0;0;0;0;0;675;304;1024;1024;1024;224;1024;1024;1024;1;4;0;0;0;0;0; 
650;656;2019/11/01 19:59:19;0;-1;-1;-1;-1;-1;100;0;0;0;0;0;0;0;0;0;0;0;0;0;0;344;90;6.75934;344.38;90.3817;0;2;1;0.591862;-1.12943;-3.13746;0.617417;-1.14581;-3.18528;-0.385836;0.0536861;0.0175102;0.674004;2.33983;2.0029;0;0;0;0;0;0;0;0;0;0;675;304;1024;1024;1024;224;1024;1024;1024;1;4;0;0;0;0;0; 
651;657;2019/11/01 19:59:19;0;-1;-1;-1;-1;-1;100;0;0;0;0;0;0;0;0;0;0;0;0;0;0;345;91;6.58302;345.273;90.702;0;3;1;0.600127;-1.16548;-3.2166;0.61223;-1.15171;-3.19468;-0.381611;0.0722833;0.0941515;0.594357;2.59477;3.32025;0;0;0;0;0;0;0;0;0;0;675;304;1024;1024;1024;224;1024;1024;1024;1;4;0;0;0;0;0; 
652;658;2019/11/01 19:59:19;0;-1;-1;-1;-1;-1;100;0;0;0;0;0;0;0;0;0;0;0;0;0;0;346;91;6.60405;346.204;90.9216;0;4;1;0.590651;-1.16177;-3.20636;0.605756;-1.15473;-3.19818;-0.375802;0.0566885;0.0956206;0.517907;2.49498;3.89697;0;0;0;0;0;0;0;0;0;0;675;304;1024;1024;1024;224;1024;1024;1024;1;4;0;0;0;0;0; 
653;659;2019/11/01 19:59:19;0;-1;-1;-1;-1;-1;100;0;0;0;0;0;0;0;0;0;0;0;0;0;0;348;92;6.55182;347.486;91.3952;0;5;1;0.580109;-1.17686;-3.227;0.598062;-1.16137;-3.20683;-0.369598;-0.0019814;0.0163117;0.464164;1.92865;3.46433;0;0;0;0;0;0;0;0;0;0;675;304;1024;1024;1024;224;1024;1024;1024;1;4;0;0;0;0;0; 
654;660;2019/11/01 19:59:19;0;-1;-1;-1;-1;-1;100;0;0;0;0;0;0;0;0;0;0;0;0;0;0;348;92;6.57435;348.379;91.7298;0;6;1;0.578122;-1.17283;-3.21595;0.59208;-1.1648;-3.20957;-0.362875;-0.0564571;-0.0379207;0.456063;1.1224;2.57423;0;0;0;0;0;0;0;0;0;0;675;304;1024;1024;1024;224;1024;1024;1024;1;4;0;0;0;0;0; 
655;661;2019/11/01 19:59:19;0;-1;-1;-1;-1;-1;100;0;0;0;0;0;0;0;0;0;0;0;0;0;0;350;92;6.62313;349.631;91.9654;0;7;1;0.558778;-1.16419;-3.19226;0.582089;-1.16462;-3.20437;-0.402504;-0.0809705;-0.0171351;0.21521;0.361837;1.91639;0;0;0;0;0;0;0;0;0;0;675;304;1024;1024;1024;224;1024;1024;1024;1;4;0;0;0;0;0; 
656;662;2019/11/01 19:59:19;0;-1;-1;-1;-1;-1;100;0;0;0;0;0;0;0;0;0;0;0;0;0;0;350;92;6.71574;350.506;92.1295;0;8;1;0.551072;-1.14813;-3.14824;0.572784;-1.15967;-3.18753;-0.419707;-0.103957;-0.0192616;-0.00610985;-0.412317;1.00301;0;0;0;0;0;0;0;0;0;0;675;304;1024;1024;1024;224;1024;1024;1024;1;4;0;0;0;0;0; 
657;663;2019/11/01 19:59:19;0;-1;-1;-1;-1;-1;100;0;0;0;0;0;0;0;0;0;0;0;0;0;0;351;92;6.5289;351.426;92.2419;0;9;1;0.559191;-1.18099;-3.23833;0.568706;-1.16607;-3.20277;-0.4256;-0.119715;-0.0438702;-0.179303;-1.01398;0.0507317;0;0;0;0;0;0;0;0;0;0;675;304;1024;1024;1024;224;1024;1024;1024;1;4;0;0;0;0;0; 
658;664;2019/11/01 19:59:19;0;-1;-1;-1;-1;-1;100;0;0;0;0;0;0;0;0;0;0;0;0;0;0;352;93;6.59603;352.378;92.635;0;10;1;0.545926;-1.17476;-3.2005;0.561872;-1.16868;-3.20209;-0.430575;-0.127531;-0.0419157;-0.326272;-1.34392;-0.5187;0;0;0;0;0;0;0;0;0;0;675;304;1024;1024;1024;224;1024;1024;1024;1;4;0;0;0;0;0; 
659;665;2019/11/01 19:59:19;0;-1;-1;-1;-1;-1;100;0;0;0;0;0;0;0;0;0;0;0;0;0;0;352;93;6.54932;353.035;92.9133;0;11;1;0.54982;-1.18314;-3.22332;0.558256;-1.17302;-3.20846;-0.417276;-0.123035;-0.0316558;-0.386124;-1.28968;-0.502738;0;0;0;0;0;0;0;0;0;0;675;304;1024;1024;1024;224;1024;1024;1024;1;4;0;0;0;0;0; 
660;666;2019/11/01 19:59:19;0;-1;-1;-1;-1;-1;100;0;0;0;0;0;0;0;0;0;0;0;0;0;0;353;93;6.54967;353.796;93.1081;0;12;1;0.542162;-1.18308;-3.22315;0.553428;-1.17604;-3.21287;-0.404689;-0.118659;-0.0321691;-0.398624;-1.02216;-0.278679;0;0;0;0;0;0;0;0;0;0;675;304;1024;1024;1024;224;1024;1024;1024;1;4;0;0;0;0;0; 
661;667;2019/11/01 19:59:19;0;-1;-1;-1;-1;-1;100;0;0;0;0;0;0;0;0;0;0;0;0;0;0;354;93;6.87438;354.632;93.2421;0;13;1;0.509287;-1.1272;-3.0709;0.540186;-1.16138;-3.17028;-0.410121;-0.0582717;0.116836;-0.269584;-0.522667;0.367697;0;0;0;0;0;0;0;0;0;0;675;304;1024;1024;1024;224;1024;1024;1024;1;4;0;0;0;0;0; 
662;668;2019/11/01 19:59:19;0;-1;-1;-1;-1;-1;100;0;0;0;0;0;0;0;0;0;0;0;0;0;0;354;93;6.87438;355.406;93.409;1;0;1;0.509287;-1.1272;-3.0709;0.540186;-1.16138;-3.17028;-0.410121;-0.0582717;0.116836;-0.269584;-0.522667;0.367697;0;0;0;0;0;0;0;0;0;0;675;304;1024;1024;1024;224;1024;1024;1024;1;4;0;0;0;0;0; 
663;669;2019/11/01 19:59:19;0;-1;-1;-1;-1;-1;100;0;0;0;0;0;0;0;0;0;0;0;0;0;0;354;93;6.87438;356.181;93.5758;2;0;1;0.509287;-1.1272;-3.0709;0.540186;-1.16138;-3.17028;-0.410121;-0.0582717;0.116836;-0.269584;-0.522667;0.367697;0;0;0;0;0;0;0;0;0;0;675;304;1024;1024;1024;224;1024;1024;1024;1;4;0;0;0;0;0; 
664;670;2019/11/01 19:59:20;0;-1;-1;-1;-1;-1;100;0;0;0;0;0;0;0;0;0;0;0;0;0;0;355;95;6.7672;356.429;94.3766;0;1;1;0.50997;-1.15634;-3.11002;0.531121;-1.15987;-3.1522;-0.370832;-0.0355463;0.175905;-0.0153951;-0.108744;0.805045;0;0;0;0;0;0;0;0;0;0;675;304;1024;1024;1024;224;1024;1024;1024;1;4;0;0;0;0;0; 
665;671;2019/11/01 19:59:20;0;-1;-1;-1;-1;-1;100;0;0;0;0;0;0;0;0;0;0;0;0;0;0;355;95;6.78308;356.64;94.8066;0;2;1;0.508777;-1.15363;-3.10275;0.524418;-1.158;-3.13736;-0.355121;0.00284426;0.30141;0.201815;0.301758;1.51697;0;0;0;0;0;0;0;0;0;0;675;304;1024;1024;1024;224;1024;1024;1024;1;4;0;0;0;0;0; 
666;672;2019/11/01 19:59:20;0;-1;-1;-1;-1;-1;100;0;0;0;0;0;0;0;0;0;0;0;0;0;0;355;96;6.81243;356.797;95.4262;0;3;1;0.506585;-1.15427;-3.08465;0.519068;-1.15688;-3.12155;-0.34125;0.0370411;0.422024;0.388575;0.673867;2.29945;0;0;0;0;0;0;0;0;0;0;675;304;1024;1024;1024;224;1024;1024;1024;1;4;0;0;0;0;0; 
667;673;2019/11/01 19:59:20;0;-1;-1;-1;-1;-1;100;0;0;0;0;0;0;0;0;0;0;0;0;0;0;356;96;6.89872;357.236;95.8388;0;4;1;0.493007;-1.13983;-3.04607;0.51125;-1.15176;-3.09891;-0.345512;0.08587;0.581278;0.448043;1.02989;3.2151;0;0;0;0;0;0;0;0;0;0;675;304;1024;1024;1024;224;1024;1024;1024;1;4;0;0;0;0;0; 
668;674;2019/11/01 19:59:20;0;-1;-1;-1;-1;-1;100;0;0;0;0;0;0;0;0;0;0;0;0;0;0;356;98;6.84839;357.527;96.773;0;5;1;0.49663;-1.15936;-3.05905;0.506864;-1.15404;-3.08695;-0.346745;0.117382;0.72583;0.442341;1.32476;4.19889;0;0;0;0;0;0;0;0;0;0;675;304;1024;1024;1024;224;1024;1024;1024;1;4;0;0;0;0;0; 
669;675;2019/11/01 19:59:20;0;-1;-1;-1;-1;-1;100;0;0;0;0;0;0;0;0;0;0;0;0;0;0;357;99;6.76804;358.034;97.7504;0;6;1;0.495144;-1.17877;-3.0906;0.503348;-1.16146;-3.08804;-0.318358;0.0702034;0.681744;0.540187;1.17957;4.21095;0;0;0;0;0;0;0;0;0;0;675;304;1024;1024;1024;224;1024;1024;1024;1;4;0;0;0;0;0; 
670;676;2019/11/01 19:59:20;0;-1;-1;-1;-1;-1;100;0;0;0;0;0;0;0;0;0;0;0;0;0;0;358;100;6.84106;358.692;98.7617;0;7;1;0.482557;-1.17177;-3.05291;0.49711;-1.16455;-3.07751;-0.326808;0.0234276;0.707284;0.499885;0.943208;4.64819;0;0;0;0;0;0;0;0;0;0;675;304;1024;1024;1024;224;1024;1024;1024;1;4;0;0;0;0;0; 
671;677;2019/11/01 19:59:20;0;-1;-1;-1;-1;-1;100;0;0;0;0;0;0;0;0;0;0;0;0;0;0;358;100;6.79927;359.14;99.4788;0;8;1;0.485523;-1.17897;-3.07168;0.493634;-1.16888;-3.07576;-0.318994;-0.0293819;0.670352;0.444173;0.437256;4.26198;0;0;0;0;0;0;0;0;0;0;675;304;1024;1024;1024;224;1024;1024;1024;1;4;0;0;0;0;0; 
672;678;2019/11/01 19:59:20;0;-1;-1;-1;-1;-1;100;0;0;0;0;0;0;0;0;0;0;0;0;0;0;359;101;6.9885;359.754;100.303;0;9;1;0.465227;-1.15251;-2.98389;0.485112;-1.16397;-3.0482;-0.326971;-0.0459338;0.695085;0.323516;-0.0689386;3.64743;0;0;0;0;0;0;0;0;0;0;675;304;1024;1024;1024;224;1024;1024;1024;1;4;0;0;0;0;0; 
673;679;2019/11/01 19:59:20;0;-1;-1;-1;-1;-1;100;0;0;0;0;0;0;0;0;0;0;0;0;0;0;360;102;6.98169;360.49;101.204;0;10;1;0.458526;-1.15911;-2.98219;0.477136;-1.16251;-3.0284;-0.332385;-0.0704656;0.698569;0.246519;-0.665561;2.65676;0;0;0;0;0;0;0;0;0;0;675;304;1024;1024;1024;224;1024;1024;1024;1;4;0;0;0;0;0; 
674;680;2019/11/01 19:59:20;0;-1;-1;-1;-1;-1;100;0;0;0;0;0;0;0;0;0;0;0;0;0;0;360;102;6.88914;360.994;101.841;0;11;1;0.464686;-1.17468;-3.02226;0.473401;-1.16616;-3.02655;-0.333036;-0.0906621;0.660273;0.202648;-1.22999;1.33231;0;0;0;0;0;0;0;0;0;0;675;304;1024;1024;1024;224;1024;1024;1024;1;4;0;0;0;0;0; 
675;681;2019/11/01 19:59:20;0;-1;-1;-1;-1;-1;100;0;0;0;0;0;0;0;0;0;0;0;0;0;0;361;103;6.83975;361.65;102.605;0;12;1;0.460737;-1.18874;-3.03937;0.469602;-1.17293;-3.0304;-0.334557;-0.100217;0.626323;0.0569134;-1.41843;0.578111;0;0;0;0;0;0;0;0;0;0;675;304;1024;1024;1024;224;1024;1024;1024;1;4;0;0;0;0;0; 
676;682;2019/11/01 19:59:20;0;-1;-1;-1;-1;-1;100;0;0;0;0;0;0;0;0;0;0;0;0;0;0;362;104;6.83523;362.416;103.46;0;13;1;0.453734;-1.19512;-3.03667;0.464842;-1.17959;-3.03228;-0.329574;-0.120174;0.556356;0.0231068;-1.42441;-0.255741;0;0;0;0;0;0;0;0;0;0;675;304;1024;1024;1024;224;1024;1024;1024;1;4;0;0;0;0;0; 
677;683;2019/11/01 19:59:20;0;-1;-1;-1;-1;-1;100;0;0;0;0;0;0;0;0;0;0;0;0;0;0;364;104;6.95681;363.58;104.062;0;14;1;0.431441;-1.17423;-2.9836;0.454821;-1.17798;-3.01768;-0.352711;-0.108459;0.565706;-0.120756;-1.17038;-0.571262;0;0;0;0;0;0;0;0;0;0;675;304;1024;1024;1024;224;1024;1024;1024;1;4;0;0;0;0;0; 
678;684;2019/11/01 19:59:20;0;-1;-1;-1;-1;-1;100;0;0;0;0;0;0;0;0;0;0;0;0;0;0;365;105;6.75595;364.714;104.798;0;15;1;0.436874;-1.2148;-3.06754;0.449437;-1.18903;-3.03264;-0.354065;-0.165128;0.40156;-0.180633;-1.17813;-1.51471;0;0;0;0;0;0;0;0;0;0;675;304;1024;1024;1024;224;1024;1024;1024;1;4;0;0;0;0;0; 
679;685;2019/11/01 19:59:20;0;-1;-1;-1;-1;-1;100;0;0;0;0;0;0;0;0;0;0;0;0;0;0;365;105;6.96289;365.506;105.313;0;16;1;0.42389;-1.17869;-2.97637;0.441773;-1.18593;-3.01576;-0.353633;-0.192573;0.291405;-0.193215;-1.19441;-2.53449;0;0;0;0;0;0;0;0;0;0;675;304;1024;1024;1024;224;1024;1024;1024;1;4;0;0;0;0;0; 
680;686;2019/11/01 19:59:20;0;-1;-1;-1;-1;-1;100;0;0;0;0;0;0;0;0;0;0;0;0;0;0;366.667;105.333;7.06349;366.58;105.772;0;17;1;0.406065;-1.16371;-2.93246;0.431061;-1.17926;-2.99077;-0.381231;-0.16785;0.317729;-0.308359;-1.02483;-2.88836;0;0;0;0;0;0;0;0;0;0;675;304;1024;1024;1024;224;1024;1024;1024;1;4;0;0;0;0;0; 
681;687;2019/11/01 19:59:20;0;-1;-1;-1;-1;-1;100;0;0;0;0;0;0;0;0;0;0;0;0;0;0;367;106;6.77619;367.435;106.298;0;18;1;0.420825;-1.2168;-3.05363;0.42799;-1.19052;-3.00962;-0.394883;-0.170936;0.273585;-0.425875;-0.897253;-3.14139;0;0;0;0;0;0;0;0;0;0;675;304;1024;1024;1024;224;1024;1024;1024;1;4;0;0;0;0;0; 
682;688;2019/11/01 19:59:20;0;-1;-1;-1;-1;-1;100;0;0;0;0;0;0;0;0;0;0;0;0;0;0;367;106;6.77619;368.161;106.754;1;0;1;0.420825;-1.2168;-3.05363;0.42799;-1.19052;-3.00962;-0.394883;-0.170936;0.273585;-0.425875;-0.897253;-3.14139;0;0;0;0;0;0;0;0;0;0;675;304;1024;1024;1024;224;1024;1024;1024;1;4;0;0;0;0;0; 
683;689;2019/11/01 19:59:20;0;-1;-1;-1;-1;-1;100;0;0;0;0;0;0;0;0;0;0;0;0;0;0;370;106;6.74623;369.597;106.919;0;1;1;0.400478;-1.22221;-3.06719;0.419736;-1.20003;-3.02689;-0.391316;-0.172519;0.182595;-0.466856;-0.717516;-3.16414;0;0;0;0;0;0;0;0;0;0;675;304;1024;1024;1024;224;1024;1024;1024;1;4;0;0;0;0;0; 
684;690;2019/11/01 19:59:20;0;-1;-1;-1;-1;-1;100;0;0;0;0;0;0;0;0;0;0;0;0;0;0;370;107;6.85787;370.496;107.392;0;2;1;0.393958;-1.20788;-3.01256;0.412003;-1.20238;-3.02259;-0.381348;-0.187034;0.092731;-0.378131;-0.699452;-3.51737;0;0;0;0;0;0;0;0;0;0;675;304;1024;1024;1024;224;1024;1024;1024;1;4;0;0;0;0;0; 
685;691;2019/11/01 19:59:20;0;-1;-1;-1;-1;-1;100;0;0;0;0;0;0;0;0;0;0;0;0;0;0;371.333;107.333;6.97628;371.541;107.817;0;3;1;0.377723;-1.1892;-2.95989;0.401719;-1.19843;-3.00378;-0.392138;-0.144409;0.154399;-0.357196;-0.348755;-2.9564;0;0;0;0;0;0;0;0;0;0;675;304;1024;1024;1024;224;1024;1024;1024;1;4;0;0;0;0;0; 
686;692;2019/11/01 19:59:20;0;-1;-1;-1;-1;-1;100;0;0;0;0;0;0;0;0;0;0;0;0;0;0;372;108;6.87365;372.467;108.321;0;4;1;0.378518;-1.21066;-3.00096;0.394759;-1.2021;-3.00293;-0.396203;-0.142008;0.136524;-0.360025;-0.0361803;-2.30396;0;0;0;0;0;0;0;0;0;0;675;304;1024;1024;1024;224;1024;1024;1024;1;4;0;0;0;0;0; 
687;693;2019/11/01 19:59:20;0;-1;-1;-1;-1;-1;100;0;0;0;0;0;0;0;0;0;0;0;0;0;0;374;110;6.86099;373.744;109.311;0;5;1;0.364654;-1.22403;-2.99711;0.385727;-1.20868;-3.00119;-0.392889;-0.185904;0.046247;-0.255917;-0.0835032;-2.31161;0;0;0;0;0;0;0;0;0;0;675;304;1024;1024;1024;224;1024;1024;1024;1;4;0;0;0;0;0; 
688;694;2019/11/01 19:59:20;0;-1;-1;-1;-1;-1;100;0;0;0;0;0;0;0;0;0;0;0;0;0;0;375;111;6.62926;374.951;110.324;0;6;1;0.369865;-1.27258;-3.09702;0.380968;-1.22785;-3.02994;-0.396677;-0.239303;-0.0417738;-0.159693;-0.284109;-2.46637;0;0;0;0;0;0;0;0;0;0;675;304;1024;1024;1024;224;1024;1024;1024;1;4;0;0;0;0;0; 
689;695;2019/11/01 19:59:20;0;-1;-1;-1;-1;-1;100;0;0;0;0;0;0;0;0;0;0;0;0;0;0;376;112;6.70085;376.107;111.354;0;7;1;0.358458;-1.26468;-3.05912;0.374215;-1.2389;-3.03869;-0.419757;-0.298784;-0.0721772;-0.209372;-0.674604;-2.49704;0;0;0;0;0;0;0;0;0;0;675;304;1024;1024;1024;224;1024;1024;1024;1;4;0;0;0;0;0; 
690;696;2019/11/01 19:59:20;0;-1;-1;-1;-1;-1;100;0;0;0;0;0;0;0;0;0;0;0;0;0;0;377;112;7.00624;377.228;112.077;0;8;1;0.335703;-1.20956;-2.92578;0.362662;-1.2301;-3.00482;-0.448858;-0.289924;0.0276545;-0.395172;-0.81557;-1.75806;0;0;0;0;0;0;0;0;0;0;675;304;1024;1024;1024;224;1024;1024;1024;1;4;0;0;0;0;0; 
691;697;2019/11/01 19:59:20;0;-1;-1;-1;-1;-1;100;0;0;0;0;0;0;0;0;0;0;0;0;0;0;378;112.5;6.87505;378.322;112.738;0;9;1;0.334842;-1.23542;-2.97927;0.354316;-1.23169;-2.99716;-0.458582;-0.306766;0.0430497;-0.50239;-1.13758;-1.49942;0;0;0;0;0;0;0;0;0;0;675;304;1024;1024;1024;224;1024;1024;1024;1;4;0;0;0;0;0; 
692;698;2019/11/01 19:59:20;0;-1;-1;-1;-1;-1;100;0;0;0;0;0;0;0;0;0;0;0;0;0;0;379;114;6.79292;379.397;113.673;0;10;1;0.331536;-1.25879;-3.00818;0.347482;-1.23982;-3.00046;-0.46391;-0.33467;0.0357004;-0.571769;-1.45179;-1.30221;0;0;0;0;0;0;0;0;0;0;675;304;1024;1024;1024;224;1024;1024;1024;1;4;0;0;0;0;0; 
693;699;2019/11/01 19:59:20;0;-1;-1;-1;-1;-1;100;0;0;0;0;0;0;0;0;0;0;0;0;0;0;380;114;6.82313;380.457;114.327;0;11;1;0.322747;-1.25321;-2.99486;0.340061;-1.24384;-2.99878;-0.460676;-0.341184;0.0310242;-0.613711;-1.49106;-0.842104;0;0;0;0;0;0;0;0;0;0;675;304;1024;1024;1024;224;1024;1024;1024;1;4;0;0;0;0;0; 
694;700;2019/11/01 19:59:20;0;-1;-1;-1;-1;-1;100;0;0;0;0;0;0;0;0;0;0;0;0;0;0;380.667;114.667;6.86459;381.401;114.989;0;12;1;0.315946;-1.24935;-2.97365;0.332827;-1.24549;-2.99124;-0.46862;-0.275158;0.173112;-0.655471;-1.03779;0.352707;0;0;0;0;0;0;0;0;0;0;675;304;1024;1024;1024;224;1024;1024;1024;1;4;0;0;0;0;0; 
695;701;2019/11/01 19:59:20;0;-1;-1;-1;-1;-1;100;0;0;0;0;0;0;0;0;0;0;0;0;0;0;381.333;115.333;6.65617;382.258;115.658;0;13;1;0.320835;-1.2923;-3.06353;0.329229;-1.25954;-3.01293;-0.460788;-0.247487;0.206738;-0.557106;-0.417861;1.32524;0;0;0;0;0;0;0;0;0;0;675;304;1024;1024;1024;224;1024;1024;1024;1;4;0;0;0;0;0; 
696;702;2019/11/01 19:59:20;0;-1;-1;-1;-1;-1;100;0;0;0;0;0;0;0;0;0;0;0;0;0;0;383;116;6.616;383.373;116.331;0;14;1;0.310198;-1.304;-3.07889;0.32352;-1.27287;-3.03272;-0.432753;-0.319284;0.0126592;-0.269959;-0.367941;0.735275;0;0;0;0;0;0;0;0;0;0;675;304;1024;1024;1024;224;1024;1024;1024;1;4;0;0;0;0;0; 
697;703;2019/11/01 19:59:20;0;-1;-1;-1;-1;-1;100;0;0;0;0;0;0;0;0;0;0;0;0;0;0;383;117;6.80223;384.143;117.113;0;15;1;0.301706;-1.27391;-2.98986;0.316976;-1.27319;-3.01986;-0.408739;-0.357232;-0.0830605;0.0370316;-0.422258;-0.0623529;0;0;0;0;0;0;0;0;0;0;675;304;1024;1024;1024;224;1024;1024;1024;1;4;0;0;0;0;0; 
698;704;2019/11/01 19:59:20;0;-1;-1;-1;-1;-1;100;0;0;0;0;0;0;0;0;0;0;0;0;0;0;383;118;6.66515;384.662;117.973;0;16;1;0.307911;-1.30584;-3.04652;0.314256;-1.28298;-3.02786;-0.377902;-0.386663;-0.159224;0.365621;-0.460946;-0.815684;0;0;0;0;0;0;0;0;0;0;675;304;1024;1024;1024;224;1024;1024;1024;1;4;0;0;0;0;0; 
699;705;2019/11/01 19:59:20;0;-1;-1;-1;-1;-1;100;0;0;0;0;0;0;0;0;0;0;0;0;0;0;384;118;6.73119;385.318;118.572;0;17;1;0.297468;-1.29303;-3.01663;0.30922;-1.286;-3.02449;-0.349882;-0.400316;-0.198187;0.661737;-0.512663;-1.40458;0;0;0;0;0;0;0;0;0;0;675;304;1024;1024;1024;224;1024;1024;1024;1;4;0;0;0;0;0; 
700;706;2019/11/01 19:59:20;0;-1;-1;-1;-1;-1;100;0;0;0;0;0;0;0;0;0;0;0;0;0;0;385;120;7.02751;386.075;119.618;0;18;1;0.277816;-1.24938;-2.88027;0.299799;-1.27501;-2.98123;-0.341799;-0.358041;-0.0789245;0.9034;-0.638521;-1.84905;0;0;0;0;0;0;0;0;0;0;675;304;1024;1024;1024;224;1024;1024;1024;1;4;0;0;0;0;0; 
701;707;2019/11/01 19:59:20;0;-1;-1;-1;-1;-1;100;0;0;0;0;0;0;0;0;0;0;0;0;0;0;385;121;6.76412;386.586;120.669;0;19;1;0.288634;-1.30367;-2.98766;0.296449;-1.28361;-2.98316;-0.335958;-0.310943;0.0715117;1.04044;-0.636472;-1.64934;0;0;0;0;0;0;0;0;0;0;675;304;1024;1024;1024;224;1024;1024;1024;1;4;0;0;0;0;0; 
702;708;2019/11/01 19:59:20;0;-1;-1;-1;-1;-1;100;0;0;0;0;0;0;0;0;0;0;0;0;0;0;385.333;122.667;6.70945;387.025;121.936;0;20;1;0.288504;-1.32379;-3.00401;0.294066;-1.29566;-2.98941;-0.319175;-0.277552;0.215806;1.07774;-0.215261;-0.178506;0;0;0;0;0;0;0;0;0;0;675;304;1024;1024;1024;224;1024;1024;1024;1;4;0;0;0;0;0; 
703;709;2019/11/01 19:59:20;0;-1;-1;-1;-1;-1;100;0;0;0;0;0;0;0;0;0;0;0;0;0;0;386;124;6.71937;387.52;123.252;0;21;1;0.283122;-1.32941;-2.99319;0.290783;-1.30579;-2.99054;-0.296086;-0.296698;0.246533;1.09643;0.112536;1.20886;0;0;0;0;0;0;0;0;0;0;675;304;1024;1024;1024;224;1024;1024;1024;1;4;0;0;0;0;0; 
704;710;2019/11/01 19:59:20;0;-1;-1;-1;-1;-1;100;0;0;0;0;0;0;0;0;0;0;0;0;0;0;387;125;6.6947;388.161;124.496;0;22;1;0.276703;-1.34001;-2.99941;0.286559;-1.31605;-2.9932;-0.288239;-0.310067;0.286291;1.01586;0.373345;2.50412;0;0;0;0;0;0;0;0;0;0;675;304;1024;1024;1024;224;1024;1024;1024;1;4;0;0;0;0;0; 
705;711;2019/11/01 19:59:20;0;-1;-1;-1;-1;-1;100;0;0;0;0;0;0;0;0;0;0;0;0;0;0;387;126;6.66505;388.591;125.686;0;23;1;0.277934;-1.3517;-3.00792;0.283971;-1.32675;-2.99762;-0.273753;-0.348755;0.279075;0.913475;0.429873;3.40803;0;0;0;0;0;0;0;0;0;0;675;304;1024;1024;1024;224;1024;1024;1024;1;4;0;0;0;0;0; 
706;712;2019/11/01 19:59:20;0;-1;-1;-1;-1;-1;100;0;0;0;0;0;0;0;0;0;0;0;0;0;0;387;127;6.84061;388.867;126.837;0;24;1;0.270801;-1.3226;-2.92601;0.28002;-1.3255;-2.97614;-0.243222;-0.410854;0.187767;0.941672;0.0470552;3.10963;0;0;0;0;0;0;0;0;0;0;675;304;1024;1024;1024;224;1024;1024;1024;1;4;0;0;0;0;0; 
707;713;2019/11/01 19:59:20;0;-1;-1;-1;-1;-1;100;0;0;0;0;0;0;0;0;0;0;0;0;0;0;387;128;7.04435;389.033;127.957;0;25;1;0.262969;-1.28977;-2.83682;0.274905;-1.31478;-2.93434;-0.231955;-0.370977;0.307572;0.980258;-0.211463;2.80829;0;0;0;0;0;0;0;0;0;0;675;304;1024;1024;1024;224;1024;1024;1024;1;4;0;0;0;0;0; 
708;714;2019/11/01 19:59:20;0;-1;-1;-1;-1;-1;100;0;0;0;0;0;0;0;0;0;0;0;0;0;0;388;128;7.00951;389.439;128.737;0;26;1;0.257149;-1.29618;-2.85091;0.269578;-1.3092;-2.90931;-0.236946;-0.276642;0.504361;0.916472;-0.123245;2.83708;0;0;0;0;0;0;0;0;0;0;675;304;1024;1024;1024;224;1024;1024;1024;1;4;0;0;0;0;0; 
709;715;2019/11/01 19:59:20;0;-1;-1;-1;-1;-1;100;0;0;0;0;0;0;0;0;0;0;0;0;0;0;388;128;7.04168;389.701;129.268;0;27;1;0.255974;-1.29026;-2.83789;0.265497;-1.30352;-2.88789;-0.243126;-0.156926;0.712501;0.761334;0.484116;3.56271;0;0;0;0;0;0;0;0;0;0;675;304;1024;1024;1024;224;1024;1024;1024;1;4;0;0;0;0;0; 
710;716;2019/11/01 19:59:20;0;-1;-1;-1;-1;-1;100;0;0;0;0;0;0;0;0;0;0;0;0;0;0;388;128;7.14852;389.86;129.62;0;28;1;0.252148;-1.27097;-2.79548;0.261492;-1.29375;-2.86016;-0.245959;-0.00511558;0.958688;0.625611;1.50804;4.82229;0;0;0;0;0;0;0;0;0;0;675;304;1024;1024;1024;224;1024;1024;1024;1;4;0;0;0;0;0; 
711;717;2019/11/01 19:59:20;0;-1;-1;-1;-1;-1;100;0;0;0;0;0;0;0;0;0;0;0;0;0;0;389;128;6.99786;390.263;129.842;0;29;1;0.250438;-1.29833;-2.85566;0.258176;-1.29513;-2.85881;-0.250569;0.123186;1.12942;0.467933;2.78914;6.28854;0;0;0;0;0;0;0;0;0;0;675;304;1024;1024;1024;224;1024;1024;1024;1;4;0;0;0;0;0; 
712;718;2019/11/01 19:59:20;0;-1;-1;-1;-1;-1;100;0;0;0;0;0;0;0;0;0;0;0;0;0;0;389;129;6.60038;390.526;130.289;0;30;1;0.26552;-1.38231;-3.02275;0.260379;-1.32128;-2.90799;-0.228763;0.0907661;0.94972;0.33849;3.6763;6.81537;0;0;0;0;0;0;0;0;0;0;675;304;1024;1024;1024;224;1024;1024;1024;1;4;0;0;0;0;0; 
713;719;2019/11/01 19:59:20;0;-1;-1;-1;-1;-1;100;0;0;0;0;0;0;0;0;0;0;0;0;0;0;390;130;6.70661;391.006;130.901;0;31;1;0.253865;-1.36611;-2.97007;0.258425;-1.33473;-2.92662;-0.203057;-0.0251834;0.600665;0.318472;3.58642;5.25945;0;0;0;0;0;0;0;0;0;0;675;304;1024;1024;1024;224;1024;1024;1024;1;4;0;0;0;0;0; 
714;720;2019/11/01 19:59:20;0;-1;-1;-1;-1;-1;100;0;0;0;0;0;0;0;0;0;0;0;0;0;0;391;130;6.87521;391.645;131.314;0;32;1;0.240373;-1.33261;-2.89724;0.253009;-1.33409;-2.9178;-0.187988;-0.114497;0.326495;0.386556;2.79924;2.44551;0;0;0;0;0;0;0;0;0;0;675;304;1024;1024;1024;224;1024;1024;1024;1;4;0;0;0;0;0; 
715;721;2019/11/01 19:59:20;0;-1;-1;-1;-1;-1;100;0;0;0;0;0;0;0;0;0;0;0;0;0;0;391;131;6.89146;392.08;131.901;0;33;1;0.239806;-1.33501;-2.88573;0.249048;-1.33437;-2.90818;-0.178466;-0.191872;0.114859;0.490101;1.54002;-0.918891;0;0;0;0;0;0;0;0;0;0;675;304;1024;1024;1024;224;1024;1024;1024;1;4;0;0;0;0;0; 
716;722;2019/11/01 19:59:20;0;-1;-1;-1;-1;-1;100;0;0;0;0;0;0;0;0;0;0;0;0;0;0;391.333;131.333;7.02723;392.473;132.404;0;34;1;0.232803;-1.31103;-2.82845;0.244175;-1.32736;-2.88426;-0.176223;-0.249322;-0.0273066;0.572496;-0.0510293;-4.4881;0;0;0;0;0;0;0;0;0;0;675;304;1024;1024;1024;224;1024;1024;1024;1;4;0;0;0;0;0; 
717;723;2019/11/01 19:59:20;0;-1;-1;-1;-1;-1;100;0;0;0;0;0;0;0;0;0;0;0;0;0;0;391;132;7.11742;392.625;132.95;0;35;1;0.232193;-1.29799;-2.78959;0.24058;-1.31855;-2.85586;-0.175987;-0.24312;-0.0046048;0.641277;-1.49316;-7.22066;0;0;0;0;0;0;0;0;0;0;675;304;1024;1024;1024;224;1024;1024;1024;1;4;0;0;0;0;0; 
718;724;2019/11/01 19:59:20;0;-1;-1;-1;-1;-1;100;0;0;0;0;0;0;0;0;0;0;0;0;0;0;391;132;6.992;392.707;133.317;0;36;1;0.236358;-1.32127;-2.83963;0.239313;-1.31937;-2.85099;-0.1897;-0.138232;0.224826;0.540731;-1.81021;-7.22666;0;0;0;0;0;0;0;0;0;0;675;304;1024;1024;1024;224;1024;1024;1024;1;4;0;0;0;0;0; 
719;725;2019/11/01 19:59:20;0;-1;-1;-1;-1;-1;100;0;0;0;0;0;0;0;0;0;0;0;0;0;0;391;132;6.85402;392.741;133.553;0;37;1;0.241116;-1.34787;-2.8968;0.239854;-1.32792;-2.86474;-0.187966;-0.0557492;0.381973;0.384694;-1.20817;-5.20917;0;0;0;0;0;0;0;0;0;0;675;304;1024;1024;1024;224;1024;1024;1024;1;4;0;0;0;0;0; 
720;726;2019/11/01 19:59:20;0;-1;-1;-1;-1;-1;100;0;0;0;0;0;0;0;0;0;0;0;0;0;0;390;132;6.96302;392.421;133.696;0;38;1;0.244516;-1.32677;-2.85145;0.241253;-1.32758;-2.86075;-0.159718;-0.00742752;0.456982;0.343688;-0.297405;-2.60451;0;0;0;0;0;0;0;0;0;0;675;304;1024;1024;1024;224;1024;1024;1024;1;4;0;0;0;0;0; 
721;727;2019/11/01 19:59:20;0;-1;-1;-1;-1;-1;100;0;0;0;0;0;0;0;0;0;0;0;0;0;0;390;132;6.85898;392.165;133.772;0;39;1;0.248225;-1.3469;-2.8947;0.243345;-1.33337;-2.87094;-0.118604;-0.000484112;0.422902;0.445224;0.585709;-0.332788;0;0;0;0;0;0;0;0;0;0;675;304;1024;1024;1024;224;1024;1024;1024;1;4;0;0;0;0;0; 
722;728;2019/11/01 19:59:20;0;-1;-1;-1;-1;-1;100;0;0;0;0;0;0;0;0;0;0;0;0;0;0;390;132;6.82359;391.957;133.799;0;40;1;0.249513;-1.35388;-2.90972;0.245195;-1.33953;-2.88257;-0.0670884;-0.048846;0.260499;0.702873;1.15186;0.949442;0;0;0;0;0;0;0;0;0;0;675;304;1024;1024;1024;224;1024;1024;1024;1;4;0;0;0;0;0; 
723;729;2019/11/01 19:59:20;0;-1;-1;-1;-1;-1;100;0;0;0;0;0;0;0;0;0;0;0;0;0;0;390;132;6.87672;391.785;133.794;0;41;1;0.247585;-1.34342;-2.88723;0.245912;-1.3407;-2.88397;-0.018965;-0.117715;0.0440754;1.04866;1.19182;0.76403;0;0;0;0;0;0;0;0;0;0;675;304;1024;1024;1024;224;1024;1024;1024;1;4;0;0;0;0;0; 
724;730;2019/11/01 19:59:21;0;-1;-1;-1;-1;-1;100;0;0;0;0;0;0;0;0;0;0;0;0;0;0;389;131;6.8482;391.322;133.446;0;42;1;0.255911;-1.34344;-2.90396;0.248912;-1.34152;-2.88997;0.0269433;-0.159066;-0.129165;1.49419;0.63191;-0.954957;0;0;0;0;0;0;0;0;0;0;675;304;1024;1024;1024;224;1024;1024;1024;1;4;0;0;0;0;0; 
725;731;2019/11/01 19:59:21;0;-1;-1;-1;-1;-1;100;0;0;0;0;0;0;0;0;0;0;0;0;0;0;389;131;7.16409;390.967;133.17;0;43;1;0.244627;-1.2842;-2.77591;0.247626;-1.32432;-2.85575;0.0471964;-0.081081;-0.0416294;1.83544;0.278004;-2.26428;0;0;0;0;0;0;0;0;0;0;675;304;1024;1024;1024;224;1024;1024;1024;1;4;0;0;0;0;0; 
726;732;2019/11/01 19:59:21;0;-1;-1;-1;-1;-1;100;0;0;0;0;0;0;0;0;0;0;0;0;0;0;388;132;7.33773;390.375;133.267;0;44;1;0.245646;-1.25902;-2.70584;0.247032;-1.30473;-2.81078;0.0513924;0.042558;0.174548;1.94416;0.366379;-2.48623;0;0;0;0;0;0;0;0;0;0;675;304;1024;1024;1024;224;1024;1024;1024;1;4;0;0;0;0;0; 
727;733;2019/11/01 19:59:21;0;-1;-1;-1;-1;-1;100;0;0;0;0;0;0;0;0;0;0;0;0;0;0;388;132;7.33773;390.688;133.721;1;0;1;0.245646;-1.25902;-2.70584;0.247032;-1.30473;-2.81078;0.0513924;0.042558;0.174548;1.94416;0.366379;-2.48623;0;0;0;0;0;0;0;0;0;0;675;304;1024;1024;1024;224;1024;1024;1024;1;4;0;0;0;0;0; 
728;734;2019/11/01 19:59:21;0;-1;-1;-1;-1;-1;100;0;0;0;0;0;0;0;0;0;0;0;0;0;0;388;132;7.10713;389.963;133.511;0;1;1;0.253617;-1.29987;-2.79363;0.249008;-1.30327;-2.80563;0.0502157;0.12854;0.328209;1.74424;0.661386;-1.81581;0;0;0;0;0;0;0;0;0;0;675;304;1024;1024;1024;224;1024;1024;1024;1;4;0;0;0;0;0; 
729;735;2019/11/01 19:59:21;0;-1;-1;-1;-1;-1;100;0;0;0;0;0;0;0;0;0;0;0;0;0;0;388;133;7.13496;389.539;133.756;0;2;1;0.252627;-1.30015;-2.77822;0.250093;-1.30234;-2.79741;0.0468933;0.204394;0.488368;1.43663;1.2635;-0.309645;0;0;0;0;0;0;0;0;0;0;675;304;1024;1024;1024;224;1024;1024;1024;1;4;0;0;0;0;0; 
730;736;2019/11/01 19:59:21;0;-1;-1;-1;-1;-1;100;0;0;0;0;0;0;0;0;0;0;0;0;0;0;388;133;7.09743;389.26;133.92;0;3;1;0.253963;-1.30703;-2.79291;0.251254;-1.30374;-2.79606;0.046419;0.249091;0.593868;1.08574;2.01341;1.69576;0;0;0;0;0;0;0;0;0;0;675;304;1024;1024;1024;224;1024;1024;1024;1;4;0;0;0;0;0; 
731;737;2019/11/01 19:59:21;0;-1;-1;-1;-1;-1;100;0;0;0;0;0;0;0;0;0;0;0;0;0;0;387;134;7.03057;388.736;134.353;0;4;1;0.263484;-1.32489;-2.8149;0.254923;-1.31009;-2.80171;0.0484252;0.257018;0.65836;0.724961;2.63202;3.71261;0;0;0;0;0;0;0;0;0;0;675;304;1024;1024;1024;224;1024;1024;1024;1;4;0;0;0;0;0; 
732;738;2019/11/01 19:59:21;0;-1;-1;-1;-1;-1;100;0;0;0;0;0;0;0;0;0;0;0;0;0;0;387;135;7.06625;388.359;134.97;0;5;1;0.262154;-1.32361;-2.79612;0.257092;-1.31414;-2.80003;0.0614512;0.189052;0.585694;0.483761;2.50368;4.37445;0;0;0;0;0;0;0;0;0;0;675;304;1024;1024;1024;224;1024;1024;1024;1;4;0;0;0;0;0; 
733;739;2019/11/01 19:59:21;0;-1;-1;-1;-1;-1;100;0;0;0;0;0;0;0;0;0;0;0;0;0;0;386.667;135.333;7.17529;387.975;135.504;0;6;1;0.260491;-1.30527;-2.75214;0.258112;-1.31148;-2.78566;0.0747887;0.0903395;0.437359;0.370326;1.66573;3.52409;0;0;0;0;0;0;0;0;0;0;675;304;1024;1024;1024;224;1024;1024;1024;1;4;0;0;0;0;0; 
734;740;2019/11/01 19:59:21;0;-1;-1;-1;-1;-1;100;0;0;0;0;0;0;0;0;0;0;0;0;0;0;386;136;7.02427;387.479;136.084;0;7;1;0.270833;-1.33695;-2.80825;0.261928;-1.31912;-2.79244;0.0964606;-0.00907285;0.315093;0.406836;0.449995;2.06209;0;0;0;0;0;0;0;0;0;0;675;304;1024;1024;1024;224;1024;1024;1024;1;4;0;0;0;0;0; 
735;741;2019/11/01 19:59:21;0;-1;-1;-1;-1;-1;100;0;0;0;0;0;0;0;0;0;0;0;0;0;0;385;136;7.15016;386.796;136.486;0;8;1;0.273051;-1.31341;-2.75881;0.265265;-1.31741;-2.78235;0.118451;-0.0656224;0.249186;0.52981;-0.808095;0.282271;0;0;0;0;0;0;0;0;0;0;675;304;1024;1024;1024;224;1024;1024;1024;1;4;0;0;0;0;0; 
736;742;2019/11/01 19:59:21;0;-1;-1;-1;-1;-1;100;0;0;0;0;0;0;0;0;0;0;0;0;0;0;385;136;7.15016;386.87;136.914;1;0;1;0.273051;-1.31341;-2.75881;0.265265;-1.31741;-2.78235;0.118451;-0.0656224;0.249186;0.52981;-0.808095;0.282271;0;0;0;0;0;0;0;0;0;0;675;304;1024;1024;1024;224;1024;1024;1024;1;4;0;0;0;0;0; 
737;743;2019/11/01 19:59:21;0;-1;-1;-1;-1;-1;100;0;0;0;0;0;0;0;0;0;0;0;0;0;0;383;136;7.10531;385.45;136.989;0;1;1;0.288836;-1.32171;-2.77622;0.272336;-1.3187;-2.78051;0.14322;-0.0905506;0.202725;0.64917;-1.64722;-1.16925;0;0;0;0;0;0;0;0;0;0;675;304;1024;1024;1024;224;1024;1024;1024;1;4;0;0;0;0;0; 
738;744;2019/11/01 19:59:21;0;-1;-1;-1;-1;-1;100;0;0;0;0;0;0;0;0;0;0;0;0;0;0;383;136;7.10531;385.46;137.401;1;0;1;0.288836;-1.32171;-2.77622;0.272336;-1.3187;-2.78051;0.14322;-0.0905506;0.202725;0.64917;-1.64722;-1.16925;0;0;0;0;0;0;0;0;0;0;675;304;1024;1024;1024;224;1024;1024;1024;1;4;0;0;0;0;0; 
739;745;2019/11/01 19:59:21;0;-1;-1;-1;-1;-1;100;0;0;0;0;0;0;0;0;0;0;0;0;0;0;381;136;7.28568;383.615;137.231;0;1;1;0.295399;-1.28898;-2.70749;0.279255;-1.30978;-2.75861;0.158795;-0.0534187;0.250716;0.720005;-1.91794;-1.92225;0;0;0;0;0;0;0;0;0;0;675;304;1024;1024;1024;224;1024;1024;1024;1;4;0;0;0;0;0; 
740;746;2019/11/01 19:59:21;0;-1;-1;-1;-1;-1;100;0;0;0;0;0;0;0;0;0;0;0;0;0;0;380;136;7.26704;382.223;137.168;0;2;1;0.303032;-1.29229;-2.71444;0.286388;-1.30454;-2.74535;0.183004;-0.00328199;0.314169;0.795993;-1.72671;-1.96643;0;0;0;0;0;0;0;0;0;0;675;304;1024;1024;1024;224;1024;1024;1024;1;4;0;0;0;0;0; 
741;747;2019/11/01 19:59:21;0;-1;-1;-1;-1;-1;100;0;0;0;0;0;0;0;0;0;0;0;0;0;0;379;137;7.12267;380.994;137.479;0;3;1;0.316188;-1.32385;-2.76494;0.295328;-1.31033;-2.75123;0.221247;0.00147667;0.29162;0.916166;-1.30213;-1.61628;0;0;0;0;0;0;0;0;0;0;675;304;1024;1024;1024;224;1024;1024;1024;1;4;0;0;0;0;0; 
742;748;2019/11/01 19:59:21;0;-1;-1;-1;-1;-1;100;0;0;0;0;0;0;0;0;0;0;0;0;0;0;378;136;7.14601;379.831;137.356;0;4;1;0.322146;-1.31418;-2.76041;0.303373;-1.31148;-2.75398;0.25686;0.0237607;0.290138;1.03003;-0.682953;-1.0445;0;0;0;0;0;0;0;0;0;0;675;304;1024;1024;1024;224;1024;1024;1024;1;4;0;0;0;0;0; 
743;749;2019/11/01 19:59:21;0;-1;-1;-1;-1;-1;100;0;0;0;0;0;0;0;0;0;0;0;0;0;0;378;136;7.14601;379.616;137.701;1;0;1;0.322146;-1.31418;-2.76041;0.303373;-1.31148;-2.75398;0.25686;0.0237607;0.290138;1.03003;-0.682953;-1.0445;0;0;0;0;0;0;0;0;0;0;675;304;1024;1024;1024;224;1024;1024;1024;1;4;0;0;0;0;0; 
744;750;2019/11/01 19:59:21;0;-1;-1;-1;-1;-1;100;0;0;0;0;0;0;0;0;0;0;0;0;0;0;375;136;7.13153;377.597;137.381;0;1;1;0.343815;-1.31685;-2.76601;0.315506;-1.31309;-2.75759;0.287849;0.0257496;0.239986;1.06893;-0.166555;-0.651185;0;0;0;0;0;0;0;0;0;0;675;304;1024;1024;1024;224;1024;1024;1024;1;4;0;0;0;0;0; 
745;751;2019/11/01 19:59:21;0;-1;-1;-1;-1;-1;100;0;0;0;0;0;0;0;0;0;0;0;0;0;0;374;137;7.30101;376.029;137.563;0;2;1;0.342677;-1.29151;-2.6974;0.323657;-1.30662;-2.73953;0.326395;0.0516282;0.266705;1.18989;0.325834;-0.199116;0;0;0;0;0;0;0;0;0;0;675;304;1024;1024;1024;224;1024;1024;1024;1;4;0;0;0;0;0; 
746;752;2019/11/01 19:59:21;0;-1;-1;-1;-1;-1;100;0;0;0;0;0;0;0;0;0;0;0;0;0;0;373;137;7.12916;374.662;137.684;0;3;1;0.357945;-1.32264;-2.76242;0.333943;-1.31142;-2.7464;0.383;0.0253627;0.201799;1.48125;0.46512;-0.28688;0;0;0;0;0;0;0;0;0;0;675;304;1024;1024;1024;224;1024;1024;1024;1;4;0;0;0;0;0; 
747;753;2019/11/01 19:59:21;0;-1;-1;-1;-1;-1;100;0;0;0;0;0;0;0;0;0;0;0;0;0;0;372;137;7.1593;373.399;137.762;0;4;1;0.363415;-1.31707;-2.75079;0.342785;-1.31312;-2.74771;0.422813;-0.0141563;0.113002;1.70948;0.241856;-0.860605;0;0;0;0;0;0;0;0;0;0;675;304;1024;1024;1024;224;1024;1024;1024;1;4;0;0;0;0;0; 
748;754;2019/11/01 19:59:21;0;-1;-1;-1;-1;-1;100;0;0;0;0;0;0;0;0;0;0;0;0;0;0;371;137;7.15729;372.195;137.809;0;5;1;0.370497;-1.31744;-2.75156;0.351099;-1.31442;-2.74887;0.444556;-0.0224797;0.0758798;1.78993;0.0631255;-1.25471;0;0;0;0;0;0;0;0;0;0;675;304;1024;1024;1024;224;1024;1024;1024;1;4;0;0;0;0;0; 
749;755;2019/11/01 19:59:21;0;-1;-1;-1;-1;-1;100;0;0;0;0;0;0;0;0;0;0;0;0;0;0;370;138;7.03539;371.029;138.153;0;6;1;0.384018;-1.3457;-2.79466;0.360974;-1.3238;-2.7626;0.463863;-0.0556396;0.0160217;1.78239;-0.233858;-1.69094;0;0;0;0;0;0;0;0;0;0;675;304;1024;1024;1024;224;1024;1024;1024;1;4;0;0;0;0;0; 
750;756;2019/11/01 19:59:21;0;-1;-1;-1;-1;-1;100;0;0;0;0;0;0;0;0;0;0;0;0;0;0;369;138;7.27984;369.887;138.389;0;7;1;0.377985;-1.30051;-2.70082;0.366078;-1.31681;-2.74407;0.480234;-0.0482415;0.0636122;1.83757;-0.435738;-1.71877;0;0;0;0;0;0;0;0;0;0;675;304;1024;1024;1024;224;1024;1024;1024;1;4;0;0;0;0;0; 
751;757;2019/11/01 19:59:21;0;-1;-1;-1;-1;-1;100;0;0;0;0;0;0;0;0;0;0;0;0;0;0;368;139;7.08371;368.764;138.867;0;8;1;0.395503;-1.34191;-2.77105;0.374905;-1.32434;-2.75216;0.492757;-0.0997155;-0.0122516;1.76677;-0.865709;-2.14505;0;0;0;0;0;0;0;0;0;0;675;304;1024;1024;1024;224;1024;1024;1024;1;4;0;0;0;0;0; 
752;758;2019/11/01 19:59:21;0;-1;-1;-1;-1;-1;100;0;0;0;0;0;0;0;0;0;0;0;0;0;0;368;139;7.08371;368.218;139.159;1;0;1;0.395503;-1.34191;-2.77105;0.374905;-1.32434;-2.75216;0.492757;-0.0997155;-0.0122516;1.76677;-0.865709;-2.14505;0;0;0;0;0;0;0;0;0;0;675;304;1024;1024;1024;224;1024;1024;1024;1;4;0;0;0;0;0; 
753;759;2019/11/01 19:59:21;0;-1;-1;-1;-1;-1;100;0;0;0;0;0;0;0;0;0;0;0;0;0;0;368;139;7.08371;367.672;139.45;2;0;1;0.395503;-1.34191;-2.77105;0.374905;-1.32434;-2.75216;0.492757;-0.0997155;-0.0122516;1.76677;-0.865709;-2.14505;0;0;0;0;0;0;0;0;0;0;675;304;1024;1024;1024;224;1024;1024;1024;1;4;0;0;0;0;0; 
754;760;2019/11/01 19:59:21;0;-1;-1;-1;-1;-1;100;0;0;0;0;0;0;0;0;0;0;0;0;0;0;364;141;6.97457;365.488;140.433;0;1;1;0.430343;-1.37386;-2.80518;0.391537;-1.3392;-2.76807;0.468117;-0.142999;-0.0722366;1.31495;-1.02359;-2.10763;0;0;0;0;0;0;0;0;0;0;675;304;1024;1024;1024;224;1024;1024;1024;1;4;0;0;0;0;0; 
755;761;2019/11/01 19:59:21;0;-1;-1;-1;-1;-1;100;0;0;0;0;0;0;0;0;0;0;0;0;0;0;362;142;7.01001;363.547;141.349;0;2;1;0.44242;-1.37236;-2.7864;0.406802;-1.34915;-2.77357;0.47257;-0.19369;-0.120756;0.937964;-1.15177;-1.96457;0;0;0;0;0;0;0;0;0;0;675;304;1024;1024;1024;224;1024;1024;1024;1;4;0;0;0;0;0; 
756;762;2019/11/01 19:59:21;0;-1;-1;-1;-1;-1;100;0;0;0;0;0;0;0;0;0;0;0;0;0;0;360;142;7.22207;361.637;141.922;0;3;1;0.443265;-1.33207;-2.70459;0.417741;-1.34402;-2.75287;0.483102;-0.204877;-0.0844451;0.678204;-1.23725;-1.65884;0;0;0;0;0;0;0;0;0;0;675;304;1024;1024;1024;224;1024;1024;1024;1;4;0;0;0;0;0; 
757;763;2019/11/01 19:59:21;0;-1;-1;-1;-1;-1;100;0;0;0;0;0;0;0;0;0;0;0;0;0;0;360;144;7.08229;360.366;142.972;0;4;1;0.452013;-1.36914;-2.74887;0.428022;-1.35156;-2.75167;0.490636;-0.206054;-0.017929;0.487097;-1.19277;-1.09697;0;0;0;0;0;0;0;0;0;0;675;304;1024;1024;1024;224;1024;1024;1024;1;4;0;0;0;0;0; 
758;764;2019/11/01 19:59:21;0;-1;-1;-1;-1;-1;100;0;0;0;0;0;0;0;0;0;0;0;0;0;0;358;144;6.92469;358.845;143.693;0;5;1;0.476729;-1.40031;-2.81143;0.442634;-1.36618;-2.7696;0.523632;-0.271473;-0.0872163;0.422214;-1.38413;-1.10984;0;0;0;0;0;0;0;0;0;0;675;304;1024;1024;1024;224;1024;1024;1024;1;4;0;0;0;0;0; 
759;765;2019/11/01 19:59:21;0;-1;-1;-1;-1;-1;100;0;0;0;0;0;0;0;0;0;0;0;0;0;0;357;145;7.01989;357.469;144.515;0;6;1;0.477381;-1.38676;-2.76872;0.453058;-1.37236;-2.76934;0.54821;-0.30666;-0.103761;0.419383;-1.45018;-0.939931;0;0;0;0;0;0;0;0;0;0;675;304;1024;1024;1024;224;1024;1024;1024;1;4;0;0;0;0;0; 
760;766;2019/11/01 19:59:21;0;-1;-1;-1;-1;-1;100;0;0;0;0;0;0;0;0;0;0;0;0;0;0;355;146;7.01756;355.87;145.409;0;7;1;0.491777;-1.39266;-2.76505;0.464674;-1.37845;-2.76805;0.620939;-0.340701;-0.062192;0.861799;-1.65947;-0.523854;0;0;0;0;0;0;0;0;0;0;675;304;1024;1024;1024;224;1024;1024;1024;1;4;0;0;0;0;0; 
761;767;2019/11/01 19:59:21;0;-1;-1;-1;-1;-1;100;0;0;0;0;0;0;0;0;0;0;0;0;0;0;354;147;7.06731;354.431;146.357;0;8;1;0.495384;-1.38826;-2.74103;0.473887;-1.38139;-2.75994;0.640413;-0.333155;0.0170753;1.18723;-1.55252;0.236005;0;0;0;0;0;0;0;0;0;0;675;304;1024;1024;1024;224;1024;1024;1024;1;4;0;0;0;0;0; 
762;768;2019/11/01 19:59:21;0;-1;-1;-1;-1;-1;100;0;0;0;0;0;0;0;0;0;0;0;0;0;0;354;147;7.06731;353.563;146.817;1;0;1;0.495384;-1.38826;-2.74103;0.473887;-1.38139;-2.75994;0.640413;-0.333155;0.0170753;1.18723;-1.55252;0.236005;0;0;0;0;0;0;0;0;0;0;675;304;1024;1024;1024;224;1024;1024;1024;1;4;0;0;0;0;0; 
763;769;2019/11/01 19:59:21;0;-1;-1;-1;-1;-1;100;0;0;0;0;0;0;0;0;0;0;0;0;0;0;351.333;148.667;6.94444;351.835;147.992;0;1;1;0.523332;-1.42199;-2.7818;0.48872;-1.39357;-2.7665;0.627163;-0.369455;-0.0363933;1.20536;-1.49475;0.306051;0;0;0;0;0;0;0;0;0;0;675;304;1024;1024;1024;224;1024;1024;1024;1;4;0;0;0;0;0; 
764;770;2019/11/01 19:59:21;0;-1;-1;-1;-1;-1;100;0;0;0;0;0;0;0;0;0;0;0;0;0;0;351.333;148.667;6.94444;350.93;148.484;1;0;1;0.523332;-1.42199;-2.7818;0.48872;-1.39357;-2.7665;0.627163;-0.369455;-0.0363933;1.20536;-1.49475;0.306051;0;0;0;0;0;0;0;0;0;0;675;304;1024;1024;1024;224;1024;1024;1024;1;4;0;0;0;0;0; 
765;771;2019/11/01 19:59:21;0;-1;-1;-1;-1;-1;100;0;0;0;0;0;0;0;0;0;0;0;0;0;0;348;150;7.11136;348.808;149.606;0;1;1;0.534465;-1.39577;-2.71047;0.502444;-1.39423;-2.74969;0.599155;-0.349452;-0.0159024;1.04817;-1.32626;0.1897;0;0;0;0;0;0;0;0;0;0;675;304;1024;1024;1024;224;1024;1024;1024;1;4;0;0;0;0;0; 
766;772;2019/11/01 19:59:21;0;-1;-1;-1;-1;-1;100;0;0;0;0;0;0;0;0;0;0;0;0;0;0;347.333;151.333;6.98429;347.312;150.757;0;2;1;0.548957;-1.42846;-2.75363;0.516398;-1.4045;-2.75087;0.580378;-0.324407;0.0465413;0.798832;-0.95427;0.514358;0;0;0;0;0;0;0;0;0;0;675;304;1024;1024;1024;224;1024;1024;1024;1;4;0;0;0;0;0; 
767;773;2019/11/01 19:59:21;0;-1;-1;-1;-1;-1;100;0;0;0;0;0;0;0;0;0;0;0;0;0;0;346;152;6.97798;345.883;151.728;0;3;1;0.558999;-1.4334;-2.75304;0.529178;-1.41317;-2.75152;0.576169;-0.316861;0.081266;0.563025;-0.603109;0.862682;0;0;0;0;0;0;0;0;0;0;675;304;1024;1024;1024;224;1024;1024;1024;1;4;0;0;0;0;0; 
768;774;2019/11/01 19:59:21;0;-1;-1;-1;-1;-1;100;0;0;0;0;0;0;0;0;0;0;0;0;0;0;345.333;152.667;6.98507;344.703;152.602;0;4;1;0.5632;-1.43559;-2.74718;0.539385;-1.4199;-2.75022;0.569425;-0.314236;0.102153;0.183554;-0.282615;1.00974;0;0;0;0;0;0;0;0;0;0;675;304;1024;1024;1024;224;1024;1024;1024;1;4;0;0;0;0;0; 
769;775;2019/11/01 19:59:21;0;-1;-1;-1;-1;-1;100;0;0;0;0;0;0;0;0;0;0;0;0;0;0;344;153;7.09725;343.469;153.308;0;5;1;0.563683;-1.41469;-2.70224;0.546674;-1.41833;-2.73583;0.559618;-0.299171;0.133512;-0.13181;-0.0678023;0.954516;0;0;0;0;0;0;0;0;0;0;675;304;1024;1024;1024;224;1024;1024;1024;1;4;0;0;0;0;0; 
770;776;2019/11/01 19:59:21;0;-1;-1;-1;-1;-1;100;0;0;0;0;0;0;0;0;0;0;0;0;0;0;343;154;7.06008;342.302;154.113;0;6;1;0.573727;-1.42755;-2.71191;0.55479;-1.4211;-2.72865;0.56188;-0.273715;0.209638;-0.302501;0.28697;1.4147;0;0;0;0;0;0;0;0;0;0;675;304;1024;1024;1024;224;1024;1024;1024;1;4;0;0;0;0;0; 
771;777;2019/11/01 19:59:21;0;-1;-1;-1;-1;-1;100;0;0;0;0;0;0;0;0;0;0;0;0;0;0;343;154;7.06008;341.279;154.705;1;0;1;0.573727;-1.42755;-2.71191;0.55479;-1.4211;-2.72865;0.56188;-0.273715;0.209638;-0.302501;0.28697;1.4147;0;0;0;0;0;0;0;0;0;0;675;304;1024;1024;1024;224;1024;1024;1024;1;4;0;0;0;0;0; 
772;778;2019/11/01 19:59:21;0;-1;-1;-1;-1;-1;100;0;0;0;0;0;0;0;0;0;0;0;0;0;0;341;155;7.1348;340.149;155.411;0;1;1;0.581722;-1.41795;-2.67899;0.56287;-1.42016;-2.71375;0.543923;-0.252948;0.248768;-0.37052;0.502446;1.7546;0;0;0;0;0;0;0;0;0;0;675;304;1024;1024;1024;224;1024;1024;1024;1;4;0;0;0;0;0; 
773;779;2019/11/01 19:59:21;0;-1;-1;-1;-1;-1;100;0;0;0;0;0;0;0;0;0;0;0;0;0;0;340.667;154.667;7.07588;339.304;155.745;0;2;1;0.588919;-1.42796;-2.70282;0.570685;-1.4225;-2.71047;0.512141;-0.213364;0.28752;-0.455843;0.681495;1.87746;0;0;0;0;0;0;0;0;0;0;675;304;1024;1024;1024;224;1024;1024;1024;1;4;0;0;0;0;0; 
774;780;2019/11/01 19:59:21;0;-1;-1;-1;-1;-1;100;0;0;0;0;0;0;0;0;0;0;0;0;0;0;339.333;155.333;7.05009;338.295;156.192;0;3;1;0.600522;-1.4368;-2.70966;0.579636;-1.42679;-2.71023;0.479965;-0.174623;0.313831;-0.602744;0.895676;1.92238;0;0;0;0;0;0;0;0;0;0;675;304;1024;1024;1024;224;1024;1024;1024;1;4;0;0;0;0;0; 
775;781;2019/11/01 19:59:21;0;-1;-1;-1;-1;-1;100;0;0;0;0;0;0;0;0;0;0;0;0;0;0;353;131;11.6175;342.094;148.517;0;4;1;0.305657;-0.791919;-1.7118;0.305657;-0.791919;-1.7118;0;0;0;0;0;0;0;0;0;0;0;0;0;0;0;0;675;580;1009;1012;1024;224;1024;1024;1024;1;4;0;0;0;0;0; 
776;782;2019/11/01 19:59:21;0;-1;-1;-1;-1;-1;101;0;0;0;0;0;0;0;0;0;0;0;0;0;0;348.222;132.667;11.6803;343.265;143.615;0;5;1;0.324451;-0.793116;-1.69801;0.311295;-0.792278;-1.70766;0;0;0;0;0;0;0;0;0;0;0.324451;-0.893116;-1.69801;0;0;0;675;580;1006;1009;1024;224;1024;1024;1024;1;4;0;0;0;0;0; 
777;783;2019/11/01 19:59:21;0;-1;-1;-1;-1;-1;102;0;0;0;0;0;0;0;0;0;0;0;0;0;0;343.429;136;11.7468;342.592;141.171;0;6;1;0.343001;-0.799464;-1.67926;0.320807;-0.794434;-1.69914;0;0;0;0;0;0;0;0;0;0;0.343001;-0.899464;-1.67926;0;0;0;675;580;1003;1006;1024;224;1024;1024;1024;1;4;0;0;0;0;0; 
778;784;2019/11/01 19:59:21;0;-1;-1;-1;-1;-1;103;0;0;0;0;0;0;0;0;0;0;0;0;0;0;340.333;137.667;11.4947;341.146;139.945;0;7;1;0.363974;-0.822534;-1.71142;0.333757;-0.802864;-1.70283;0;0;0;0;0;0;0;0;0;0;0.363974;-0.922534;-1.71142;0;0;0;675;580;1000;1011;1024;224;1024;1024;1024;1;4;0;0;0;0;0; 
779;785;2019/11/01 19:59:21;0;-1;-1;-1;-1;-1;104;0;0;0;0;0;0;0;0;0;0;0;0;0;0;335.75;139.75;11.6065;338.668;139.729;0;8;1;0.380195;-0.821464;-1.68915;0.347689;-0.808444;-1.69872;0;0;0;0;0;0;0;0;0;0;0.380195;-0.921464;-1.68915;0;0;0;675;580;997;1008;1024;224;1024;1024;1024;1;4;0;0;0;0;0; 
780;786;2019/11/01 19:59:21;0;-1;-1;-1;-1;-1;105;0;0;0;0;0;0;0;0;0;0;0;0;0;0;330;142.571;11.646;335.071;140.48;0;9;1;0.403573;-0.827935;-1.67563;0.364454;-0.814291;-1.69179;0;0;0;0;0;0;0;0;0;0;0.403573;-0.927935;-1.67563;0;0;0;675;580;993;1005;1024;224;1024;1024;1024;1;4;0;0;0;0;0; 
781;787;2019/11/01 19:59:21;0;-1;-1;-1;-1;-1;106;0;0;0;0;0;0;0;0;0;0;0;0;0;0;326.4;145.2;11.4862;331.354;141.87;0;10;1;0.424845;-0.848193;-1.69157;0.382571;-0.824462;-1.69173;0;0;0;0;0;0;0;0;0;0;0.424845;-0.948193;-1.69157;0;0;0;675;1824;993;1005;1024;224;1024;1024;1024;1;4;0;0;0;0;0; 
782;788;2019/11/01 19:59:21;0;-1;-1;-1;-1;-1;107;0;0;0;0;0;0;0;0;0;0;0;0;0;0;322.25;146.25;11.5137;327.378;143.217;0;11;1;0.441838;-0.849653;-1.68459;0.400351;-0.832019;-1.68959;0.88893;-0.396685;0.180452;5.50265;-3.74492;-0.671393;0;0;0;0;0.441838;-0.949653;-1.68459;0;0;0;675;1824;993;1005;1024;224;1024;1024;1024;1;4;0;0;0;0;0; 
783;789;2019/11/01 19:59:21;0;-1;-1;-1;-1;-1;108;0;0;0;0;0;0;0;0;0;0;0;0;0;0;316.25;149.75;11.5352;322.63;145.311;0;12;1;0.466997;-0.859654;-1.67168;0.420345;-0.84031;-1.68421;0.930782;-0.421178;0.167884;4.74342;-3.41306;-1.77005;0;0;0;0;0.791228;-0.959654;-1.60586;0;0;0;675;1824;993;1005;1024;224;1024;1024;1024;1;4;0;0;0;0;0; 
784;790;2019/11/01 19:59:22;0;-1;-1;-1;-1;-1;109;0;0;0;0;0;0;0;0;0;0;0;0;0;0;312;151.429;11.5443;317.886;147.364;0;13;1;0.485022;-0.864534;-1.66568;0.439748;-0.847577;-1.67865;0.981658;-0.431231;0.197243;3.6689;-1.75385;0.606038;0;0;0;0;0.833922;-0.964534;-1.60275;0;0;0;675;1824;993;1005;1024;224;1024;1024;1024;1;4;0;0;0;0;0; 
785;791;2019/11/01 19:59:22;0;-1;-1;-1;-1;-1;110;0;0;0;0;0;0;0;0;0;0;0;0;0;0;308.333;153.667;11.4585;313.338;149.561;0;14;1;0.504639;-0.878465;-1.67186;0.459215;-0.856843;-1.67662;1.03429;-0.451982;0.20661;2.99947;-1.52255;0.207288;0;0;0;0;0.882189;-0.978465;-1.596;0;0;0;675;1824;993;1005;1024;224;1024;1024;1024;1;4;0;0;0;0;0; 
786;792;2019/11/01 19:59:22;0;-1;-1;-1;-1;-1;111;0;0;0;0;0;0;0;0;0;0;0;0;0;0;303.778;155.333;11.4487;308.654;151.677;0;15;1;0.52495;-0.884778;-1.66861;0.478936;-0.865224;-1.67421;1.07766;-0.474546;0.194157;2.09362;-1.41008;-0.757286;0;0;0;0;0.9339;-0.984778;-1.58692;0;0;0;675;1824;993;1005;1024;224;1024;1024;1024;1;4;0;0;0;0;0; 
787;793;2019/11/01 19:59:22;0;-1;-1;-1;-1;-1;112;0;0;0;0;0;0;0;0;0;0;0;0;0;0;298.333;157.667;11.4912;303.595;153.943;0;16;1;0.546676;-0.889258;-1.65589;0.499258;-0.872434;-1.66872;1.11249;-0.476265;0.208362;1.36564;-0.31554;0.361278;0;0;0;0;0.984232;-0.989258;-1.57706;0;0;0;675;1824;993;1005;1024;224;1024;1024;1024;1;4;0;0;0;0;0; 
788;794;2019/11/01 19:59:22;0;-1;-1;-1;-1;-1;113;0;0;0;0;0;0;0;0;0;0;0;0;0;0;294;159;11.4948;298.623;155.994;0;17;1;0.565338;-0.893411;-1.65164;0.519082;-0.878727;-1.66359;1.14155;-0.472249;0.228799;1.82802;-0.491028;0.409802;0;0;0;0;1.02857;-0.993411;-1.56488;0;0;0;675;1824;993;1005;1024;224;1024;1024;1024;1;4;0;0;0;0;0; 
789;795;2019/11/01 19:59:22;0;-1;-1;-1;-1;-1;114;0;0;0;0;0;0;0;0;0;0;0;0;0;0;290.571;160;11.446;294.01;157.781;0;18;1;0.582714;-0.900558;-1.65587;0.538171;-0.885276;-1.66128;1.15538;-0.462887;0.228859;1.99354;-0.461149;0.489335;0;0;0;0;1.06908;-1.00056;-1.55839;0;0;0;675;1824;489;953;1024;224;1024;1024;1024;1;4;0;0;0;0;0; 
790;796;2019/11/01 19:59:22;0;-1;-1;-1;-1;-1;115;0;0;0;0;0;0;0;0;0;0;0;0;0;0;287.429;161.143;11.3532;289.754;159.418;0;19;1;0.601307;-0.911766;-1.66617;0.557112;-0.893223;-1.66274;1.16182;-0.459984;0.200843;1.91547;-0.391493;0.307974;0;0;0;0;1.10309;-1.01177;-1.56677;0;0;0;675;1824;480;986;1024;224;1024;1024;1024;1;4;0;0;0;0;0; 
791;797;2019/11/01 19:59:22;0;-1;-1;-1;-1;-1;116;0;0;0;0;0;0;0;0;0;0;0;0;0;0;283.333;161.778;11.4062;285.457;160.782;0;20;1;0.616449;-0.909654;-1.65663;0.574913;-0.898152;-1.66091;1.15904;-0.440925;0.18322;1.64738;-0.19075;0.0913959;0;0;0;0;1.13198;-1.00965;-1.56751;0;0;0;675;1824;480;986;1024;224;1024;1024;1024;1;4;0;0;0;0;0; 
792;798;2019/11/01 19:59:22;0;-1;-1;-1;-1;-1;117;0;0;0;0;0;0;0;0;0;0;0;0;0;0;279.429;162;11.3854;281.196;161.814;0;21;1;0.634706;-0.912058;-1.65902;0.592851;-0.902324;-1.66034;1.15025;-0.412685;0.165313;1.27825;0.132545;-0.0603279;0;0;0;0;1.15889;-1.01206;-1.57616;0;0;0;675;1824;521;998;1024;224;1024;1024;1024;1;4;0;0;0;0;0; 
793;799;2019/11/01 19:59:22;0;-1;-1;-1;-1;-1;118;0;0;0;0;0;0;0;0;0;0;0;0;0;0;276;163;11.399;277.117;162.853;0;22;1;0.648975;-0.91432;-1.65422;0.609688;-0.905923;-1.65851;1.13107;-0.381322;0.139959;0.841112;0.458605;-0.30931;0;0;0;0;1.17862;-1.01432;-1.5781;0;0;0;675;1824;521;998;1024;224;1024;1024;1024;1;4;0;0;0;0;0; 
794;800;2019/11/01 19:59:22;0;-1;-1;-1;-1;-1;119;0;0;0;0;0;0;0;0;0;0;0;0;0;0;272;163;11.2055;272.991;163.578;0;23;1;0.678015;-0.93011;-1.68278;0.630186;-0.913179;-1.66579;1.12224;-0.366349;0.0752102;0.427581;0.697988;-0.798817;0;0;0;0;1.206;-1.03011;-1.61745;0;0;0;675;1824;565;1233;1024;224;1024;1024;1024;1;4;0;0;0;0;0; 
795;801;2019/11/01 19:59:22;0;-1;-1;-1;-1;-1;120;0;0;0;0;0;0;0;0;0;0;0;0;0;0;268.571;164;11.1788;269.016;164.392;0;24;1;0.694959;-0.935752;-1.68393;0.649618;-0.919951;-1.67123;1.11832;-0.358253;0.00538106;0.108591;0.836566;-1.37157;0;0;0;0;1.22753;-1.03575;-1.64824;0;0;0;675;1824;623;1337;1024;224;1024;1024;1024;1;4;0;0;0;0;0; 
796;802;2019/11/01 19:59:22;0;-1;-1;-1;-1;-1;121;0;0;0;0;0;0;0;0;0;0;0;0;0;0;266;164.571;11.2104;265.427;165.135;0;25;1;0.70446;-0.935061;-1.67754;0.666071;-0.924484;-1.67312;1.10603;-0.339766;-0.0382189;-0.15762;0.981935;-1.77744;0;0;0;0;1.24485;-1.03506;-1.67494;0;0;0;675;1824;623;1337;1024;224;1024;1024;1024;1;4;0;0;0;0;0; 
797;803;2019/11/01 19:59:22;0;-1;-1;-1;-1;-1;122;0;0;0;0;0;0;0;0;0;0;0;0;0;0;263;165;11.0548;261.984;165.779;0;26;1;0.727931;-0.949701;-1.6999;0.684629;-0.932049;-1.68116;1.10168;-0.339198;-0.103776;-0.323604;0.995322;-2.21235;0;0;0;0;1.27018;-1.0497;-1.71864;0;0;0;675;1824;623;1337;1024;224;1024;1024;1024;1;4;0;0;0;0;0; 
798;804;2019/11/01 19:59:22;0;-1;-1;-1;-1;-1;123;0;0;0;0;0;0;0;0;0;0;0;0;0;0;260.4;165.2;10.9437;258.776;166.281;0;27;1;0.747187;-0.960037;-1.71657;0.703396;-0.940446;-1.69178;1.10238;-0.355726;-0.187784;-0.385308;0.824611;-2.73722;0;0;0;0;1.29618;-1.06004;-1.76828;0;0;0;675;1824;623;1337;1024;224;1024;1024;1024;1;4;0;0;0;0;0; 
799;805;2019/11/01 19:59:22;0;-1;-1;-1;-1;-1;124;0;0;0;0;0;0;0;0;0;0;0;0;0;0;256.571;166;10.9031;255.348;166.869;0;28;1;0.767511;-0.966415;-1.72059;0.722631;-0.948236;-1.70042;1.11237;-0.38238;-0.28004;-0.305827;0.490543;-3.31926;0;0;0;0;1.32711;-1.06641;-1.81592;0;0;0;675;1824;623;1337;1024;224;1024;1024;1024;1;4;0;0;0;0;0; 
800;806;2019/11/01 19:59:22;0;347.971;247;9.75679;347.971;247;0;1;1;0.389698;-1.39705;-1.65542;0.389698;-1.39705;-1.65542;0;0;0;0;0;0;253;168;10.9153;251.844;167.904;0;29;1;0.783;-0.972334;-1.71277;0.740741;-0.955466;-1.70413;1.10884;-0.398265;-0.321105;-0.23703;0.166893;-3.57392;1;0;0;0;1.35885;-1.07233;-1.85774;0;0;0;495.114;1824;623;1337;1024;224;1024;1024;1024;1;4;0;13.4582;0;0;0; 
801;807;2019/11/01 19:59:22;0;340.962;240.987;9.78392;347.334;246.453;0;2;1;0.424408;-1.3697;-1.67062;0.400111;-1.38884;-1.65998;0;0;0;0;0;0;250;168;10.7502;248.468;168.624;0;30;1;0.808972;-0.987274;-1.73909;0.761211;-0.965008;-1.71462;1.11086;-0.418859;-0.365891;-0.172012;-0.141845;-3.62672;1;0;0;0;1.35885;-1.07233;-1.85774;0;0;0;495.114;1824;623;1337;1024;224;1024;1024;1024;1;4;0;0.0166965;0;0;0; 
802;808;2019/11/01 19:59:22;0;332.371;235.2;9.57572;344.929;244.645;0;3;1;0.478453;-1.3764;-1.7264;0.423613;-1.38511;-1.67991;0;0;0;0;0;0;247.667;168.333;10.7942;245.404;169.221;0;31;1;0.816471;-0.984426;-1.731;0.777789;-0.970833;-1.71953;1.11271;-0.436432;-0.404885;-0.0765197;-0.471186;-3.64048;1;0;0;0;1.35885;-1.07233;-1.85774;0;0;0;495.114;1824;623;1337;1024;224;1024;1024;1024;1;4;0;0.0166663;0;0;0; 
803;809;2019/11/01 19:59:22;0;325.093;232;9.56244;340.801;242.013;0;4;1;0.517141;-1.36553;-1.73958;0.451671;-1.37923;-1.69781;0;0;0;0;0;0;244;169;10.7304;242.132;169.838;0;32;1;0.838398;-0.992654;-1.7393;0.795972;-0.977379;-1.72546;1.11232;-0.442906;-0.419877;-0.00338903;-0.696913;-3.44678;1;0;0;0;1.35885;-1.07233;-1.85774;0;0;0;495.114;1824;623;1337;1024;224;1024;1024;1024;1;4;0;0.0166965;0;0;0; 
804;810;2019/11/01 19:59:22;0;319.765;230.529;9.73523;335.791;239.276;0;5;1;0.535306;-1.33552;-1.71357;0.476762;-1.36612;-1.70254;0;0;0;0;0;0;241;170;10.8608;238.926;170.573;0;33;1;0.84213;-0.984251;-1.71545;0.809819;-0.979441;-1.72246;1.09244;-0.421489;-0.374448;-0.0417176;-0.6808;-2.81359;1;0;0;0;1.35885;-1.07233;-1.85774;0;0;0;495.114;1824;1327;927;1024;224;1024;1024;1024;1;4;0;0.0166978;0;0;0; 
805;811;2019/11/01 19:59:22;0;313.017;227.254;9.7691;329.94;236.185;0;6;1;0.567957;-1.31809;-1.71842;0.50412;-1.35171;-1.7073;0;0;0;0;0;0;238;171;10.7913;235.771;171.396;0;34;1;0.861443;-0.99413;-1.72351;0.825306;-0.983848;-1.72277;1.06555;-0.395124;-0.313929;-0.212045;-0.45938;-1.82351;1;0;0;0;1.35885;-1.07233;-1.85774;0;0;0;495.114;1824;1326;925;1024;224;1024;1024;1024;1;4;0;0.0166965;0;0;0; 
806;812;2019/11/01 19:59:22;0;303.323;223.077;10.0345;322.782;232.655;0;7;1;0.601195;-1.26732;-1.68637;0.533243;-1.32639;-1.70102;0;0;0;0;0;0;234;172;10.7042;232.333;172.281;0;35;1;0.887119;-1.00579;-1.73452;0.84385;-0.990429;-1.7263;1.05114;-0.376718;-0.276902;-0.357662;-0.189567;-0.917559;1;0;0;0;1.35885;-1.07233;-1.85774;0;0;0;495.114;1824;1326;924;1024;224;1024;1024;1024;1;4;0;0.0166975;0;0;0; 
807;813;2019/11/01 19:59:22;0;294.137;220.411;10.4092;314.828;229.241;0;8;1;0.623642;-1.21192;-1.63392;0.560363;-1.29205;-1.68089;1.6001;0.966435;-0.208803;9.74958;4.74395;0.642169;230.667;172.222;10.6198;228.904;172.963;0;36;1;0.909846;-1.01457;-1.74763;0.863649;-0.997673;-1.7327;1.03982;-0.356492;-0.238354;-0.498319;0.135348;-0.0411583;1;0;0;0;1.35885;-1.07233;-1.85774;0;0;0;495.114;1824;1325;924;1024;224;1024;1024;1024;1;4;0;0.0166968;0;0;0; 
808;814;2019/11/01 19:59:22;0;285.45;217.9;10.1562;306.454;225.985;0;9;1;0.68191;-1.23267;-1.68259;0.596827;-1.27424;-1.6814;1.65165;1.02253;-0.131245;6.81379;6.03467;4.63528;226.333;173.667;10.5776;225.163;173.887;0;37;1;0.933949;-1.02385;-1.75022;0.884739;-1.00552;-1.73795;1.05091;-0.352408;-0.216562;-0.54573;0.416694;0.727226;1;0;0;0;1.35885;-1.07233;-1.85774;0;0;0;495.114;1824;1324;923;1024;224;1024;1024;1024;1;4;0;0.0166975;0;0;0; 
809;815;2019/11/01 19:59:22;0;275.115;217.967;9.62094;297.322;223.583;0;10;1;0.773512;-1.30152;-1.77597;0.649832;-1.28242;-1.70977;1.78219;1.00006;-0.12651;4.49437;6.20903;6.55686;222.571;174;10.5404;221.38;174.633;0;38;1;0.95507;-1.02866;-1.75537;0.905838;-1.01247;-1.74318;1.06921;-0.351533;-0.200671;-0.499562;0.61484;1.31156;1;0;0;0;1.35885;-1.07233;-1.85774;0;0;0;495.114;1824;1323;922;1024;224;1024;1024;1024;1;4;0;0.0166965;0;0;0; 
810;816;2019/11/01 19:59:22;0;267.711;218.819;9.68753;288.461;222.05;0;11;1;0.806376;-1.29593;-1.76093;0.696795;-1.28647;-1.72512;1.94784;0.918045;-0.16607;4.47428;4.25511;4.40141;219;174;10.5804;217.628;175.142;0;39;1;0.968326;-1.02478;-1.74874;0.924585;-1.01616;-1.74484;1.09975;-0.357523;-0.20979;-0.270547;0.624302;1.44437;1;0;0;0;1.35885;-1.07233;-1.85774;0;0;0;495.114;1824;1323;922;1024;224;1024;1024;1024;1;4;0;0.0166978;0;0;0; 
811;817;2019/11/01 19:59:22;0;262.512;222.366;9.81898;280.433;221.938;0;12;1;0.82203;-1.29237;-1.72572;0.734366;-1.28824;-1.7253;2.08801;0.804228;-0.171503;4.47902;2.31813;3.09574;214.333;174.333;10.6692;213.551;175.586;0;40;1;0.982111;-1.01743;-1.73316;0.941843;-1.01654;-1.74134;1.12515;-0.345049;-0.200007;0.0756389;0.574515;1.32148;1;0;0;0;1.35885;-1.07233;-1.85774;0;0;0;495.114;1824;1321;919;1024;224;1024;1024;1024;1;4;0;0.0166965;0;0;0; 
812;818;2019/11/01 19:59:22;0;257.676;224.382;9.56245;273.129;222.444;0;13;1;0.869346;-1.3351;-1.76523;0.77486;-1.3023;-1.73728;2.21751;0.578733;-0.247656;4.5775;-2.35202;-0.632632;210;174.571;10.8533;209.347;175.954;0;41;1;0.985406;-1.00102;-1.70307;0.954911;-1.01189;-1.72986;1.11852;-0.292696;-0.134223;0.314425;0.68018;1.36256;1;0;0;0;1.35885;-1.07233;-1.85774;0;0;0;495.114;1824;1315;915;1024;224;1024;1024;1024;1;4;0;0.0166978;0;0;0; 
813;819;2019/11/01 19:59:22;0;250.635;225.079;9.76913;265.717;223.025;0;14;1;0.886963;-1.30958;-1.72558;0.808491;-1.30448;-1.73377;2.32121;0.297602;-0.359722;5.62569;-4.08167;-0.982152;205.75;174.25;10.8929;205.078;176.087;0;42;1;1.00131;-0.996251;-1.69782;0.968832;-1.00719;-1.72025;1.09108;-0.213637;-0.0308303;0.393317;0.978488;1.64612;1;0;0;0;1.35885;-1.07233;-1.85774;0;0;0;495.114;1824;1309;911;1024;224;1024;1024;1024;1;4;0;0.0166965;0;0;0; 
814;820;2019/11/01 19:59:22;0;240.772;228.632;10.027;257.392;224.501;0;15;1;0.913293;-1.28943;-1.6698;0.839931;-1.29997;-1.71458;2.36337;0.0758297;-0.348305;6.21711;-6.22891;-1.45595;201;174;11.1103;200.606;176.074;0;43;1;1.00308;-0.9759;-1.66533;0.979106;-0.997806;-1.70377;1.03142;-0.0973656;0.117971;0.158183;1.6054;2.32336;1;0;0;0;1.35885;-1.07233;-1.85774;0;0;0;495.114;1824;1301;904;1024;224;1024;1024;1024;1;4;0;0.0166975;0;0;0; 
815;821;2019/11/01 19:59:22;0;231.486;230.343;10.0478;248.558;226.096;0;16;1;0.957569;-1.29326;-1.66085;0.875223;-1.29796;-1.69846;2.31794;-0.0165278;-0.163826;5.86935;-7.7963;-1.02256;197.2;173.6;11.1654;196.292;175.909;0;44;1;1.01513;-0.969713;-1.65826;0.989912;-0.989378;-1.69012;0.954537;0.0337616;0.282625;-0.36296;2.50161;3.32367;1;0;0;0;1.35885;-1.07233;-1.85774;0;0;0;495.114;1824;1293;900;1024;224;1024;1024;1024;1;4;0;0.0166968;0;0;0; 
816;822;2019/11/01 19:59:22;0;220.26;232.779;9.93084;238.769;227.997;0;17;1;1.02532;-1.31787;-1.67252;0.920252;-1.30393;-1.69068;2.28296;-0.0796131;0.0392124;4.85964;-8.66113;0.206097;193.429;172;11.1516;192.103;175.252;0;45;1;1.03328;-0.965435;-1.66494;1.00292;-0.982195;-1.68256;0.885506;0.155863;0.41824;-1.0732;3.55076;4.50174;1;0;0;0;1.35885;-1.07233;-1.85774;0;0;0;495.114;1824;1285;899;1024;224;1024;1024;1024;1;4;0;0.0166975;0;0;0; 
817;823;2019/11/01 19:59:22;0;208.253;236.506;9.75135;228.038;230.51;0;18;1;1.10571;-1.35672;-1.691;0.975889;-1.31977;-1.69077;2.33411;-0.173631;0.161376;3.89839;-9.10099;1.45275;189.75;170.25;11.1401;188.037;174.191;0;46;1;1.05084;-0.96043;-1.67171;1.0173;-0.975666;-1.67931;0.832581;0.256721;0.498617;-1.81205;4.53315;5.49045;1;0;0;0;1.35885;-1.07233;-1.85774;0;0;0;495.114;1824;1281;899;1024;224;1024;1024;1024;1;4;0;0.0166965;0;0;0; 
818;824;2019/11/01 19:59:22;0;196.256;240.977;9.52136;216.614;233.698;0;19;1;1.19536;-1.40743;-1.71672;1.04173;-1.34607;-1.69856;2.466;-0.278919;0.25142;3.3312;-8.88494;2.86431;186.25;168.25;11.1951;184.119;172.762;0;47;1;1.0613;-0.948891;-1.66926;1.0305;-0.967633;-1.67629;0.801352;0.330717;0.513045;-2.3536;5.209;5.87862;1;0;0;0;1.35885;-1.07233;-1.85774;0;0;0;495.114;1824;1277;902;1024;224;1024;1024;1024;1;4;0;0.0166978;0;0;0; 
819;825;2019/11/01 19:59:22;0;184.674;246;9.44893;204.807;237.551;0;20;1;1.26576;-1.43852;-1.71276;1.10894;-1.3738;-1.70282;2.6792;-0.444118;0.274425;3.42809;-8.29244;4.25055;183.429;166;11.1276;180.526;170.988;0;48;1;1.0804;-0.946922;-1.68589;1.04547;-0.96142;-1.67917;0.786812;0.381197;0.471835;-2.627;5.5004;5.53417;1;0;0;0;1.35885;-1.07233;-1.85774;0;0;0;495.114;1824;1278;909;1024;224;1024;1024;1024;1;4;0;0.0166965;0;0;0; 
820;826;2019/11/01 19:59:22;0;174.897;251.747;9.40508;193.269;242.113;0;21;1;1.3236;-1.46857;-1.70107;1.17334;-1.40223;-1.7023;2.93871;-0.674778;0.213699;4.354;-7.97242;4.79425;180.25;163.75;11.1051;177.056;168.968;0;49;1;1.09689;-0.941102;-1.69583;1.0609;-0.955325;-1.68417;0.79866;0.398335;0.361374;-2.50557;5.27942;4.29234;1;0;0;0;1.35885;-1.07233;-1.85774;0;0;0;495.114;1824;1281;919;1024;224;1024;1024;1024;1;4;0;0.0166975;0;0;0; 
821;827;2019/11/01 19:59:22;0;166.932;257.479;9.2318;182.487;247.19;0;22;1;1.39154;-1.51985;-1.71301;1.2388;-1.43752;-1.70551;3.21487;-0.962092;0.100078;6.1936;-8.55882;3.93024;178;161.5;11.2688;173.971;166.773;0;50;1;1.09093;-0.919799;-1.67761;1.06991;-0.944667;-1.6822;0.798589;0.417519;0.248433;-2.12599;4.69989;2.43888;1;0;0;0;1.35885;-1.07233;-1.85774;0;0;0;495.114;1824;1281;927;1024;224;1024;1024;1024;1;4;0;0.0166968;0;0;0; 
822;828;2019/11/01 19:59:22;0;159.806;264.71;9.11893;172.524;253.102;0;23;1;1.4478;-1.56894;-1.70868;1.3015;-1.47695;-1.70646;3.45113;-1.26806;-0.00296488;8.38031;-9.88039;2.18974;176;159;11.1105;171.245;164.378;0;51;1;1.11547;-0.924316;-1.70877;1.08358;-0.938562;-1.69017;0.801174;0.424727;0.118679;-1.61231;3.89343;0.267272;1;0;0;0;1.35885;-1.07233;-1.85774;0;0;0;495.114;1824;1286;944;1024;224;1024;1024;1024;1;4;0;0.0166975;0;0;0; 
823;829;2019/11/01 19:59:22;0;153.581;273.163;9.01059;163.445;260;0;24;1;1.49972;-1.62364;-1.69901;1.36096;-1.52095;-1.70423;3.60817;-1.56411;-0.0554865;10.1151;-11.48;0.447977;172;157;11.1502;168.141;162;0;52;1;1.12942;-0.914171;-1.70846;1.09733;-0.931244;-1.69566;0.800232;0.432197;0.00592571;-1.09654;3.03668;-1.8068;1;0;0;0;1.35885;-1.07233;-1.85774;0;0;0;495.114;1824;1288;955;1024;224;1024;1024;1024;1;4;0;0.0166968;0;0;0; 
824;830;2019/11/01 19:59:22;0;150.069;280.966;8.8961;155.859;267.415;0;25;1;1.53875;-1.67804;-1.69263;1.4143;-1.56808;-1.70075;3.65246;-1.82489;-0.042035;10.8062;-13.0606;-0.902893;171;157;11.2383;165.719;160.278;0;53;1;1.12501;-0.907008;-1.69507;1.10563;-0.923974;-1.69548;0.780121;0.433639;-0.0730645;-0.742697;2.23295;-3.42424;1;0;0;0;1.35885;-1.07233;-1.85774;0;0;0;495.114;1824;1289;960;1024;224;1024;1024;1024;1;4;0;0.0166975;0;0;0; 
825;831;2019/11/01 19:59:22;0;149;287;8.58289;150.128;274.655;0;26;1;1.60112;-1.76612;-1.73176;1.47035;-1.62749;-1.71005;3.63447;-2.10784;-0.0540994;10.2978;-14.4791;-1.85344;168.4;154.8;11.1859;163.28;158.334;0;54;1;1.14189;-0.90374;-1.70934;1.11651;-0.917904;-1.69964;0.751705;0.433931;-0.125559;-0.58579;1.55032;-4.43976;1;0;0;0;1.35885;-1.07233;-1.85774;0;0;0;495.114;1824;1294;971;1024;224;1024;1024;1024;1;4;0;0.0166965;0;0;0; 
826;832;2019/11/01 19:59:22;0;150.444;293.278;8.49958;146.539;281.837;0;27;1;1.60832;-1.81165;-1.72495;1.51174;-1.68274;-1.71452;3.53182;-2.38468;-0.0812805;8.54681;-15.5146;-2.28983;166.8;153.6;11.1363;161.145;156.551;0;55;1;1.15415;-0.903648;-1.72042;1.1278;-0.913627;-1.70587;0.718147;0.426845;-0.161991;-0.672935;1.04402;-4.7535;1;0;0;0;1.35885;-1.07233;-1.85774;0;0;0;495.114;1824;1300;981;1024;224;1024;1024;1024;1;4;0;0.0166978;0;0;0; 
827;833;2019/11/01 19:59:22;0;154.895;299.474;8.25157;145.455;288.944;0;28;1;1.62972;-1.89478;-1.75262;1.54713;-1.74635;-1.72595;3.35019;-2.66389;-0.130392;5.66835;-16.1035;-2.29409;165;154;11.2185;159.167;155.399;0;56;1;1.15371;-0.898394;-1.70667;1.13557;-0.909057;-1.70611;0.693083;0.398288;-0.192659;-0.825016;0.549628;-4.61325;1;0;0;0;1.35885;-1.07233;-1.85774;0;0;0;495.114;1824;1306;976;1024;224;1024;1024;1024;1;4;0;0.0166965;0;0;0; 
828;834;2019/11/01 19:59:22;0;158.524;305.095;7.93653;145.946;295.808;0;29;1;1.67157;-1.99704;-1.79938;1.58446;-1.82156;-1.74798;3.13991;-2.97427;-0.244019;2.15842;-16.4745;-2.33891;163.333;153.333;10.8996;157.341;154.366;0;57;1;1.19511;-0.922346;-1.75858;1.15344;-0.913044;-1.72185;0.694783;0.340859;-0.242082;-0.919796;-0.00508323;-4.20836;1;0;0;0;1.35885;-1.07233;-1.85774;0;0;0;495.114;1824;1335;1017;1024;224;1024;1024;1024;1;4;0;0.0166975;0;0;0; 
829;835;2019/11/01 19:59:22;0;160.129;310.065;7.74026;142.519;297.83;1;0;1;1.67157;-1.99704;-1.79938;1.58446;-1.82156;-1.74798;3.13991;-2.97427;-0.244019;2.15842;-16.4745;-2.33891;163;153;10.7087;156.05;153.527;0;58;1;1.21797;-0.937597;-1.79093;1.1728;-0.92041;-1.74258;0.718193;0.247777;-0.332574;-0.879433;-0.739388;-3.87655;1;0;0;0;1.35885;-1.07233;-1.85774;0;0;0;495.114;1824;1366;1073;1024;224;1024;1024;1024;1;4;0;0.0166975;0;0;0; 
830;836;2019/11/01 19:59:22;0;164.455;309.909;7.51209;139.091;299.852;2;0;1;1.67157;-1.99704;-1.79938;1.58446;-1.82156;-1.74798;3.13991;-2.97427;-0.244019;2.15842;-16.4745;-2.33891;161.429;154;10.5318;154.748;153.256;0;59;1;1.24588;-0.956969;-1.81795;1.19472;-0.931377;-1.76519;0.786616;0.119105;-0.477853;-0.501724;-1.69947;-3.94213;1;0;0;0;1.35885;-1.07233;-1.85774;0;0;0;495.114;1824;1399;1180;1024;224;1024;1024;1024;1;4;0;0.0166975;0;0;0; 
831;837;2019/11/01 19:59:22;0;166.818;306.091;7.54821;135.663;301.873;3;0;1;1.67157;-1.99704;-1.79938;1.58446;-1.82156;-1.74798;3.13991;-2.97427;-0.244019;2.15842;-16.4745;-2.33891;160;154;10.4936;153.481;153.078;0;60;1;1.25722;-0.960457;-1.82457;1.21347;-0.940101;-1.783;0.859104;-0.0171645;-0.619558;0.12778;-2.82078;-4.33767;1;0;0;0;1.35885;-1.07233;-1.85774;0;0;0;495.114;1824;1395;1303;1024;224;1024;1024;1024;1;4;0;0.0166975;0;0;0; 
832;838;2019/11/01 19:59:22;0;166.846;299.538;7.71052;147.474;302.754;0;1;1;1.66664;-2.02805;-1.87533;1.60912;-1.88351;-1.78619;2.54448;-2.7496;-0.364574;-1.53627;-13.0403;-2.22608;158.333;153.667;10.4393;152.159;152.861;0;61;1;1.27173;-0.964226;-1.83508;1.23095;-0.947339;-1.79863;0.927292;-0.144899;-0.742071;0.911719;-3.97527;-4.91869;1;0;0;0;1.35885;-1.07233;-1.85774;0;0;0;495.114;1824;1164;1543;1024;224;1024;1024;1024;1;4;0;0.0667886;0;0;0; 
833;839;2019/11/01 19:59:22;0;166.769;292.154;8.07182;152.26;300.54;0;2;1;1.59252;-1.90234;-1.82085;1.60414;-1.88916;-1.79659;2.03201;-2.50441;-0.473845;-5.23509;-9.63291;-2.48504;157;153;10.4911;150.901;152.509;0;62;1;1.2718;-0.95704;-1.82807;1.2432;-0.950249;-1.80746;0.986098;-0.251408;-0.849887;1.71695;-4.97921;-5.57534;1;0;0;0;1.35885;-1.07233;-1.85774;0;0;0;495.114;1824;1239;1545;1024;224;1024;1024;1024;1;4;0;0.0166965;0;0;0; 
834;840;2019/11/01 19:59:22;0;168.829;283.268;7.73437;149.711;302.356;1;0;1;1.59252;-1.90234;-1.82085;1.60414;-1.88916;-1.79659;2.03201;-2.50441;-0.473845;-5.23509;-9.63291;-2.48504;156;152.5;10.4835;149.793;152.111;0;63;1;1.27749;-0.955915;-1.83094;1.25349;-0.951949;-1.8145;0.991135;-0.306182;-0.879849;2.21342;-5.57097;-5.89161;1;0;0;0;1.35885;-1.07233;-1.85774;0;0;0;495.114;1824;1504;1302;1024;224;1024;1024;1024;1;4;0;0.0166965;0;0;0; 
835;841;2019/11/01 19:59:22;0;171.356;274.814;7.57784;147.162;304.173;2;0;1;1.59252;-1.90234;-1.82085;1.60414;-1.88916;-1.79659;2.03201;-2.50441;-0.473845;-5.23509;-9.63291;-2.48504;154.333;150.333;10.5203;148.577;151.149;0;64;1;1.28093;-0.944701;-1.83115;1.26172;-0.949775;-1.8195;0.94973;-0.300956;-0.835034;2.25251;-5.53351;-5.54115;1;0;0;0;1.35885;-1.07233;-1.85774;0;0;0;495.114;1824;1384;948;1024;224;1024;1024;1024;1;4;0;0.0166965;0;0;0; 
836;842;2019/11/01 19:59:22;0;174.882;266.043;7.52717;157.652;288.054;0;1;1;1.65391;-1.90749;-2.06431;1.61907;-1.89466;-1.8769;1.5431;-2.08449;-0.647677;-7.69569;-5.72887;-2.78374;154.333;148.333;10.4766;147.813;149.831;0;65;1;1.28627;-0.94135;-1.84494;1.26909;-0.947247;-1.82713;0.866758;-0.243937;-0.748339;1.67149;-4.76963;-4.40466;1;0;0;0;1.35885;-1.07233;-1.85774;0;0;0;495.114;1824;1384;948;1024;224;1024;1024;1024;1;4;0;0.0500918;0;0;0; 
837;843;2019/11/01 19:59:22;0;177.787;258.766;7.61934;163.426;277.803;0;2;1;1.61485;-1.84794;-2.07009;1.61781;-1.88064;-1.93486;1.15686;-1.68169;-0.868461;-9.78972;-1.90632;-3.3846;154.571;146;10.4503;147.448;148.15;0;66;1;1.28837;-0.935192;-1.85677;1.27487;-0.943631;-1.83602;0.765213;-0.160455;-0.660695;0.628012;-3.43389;-2.80704;1;0;0;0;1.35885;-1.07233;-1.85774;0;0;0;495.114;1824;1384;948;1024;224;1024;1024;1024;1;4;0;0.0166968;0;0;0; 
838;844;2019/11/01 19:59:22;0;180.08;250.8;7.63641;167.545;268.985;0;3;1;1.59624;-1.80397;-2.09905;1.61134;-1.85764;-1.98412;0.833941;-1.25139;-1.08332;-11.3538;1.9324;-4.10607;156;143;10.2802;147.75;145.995;0;67;1;1.30276;-0.939526;-1.89691;1.28324;-0.942399;-1.85429;0.667907;-0.0765513;-0.618657;-0.658839;-1.78744;-1.19147;1;0;0;0;1.35885;-1.07233;-1.85774;0;0;0;495.114;1824;1384;948;1024;224;1024;1024;1024;1;4;0;0.0166975;0;0;0; 
839;845;2019/11/01 19:59:22;0;180.811;243.73;7.50666;170.473;260.846;0;4;1;1.61897;-1.79917;-2.16566;1.61363;-1.8401;-2.03858;0.563877;-0.791213;-1.28287;-12.4225;5.91379;-4.7261;156;139.429;10.2037;148.074;143.317;0;68;1;1.31252;-0.933198;-1.92239;1.29202;-0.939639;-1.87472;0.595665;-0.00356751;-0.639743;-1.95419;-0.0829107;0.124162;1;0;0;0;1.35885;-1.07233;-1.85774;0;0;0;495.114;1824;1384;948;1024;224;1024;1024;1024;1;4;0;0.0166965;0;0;0; 
840;846;2019/11/01 19:59:22;0;181.263;239.947;7.46568;172.661;254;0;5;1;1.62483;-1.7897;-2.19386;1.61699;-1.82498;-2.08516;0.361893;-0.299466;-1.66502;-13.9893;10.8853;-6.72989;157;136;10.0498;148.729;140.307;0;69;1;1.32765;-0.934463;-1.96283;1.30271;-0.938086;-1.90115;0.553931;0.0532091;-0.72981;-2.91814;1.3852;0.673558;1;0;0;0;1.35885;-1.07233;-1.85774;0;0;0;495.114;1824;1384;948;1024;224;1024;1024;1024;1;4;0;0.0166978;0;0;0; 
841;847;2019/11/01 19:59:22;0;184.357;236.429;7.45302;175.239;248.03;0;6;1;1.60685;-1.77471;-2.21279;1.61395;-1.8099;-2.12345;0.246507;0.0576609;-1.97783;-13.7403;14.2034;-8.54166;157.429;132;9.88803;149.436;136.88;0;70;1;1.3472;-0.934296;-2.00795;1.31606;-0.936949;-1.93319;0.549314;0.0831341;-0.891833;-3.34963;2.36468;0.177353;1;0;0;0;1.35885;-1.07233;-1.85774;0;0;0;495.114;1824;701;1060;1024;224;1024;1024;1024;1;4;0;0.0166965;0;0;0; 
842;848;2019/11/01 19:59:22;0;188.923;233.385;7.24549;178.585;242.794;0;7;1;1.62139;-1.80949;-2.2897;1.61618;-1.80978;-2.17333;0.136368;0.373501;-2.37024;-13.8609;18.336;-12.0027;158.25;128.25;9.93565;150.3;133.234;0;71;1;1.33661;-0.915402;-2.01048;1.32222;-0.930485;-1.95638;0.541757;0.116807;-1.05115;-3.30741;2.85915;-1.10263;1;0;0;0;1.35885;-1.07233;-1.85774;0;0;0;495.114;1824;702;1063;1024;224;1024;1024;1024;1;4;0;0.0166978;0;0;0; 
843;849;2019/11/01 19:59:22;0;193.31;230.069;7.13111;182.433;237.986;0;8;1;1.61667;-1.82076;-2.3414;1.61633;-1.81307;-2.22375;0.0759159;0.493895;-2.5756;-12.6324;19.6881;-14.0177;158.25;124.25;9.94116;151.012;129.355;0;72;1;1.33587;-0.899527;-2.02233;1.32632;-0.921198;-1.97616;0.530474;0.159652;-1.19023;-2.92169;2.99358;-2.77587;1;0;0;0;1.35885;-1.07233;-1.85774;0;0;0;495.114;1824;704;1066;1024;224;1024;1024;1024;1;4;0;0.0166965;0;0;0; 
844;850;2019/11/01 19:59:23;0;198.08;227.84;7.10641;186.768;233.83;0;9;1;1.58875;-1.81511;-2.35964;1.60805;-1.81368;-2.26452;0.0324452;0.471851;-2.66492;-10.7796;18.6932;-14.7255;159.273;120.182;9.89894;151.933;125.291;0;73;1;1.33641;-0.887667;-2.04419;1.32935;-0.911138;-1.99657;0.50239;0.220607;-1.28223;-2.41388;2.98262;-4.31499;1;0;0;0;1.35885;-1.07233;-1.85774;0;0;0;495.114;1824;706;1069;1024;224;1024;1024;1024;1;4;0;0.0166975;0;0;0; 
845;851;2019/11/01 19:59:23;0;201.185;224.963;7.26558;190.923;229.945;0;10;1;1.5326;-1.76022;-2.3207;1.58542;-1.79764;-2.28137;-0.0931618;0.452629;-2.56834;-9.09111;16.1822;-13.9678;160;116;9.98332;152.908;121.062;0;74;1;1.32148;-0.864165;-2.0404;1.32699;-0.897046;-2.00972;0.441036;0.302424;-1.30835;-2.06571;3.0113;-5.25855;1;0;0;0;1.35885;-1.07233;-1.85774;0;0;0;495.114;1824;708;1068;1024;224;1024;1024;1024;1;4;0;0.0166968;0;0;0; 
846;852;2019/11/01 19:59:23;0;203.226;224.323;7.04905;194.602;226.97;0;11;1;1.56522;-1.81082;-2.39491;1.57936;-1.80159;-2.31543;-0.206145;0.364943;-2.46039;-7.72268;12.3621;-11.5564;160;113;9.9757;153.683;117.095;0;75;1;1.32248;-0.853339;-2.05164;1.32564;-0.883934;-2.02229;0.356153;0.397668;-1.2687;-2.0291;3.1821;-5.30676;1;0;0;0;1.35885;-1.07233;-1.85774;0;0;0;495.114;1824;710;1067;1024;224;1024;1024;1024;1;4;0;0.0166975;0;0;0; 
847;853;2019/11/01 19:59:23;0;204.741;223.481;6.8511;197.761;224.597;0;12;1;1.59939;-1.85845;-2.46806;1.58537;-1.81865;-2.36122;-0.237797;0.184016;-2.42557;-6.56729;7.92178;-8.72151;160;109;10.0531;154.31;113.006;0;76;1;1.31231;-0.831576;-2.04867;1.32164;-0.868227;-2.03021;0.235969;0.512989;-1.14857;-2.46855;3.62555;-4.20913;1;0;0;0;1.35885;-1.07233;-1.85774;0;0;0;495.114;1824;713;1063;1024;224;1024;1024;1024;1;4;0;0.0166965;0;0;0; 
848;854;2019/11/01 19:59:23;0;206.37;223.63;6.87507;200.573;222.978;0;13;1;1.58197;-1.85279;-2.45876;1.58435;-1.82889;-2.39048;-0.269772;0.0340785;-2.32237;-5.56197;3.39785;-5.04178;161.6;105.2;10.0851;155.336;108.896;0;77;1;1.30021;-0.814542;-2.05429;1.31521;-0.852121;-2.03743;0.113573;0.620677;-1.01275;-3.19075;4.18713;-2.37216;1;0;0;0;1.35885;-1.07233;-1.85774;0;0;0;495.114;1824;715;1059;1024;224;1024;1024;1024;1;4;0;0.0166978;0;0;0; 
849;855;2019/11/01 19:59:23;0;208.2;222.8;6.82416;203.192;221.597;0;14;1;1.58038;-1.86197;-2.48102;1.58316;-1.83882;-2.41764;-0.294288;-0.0823529;-2.16758;-4.8153;-0.262078;-1.39595;162;101;10.0679;156.263;104.649;0;78;1;1.30045;-0.8;-2.07123;1.31078;-0.836485;-2.04757;0.00610492;0.710639;-0.892758;-4.0081;4.71221;-0.235566;1;0;0;0;1.35885;-1.07233;-1.85774;0;0;0;495.114;1824;717;1056;1024;224;1024;1024;1024;1;4;0;0.0166965;0;0;0; 
850;856;2019/11/01 19:59:23;0;210.762;220.857;6.76009;205.898;220.035;0;15;1;1.57643;-1.86864;-2.51378;1.58114;-1.84776;-2.44648;-0.284037;-0.185497;-2.0271;-4.1528;-2.78184;1.70906;161.333;98.6667;10.3123;156.775;100.902;0;79;1;1.27285;-0.772395;-2.02942;1.2994;-0.817258;-2.04213;-0.115893;0.801221;-0.717544;-4.87348;5.14555;2.1133;1;0;0;0;1.35885;-1.07233;-1.85774;0;0;0;495.114;1824;720;1048;1024;224;1024;1024;1024;1;4;0;0.0166975;0;0;0; 
851;857;2019/11/01 19:59:23;0;213.455;217.909;6.68776;208.704;218.021;0;16;1;1.57336;-1.87201;-2.55517;1.57881;-1.85504;-2.47909;-0.19682;-0.340467;-2.00569;-2.90556;-4.83571;3.27193;161.333;98.6667;10.3123;155.739;98.9804;1;0;1;1.27285;-0.772395;-2.02942;1.2994;-0.817258;-2.04213;-0.115893;0.801221;-0.717544;-4.87348;5.14555;2.1133;1;0;0;0;1.35885;-1.07233;-1.85774;0;0;0;495.114;1824;720;1048;1024;224;1024;1024;1024;1;4;0;0.0166968;0;0;0; 
852;858;2019/11/01 19:59:23;0;217.217;213.913;6.60396;211.919;215.346;0;17;1;1.56486;-1.87266;-2.60708;1.57462;-1.86032;-2.51749;-0.136992;-0.43877;-2.01015;-1.46722;-6.11042;3.76083;161.333;98.6667;10.3123;154.704;97.0588;2;0;1;1.27285;-0.772395;-2.02942;1.2994;-0.817258;-2.04213;-0.115893;0.801221;-0.717544;-4.87348;5.14555;2.1133;1;0;0;0;1.35885;-1.07233;-1.85774;0;0;0;495.114;1824;719;1047;1024;224;1024;1024;1024;1;4;0;0.0166975;0;0;0; 
853;859;2019/11/01 19:59:23;0;221.7;209.7;6.50136;215.657;212.125;0;18;1;1.55512;-1.87746;-2.66909;1.56877;-1.86547;-2.56297;-0.148459;-0.450179;-2.0116;-0.523637;-6.1984;3.90932;161.333;98.6667;10.3123;153.669;95.1373;3;0;1;1.27285;-0.772395;-2.02942;1.2994;-0.817258;-2.04213;-0.115893;0.801221;-0.717544;-4.87348;5.14555;2.1133;1;0;0;0;1.35885;-1.07233;-1.85774;0;0;0;495.114;1824;718;1047;1024;224;1024;1024;1024;1;4;0;0.0166968;0;0;0; 
854;860;2019/11/01 19:59:23;0;224.231;203.923;6.50165;219.145;208.01;0;19;1;1.5356;-1.84344;-2.69758;1.55882;-1.85886;-2.60335;-0.191011;-0.389745;-2.05688;0.00028798;-5.41124;3.40561;161.333;98.6667;10.3123;152.634;93.2157;4;0;1;1.27285;-0.772395;-2.02942;1.2994;-0.817258;-2.04213;-0.115893;0.801221;-0.717544;-4.87348;5.14555;2.1133;1;0;0;0;1.35885;-1.07233;-1.85774;0;0;0;495.114;1824;718;1046;1024;224;1024;1024;1024;1;4;0;0.0166975;0;0;0; 
855;861;2019/11/01 19:59:23;0;226.2;198.533;6.52659;222.268;203.376;0;20;1;1.51466;-1.80485;-2.71386;1.54557;-1.84266;-2.6365;-0.264687;-0.249178;-2.10798;0.118363;-3.91283;2.28134;161.333;98.6667;10.3123;151.598;91.2942;5;0;1;1.27285;-0.772395;-2.02942;1.2994;-0.817258;-2.04213;-0.115893;0.801221;-0.717544;-4.87348;5.14555;2.1133;1;0;0;0;1.35885;-1.07233;-1.85774;0;0;0;495.114;1824;718;1045;1024;224;1024;1024;1024;1;4;0;0.0166965;0;0;0; 
856;862;2019/11/01 19:59:23;0;228.129;193.161;6.62588;225.108;198.375;0;21;1;1.47742;-1.74684;-2.6993;1.52512;-1.81391;-2.65534;-0.382464;-0.0143462;-2.09869;-0.321973;-1.66435;1.08293;161.333;98.6667;10.3123;150.563;89.3726;6;0;1;1.27285;-0.772395;-2.02942;1.2994;-0.817258;-2.04213;-0.115893;0.801221;-0.717544;-4.87348;5.14555;2.1133;1;0;0;0;1.35885;-1.07233;-1.85774;0;0;0;495.114;1824;716;1045;1024;224;1024;1024;1024;1;4;0;0.0166978;0;0;0; 
857;863;2019/11/01 19:59:23;0;229.478;189.913;6.62635;227.554;193.792;0;22;1;1.46714;-1.72799;-2.7149;1.50773;-1.78814;-2.67321;-0.513271;0.258513;-2.03428;-1.45668;1.39294;0.535616;144;81;11.3701;145.402;82.1873;0;1;1;1.23059;-0.641191;-1.89065;1.27876;-0.764438;-1.99668;-0.16581;0.745466;-0.404504;-4.13557;3.9718;3.07238;1;0;0;0;1.35885;-1.07233;-1.85774;0;0;0;495.114;1824;721;1022;1024;224;1024;1024;1024;1;4;0;0.0166965;0;0;0; 
858;864;2019/11/01 19:59:23;0;231.905;188.381;6.52585;228.668;191.788;1;0;1;1.46714;-1.72799;-2.7149;1.50773;-1.78814;-2.67321;-0.513271;0.258513;-2.03428;-1.45668;1.39294;0.535616;140.667;79.3333;11.362;142.075;78.7751;0;2;1;1.24613;-0.636049;-1.89673;1.26897;-0.725921;-1.9667;-0.212606;0.762729;-0.131711;-3.61678;3.11187;4.11326;1;0;0;0;1.35885;-1.07233;-1.85774;0;0;0;495.114;1824;721;1011;1024;224;1024;1024;1024;1;4;0;0.0166965;0;0;0; 
859;865;2019/11/01 19:59:23;0;235.905;187.524;6.63801;229.782;189.784;2;0;1;1.46714;-1.72799;-2.7149;1.50773;-1.78814;-2.67321;-0.513271;0.258513;-2.03428;-1.45668;1.39294;0.535616;140.667;79.3333;11.362;140.793;76.5955;1;0;1;1.24613;-0.636049;-1.89673;1.26897;-0.725921;-1.9667;-0.212606;0.762729;-0.131711;-3.61678;3.11187;4.11326;1;0;0;0;1.35885;-1.07233;-1.85774;0;0;0;495.114;1824;721;1011;1024;224;1024;1024;1024;1;4;0;0.0166965;0;0;0; 
860;866;2019/11/01 19:59:23;0;240;186;6.72653;235.449;186.094;0;1;1;1.36714;-1.68004;-2.69319;1.46555;-1.75571;-2.6792;-0.634576;0.468387;-1.70484;-2.36404;3.55228;1.23564;140.667;79.3333;11.362;139.511;74.4157;2;0;1;1.24613;-0.636049;-1.89673;1.26897;-0.725921;-1.9667;-0.212606;0.762729;-0.131711;-3.61678;3.11187;4.11326;1;0;0;0;1.35885;-1.07233;-1.85774;0;0;0;495.114;1824;720;1011;1024;224;1024;1024;1024;1;4;0;0.0500918;0;0;0; 
861;867;2019/11/01 19:59:23;0;244.522;183.913;6.49151;236.756;184.019;1;0;1;1.36714;-1.68004;-2.69319;1.46555;-1.75571;-2.6792;-0.634576;0.468387;-1.70484;-2.36404;3.55228;1.23564;130.4;84.8;1.51144;138.229;72.2361;3;0;1;1.24613;-0.636049;-1.89673;1.26897;-0.725921;-1.9667;-0.212606;0.762729;-0.131711;-3.61678;3.11187;4.11326;1;0;0;0;1.35885;-1.07233;-1.85774;0;0;0;495.114;1824;719;1010;1024;224;1024;1024;1024;1;4;0;0.0500918;0;0;0; 
862;868;2019/11/01 19:59:23;0;248.438;180.812;6.48547;238.062;181.945;2;0;1;1.36714;-1.68004;-2.69319;1.46555;-1.75571;-2.6792;-0.634576;0.468387;-1.70484;-2.36404;3.55228;1.23564;126;83;10.4948;130.343;75.8707;0;1;1;1.41892;-0.701952;-2.04221;1.31396;-0.71873;-1.98935;-0.139831;0.696404;-0.0137775;-2.77028;2.16006;4.28038;1;0;0;0;1.35885;-1.07233;-1.85774;0;0;0;495.114;1824;707;1020;1024;224;1024;1024;1024;1;4;0;0.0500918;0;0;0; 
863;869;2019/11/01 19:59:23;0;252.414;178.069;6.54733;246.451;177.957;0;1;1;1.30984;-1.67976;-2.80591;1.41884;-1.73292;-2.71722;-0.739944;0.598576;-1.39246;-2.83548;4.64394;2.22472;124.667;85.7778;11.1662;126.432;78.0528;0;2;1;1.33957;-0.669247;-1.91141;1.32164;-0.703885;-1.96597;-0.0736274;0.654597;0.105867;-1.96115;1.35021;4.35484;1;0;0;0;1.35885;-1.07233;-1.85774;0;0;0;495.114;1824;709;999;1024;224;1024;1024;1024;1;4;0;0.0500808;0;0;0; 
864;870;2019/11/01 19:59:23;0;256.476;177.143;6.47095;252.053;175.478;0;2;1;1.29394;-1.69412;-2.84364;1.38137;-1.72128;-2.75514;-0.869089;0.688748;-1.19914;-3.32581;5.37018;3.38978;120.25;87.75;10.9837;122.535;79.8119;0;3;1;1.38192;-0.687225;-1.93739;1.33972;-0.698887;-1.9574;0.00204786;0.612521;0.207543;-1.18317;0.65342;4.37024;1;0;0;0;1.35885;-1.07233;-1.85774;0;0;0;495.114;1824;703;997;1024;224;1024;1024;1024;1;4;0;0.0166978;0;0;0; 
865;871;2019/11/01 19:59:23;0;261.238;177.048;6.4786;257.103;173.872;0;3;1;1.2557;-1.69156;-2.84076;1.34367;-1.71236;-2.78083;-1.00516;0.725401;-1.06525;-3.7695;5.55697;4.53199;116;89.4286;10.8223;118.574;81.4543;0;4;1;1.42214;-0.703396;-1.96128;1.36445;-0.70024;-1.95856;0.105115;0.554408;0.257992;-0.35692;-0.0021444;4.18022;1;0;0;0;1.35885;-1.07233;-1.85774;0;0;0;495.114;1824;697;998;1024;224;1024;1024;1024;1;4;0;0.0166965;0;0;0; 
866;872;2019/11/01 19:59:23;0;264.667;177.75;6.50201;261.561;173.039;0;4;1;1.22483;-1.68959;-2.82705;1.30802;-1.70553;-2.7947;-1.12324;0.694895;-0.973009;-4.03642;5.03336;5.41608;112;91;10.829;114.585;83.0967;0;5;1;1.43971;-0.708502;-1.95539;1.38703;-0.702718;-1.95761;0.351272;0.496941;0.258808;1.16231;-0.662853;4.27385;1;0;0;0;1.35885;-1.07233;-1.85774;0;0;0;495.114;1824;691;998;1024;224;1024;1024;1024;1;4;0;0.0166975;0;0;0; 
867;873;2019/11/01 19:59:23;0;268.522;178.087;6.46449;265.854;172.607;0;5;1;1.20215;-1.70139;-2.84178;1.27626;-1.70429;-2.80882;-1.22849;0.617818;-0.908701;-4.13536;3.88083;5.94627;107.429;94;10.794;110.353;85.2571;0;6;1;1.46553;-0.721413;-1.95278;1.41058;-0.708327;-1.95616;0.587719;0.345;0.183336;2.82784;-1.5097;3.40296;1;0;0;0;1.35885;-1.07233;-1.85774;0;0;0;495.114;1824;680;1003;1024;224;1024;1024;1024;1;4;0;0.0166968;0;0;0; 
868;874;2019/11/01 19:59:23;0;271.647;178.235;6.2673;269.833;172.408;0;6;1;1.21506;-1.75582;-2.93043;1.2579;-1.71975;-2.8453;-1.35897;0.478377;-1.04265;-4.65061;2.35841;5.55086;102.571;96;10.6642;105.841;87.4863;0;7;1;1.50613;-0.73736;-1.97051;1.43924;-0.717037;-1.96047;0.852869;0.213763;0.225335;5.66026;-2.83287;2.99649;1;0;0;0;1.35885;-1.07233;-1.85774;0;0;0;495.114;1824;670;1004;1024;224;1024;1024;1024;1;4;0;0.0166975;0;0;0; 
869;875;2019/11/01 19:59:23;0;275.5;178.9;5.93316;273.837;172.551;0;7;1;1.25105;-1.85899;-3.09186;1.25584;-1.76152;-2.91927;-1.46619;0.172842;-1.43233;-5.69005;-0.284783;3.17132;98;98.5714;10.5924;101.213;89.9598;0;8;1;1.5379;-0.751631;-1.97606;1.46884;-0.727415;-1.96514;1.09945;0.0343107;0.1385;8.07992;-4.17634;1.92819;1;0;0;0;1.35885;-1.07233;-1.85774;0;0;0;495.114;1824;658;1012;1024;224;1024;1024;1024;1;4;0;0.0166965;0;0;0; 
870;876;2019/11/01 19:59:23;0;278.615;178.077;6.19762;277.629;172.467;0;8;1;1.17255;-1.77459;-2.9642;1.23086;-1.76544;-2.93275;-1.48068;-0.0726137;-1.56852;-5.85594;-3.21077;0.427949;94;101;10.6007;96.6807;92.5661;0;9;1;1.55554;-0.75979;-1.96712;1.49485;-0.737128;-1.96574;1.27906;-0.132096;0.0497903;9.94669;-5.47885;0.527051;1;0;0;0;1.35885;-1.07233;-1.85774;0;0;0;495.114;1824;647;1018;1024;224;1024;1024;1024;1;4;0;0.0166975;0;0;0; 
871;877;2019/11/01 19:59:23;0;281;178;6.32678;281.036;172.459;0;9;1;1.12978;-1.7379;-2.90408;1.20053;-1.75718;-2.92415;-1.4599;-0.222497;-1.51334;-5.32921;-5.71114;-1.53232;90;103.429;10.582;92.2201;95.2666;0;10;1;1.57717;-0.769897;-1.96321;1.51955;-0.746958;-1.96498;1.3867;-0.265791;0.00424856;11.085;-6.56213;-0.696891;1;0;0;0;1.35885;-1.07233;-1.85774;0;0;0;495.114;1824;639;1022;1024;224;1024;1024;1024;1;4;0;0.0166968;0;0;0; 
872;878;2019/11/01 19:59:23;0;283;179;6.07655;284.039;172.848;0;10;1;1.15987;-1.81575;-3.01837;1.18833;-1.77475;-2.95241;-1.35381;-0.409859;-1.53773;-4.11812;-7.83764;-3.17415;84.6667;104.222;10.5957;87.3884;97.5089;0;11;1;1.60029;-0.771766;-1.95827;1.54377;-0.754401;-1.96297;1.45785;-0.365826;-0.0188342;11.0693;-7.38205;-1.52668;1;0;0;0;1.35885;-1.07233;-1.85774;0;0;0;495.114;1824;634;1021;1024;224;1024;1024;1024;1;4;0;0.0166975;0;0;0; 
873;879;2019/11/01 19:59:23;0;286;181.333;5.95713;287.069;173.948;0;11;1;1.15796;-1.86711;-3.06626;1.17922;-1.80246;-2.98657;-1.19972;-0.63787;-1.63233;-2.35598;-9.71619;-4.79374;80.5714;106;10.6973;82.6866;99.7278;0;12;1;1.60421;-0.770782;-1.93431;1.5619;-0.759315;-1.95437;1.4789;-0.423077;-0.00415242;10.1998;-7.49595;-1.6646;1;0;0;0;1.35885;-1.07233;-1.85774;0;0;0;495.114;1824;632;1012;1024;224;1024;1024;1024;1;4;0;0.0166965;0;0;0; 
874;880;2019/11/01 19:59:23;0;289.5;184.5;5.8191;290.275;175.824;0;12;1;1.15538;-1.93218;-3.12147;1.17207;-1.84137;-3.02704;-1.06252;-0.868333;-1.70502;-0.229943;-11.2067;-5.5209;76.8889;107.333;10.635;78.2147;101.783;0;13;1;1.6309;-0.780085;-1.9416;1.5826;-0.765546;-1.95054;1.45973;-0.44753;0.0371401;8.54291;-7.13792;-1.75017;1;0;0;0;1.35885;-1.07233;-1.85774;0;0;0;495.114;1824;630;1010;1024;224;1024;1024;1024;1;4;0;0.0166975;0;0;0; 
875;881;2019/11/01 19:59:23;0;292.182;188.182;5.88674;293.348;178.424;0;13;1;1.11934;-1.93387;-3.06546;1.15625;-1.86912;-3.03857;-1.03516;-0.950618;-1.49933;1.58302;-11.2097;-3.58004;73.6;108.8;10.7053;74.0394;103.756;0;14;1;1.63554;-0.780196;-1.92444;1.59849;-0.769941;-1.94271;1.39347;-0.438311;0.111849;6.29965;-6.1698;-1.15651;1;0;0;0;1.35885;-1.07233;-1.85774;0;0;0;495.114;1824;633;994;1024;224;1024;1024;1024;1;4;0;0.0166968;0;0;0; 
876;882;2019/11/01 19:59:23;0;296;191;5.88108;296.686;181.265;0;14;1;1.08799;-1.95403;-3.05299;1.13577;-1.89459;-3.04289;-1.00073;-1.08604;-1.33937;2.86611;-10.7721;-1.23308;69.3333;109.333;10.8123;69.7703;105.368;0;15;1;1.63907;-0.774357;-1.90381;1.61066;-0.771266;-1.93104;1.29847;-0.399291;0.205647;3.85729;-4.76871;-0.0716168;1;0;0;0;1.35885;-1.07233;-1.85774;0;0;0;495.114;1824;642;970;1024;224;1024;1024;1024;1;4;0;0.0166975;0;0;0; 
877;883;2019/11/01 19:59:23;0;299.765;194.824;5.88357;300.197;184.595;0;15;1;1.05556;-1.97803;-3.03077;1.11171;-1.91962;-3.03926;-0.955093;-1.30023;-1.26321;3.73523;-10.7664;0.258859;65;111;11.0204;65.4151;107.076;0;16;1;1.62776;-0.765511;-1.86299;1.61579;-0.769539;-1.91062;1.16335;-0.329734;0.340411;1.42258;-3.11653;1.29923;1;0;0;0;1.35885;-1.07233;-1.85774;0;0;0;495.114;1824;666;922;1024;224;1024;1024;1024;1;4;0;0.0166965;0;0;0; 
878;884;2019/11/01 19:59:23;0;303.556;197;5.67206;303.84;187.746;0;16;1;1.06153;-2.06644;-3.13143;1.09666;-1.96367;-3.06691;-0.939095;-1.53444;-1.21506;3.89695;-10.95;1.44362;62.4;112.8;11.1022;61.5532;108.891;0;17;1;1.62747;-0.766063;-1.84404;1.61929;-0.768496;-1.89065;0.99955;-0.25412;0.492985;-0.976317;-1.42391;2.82308;1;0;0;0;1.35885;-1.07233;-1.85774;0;0;0;495.114;1824;693;882;1024;224;1024;1024;1024;1;4;0;0.0166978;0;0;0; 
879;885;2019/11/01 19:59:23;0;307.1;198.4;5.60469;307.498;190.511;0;17;1;1.0427;-2.10082;-3.16102;1.08047;-2.00481;-3.09514;-0.957742;-1.72862;-1.16254;3.30432;-10.925;2.74191;60;114;11.3482;58.1161;110.59;0;18;1;1.60276;-0.753498;-1.80067;1.61433;-0.763997;-1.86365;0.809068;-0.171165;0.657992;-3.26024;0.151464;4.3376;1;0;0;0;1.35885;-1.07233;-1.85774;0;0;0;495.114;1824;767;812;1024;224;1024;1024;1024;1;4;0;0.0166965;0;0;0; 
880;886;2019/11/01 19:59:23;0;309.867;197.733;5.68363;310.917;192.33;0;18;1;1.0039;-2.06716;-3.1209;1.0575;-2.02352;-3.10287;-1.03209;-1.76443;-1.00028;2.10411;-10.1329;4.45894;57.6667;114.333;11.2928;55.0094;111.925;0;19;1;1.62094;-0.758319;-1.80854;1.61631;-0.762294;-1.84712;0.620039;-0.0897126;0.807718;-5.30879;1.51954;5.67925;1;0;0;0;1.35885;-1.07233;-1.85774;0;0;0;495.114;1824;799;800;1024;224;1024;1024;1024;1;4;0;0.0166975;0;0;0; 
881;887;2019/11/01 19:59:23;0;311.647;194.235;5.51276;313.847;192.553;0;19;1;1.01888;-2.107;-3.23807;1.04591;-2.04856;-3.14343;-1.0598;-1.77512;-1.01885;1.16409;-9.3717;4.59379;54.6667;114.222;11.2782;51.9306;112.85;0;20;1;1.63633;-0.758927;-1.81121;1.62232;-0.761284;-1.83635;0.467184;-0.0192612;0.909314;-6.88366;2.58487;6.5916;1;0;0;0;1.35885;-1.07233;-1.85774;0;0;0;495.114;1824;829;800;1024;224;1024;1024;1024;1;4;0;0.0166965;0;0;0; 
882;888;2019/11/01 19:59:23;0;312.444;190.111;5.50173;316.106;191.416;0;20;1;1.01369;-2.08259;-3.26869;1.03625;-2.05877;-3.18101;-1.03326;-1.72058;-1.16276;0.568592;-8.15656;3.46142;54.6667;114.222;11.2782;48.9563;113.074;1;0;1;1.63633;-0.758927;-1.81121;1.62232;-0.761284;-1.83635;0.467184;-0.0192612;0.909314;-6.88366;2.58487;6.5916;1;0;0;0;1.35885;-1.07233;-1.85774;0;0;0;495.114;1824;799;834;1024;224;1024;1024;1024;1;4;0;0.0166978;0;0;0; 
883;889;2019/11/01 19:59:23;0;312.5;186.25;5.50243;317.643;189.375;0;21;1;1.01305;-2.05553;-3.29088;1.02929;-2.0578;-3.21397;-0.949037;-1.58404;-1.39523;0.365336;-6.02711;1.54973;54.6667;114.222;11.2782;45.9821;113.298;2;0;1;1.63633;-0.758927;-1.81121;1.62232;-0.761284;-1.83635;0.467184;-0.0192612;0.909314;-6.88366;2.58487;6.5916;1;0;0;0;1.35885;-1.07233;-1.85774;0;0;0;495.114;1824;761;891;1024;224;1024;1024;1024;1;4;0;0.0166965;0;0;0; 
884;890;2019/11/01 19:59:23;0;313.043;181.913;5.53811;318.812;186.53;0;22;1;1.00162;-2.01237;-3.29489;1.02099;-2.04417;-3.23825;-0.871543;-1.27185;-1.52125;0.488919;-2.56781;-0.292657;54.6667;114.222;11.2782;43.0078;113.523;3;0;1;1.63633;-0.758927;-1.81121;1.62232;-0.761284;-1.83635;0.467184;-0.0192612;0.909314;-6.88366;2.58487;6.5916;1;0;0;0;1.35885;-1.07233;-1.85774;0;0;0;495.114;1824;719;979;1024;224;1024;1024;1024;1;4;0;0.0166975;0;0;0; 
885;891;2019/11/01 19:59:23;0;312.824;177.294;5.54466;319.474;183.015;0;23;1;1.00242;-1.97818;-3.31782;1.01542;-2.02437;-3.26212;-0.782658;-0.841201;-1.57944;0.992412;2.00254;-1.84014;54.6667;114.222;11.2782;40.0337;113.747;4;0;1;1.63633;-0.758927;-1.81121;1.62232;-0.761284;-1.83635;0.467184;-0.0192612;0.909314;-6.88366;2.58487;6.5916;1;0;0;0;1.35885;-1.07233;-1.85774;0;0;0;495.114;1824;799;1131;1024;224;1024;1024;1024;1;4;0;0.0166965;0;0;0; 
886;892;2019/11/01 19:59:23;0;311.625;174;5.55027;319.46;179.442;0;24;1;1.0122;-1.95351;-3.33358;1.01445;-2.00311;-3.28356;-0.64147;-0.423253;-1.6691;2.15507;6.55644;-3.77447;54.6667;114.222;11.2782;37.0593;113.971;5;0;1;1.63633;-0.758927;-1.81121;1.62232;-0.761284;-1.83635;0.467184;-0.0192612;0.909314;-6.88366;2.58487;6.5916;1;0;0;0;1.35885;-1.07233;-1.85774;0;0;0;495.114;1824;799;1131;1024;224;1024;1024;1024;1;4;0;0.0166978;0;0;0; 
887;893;2019/11/01 19:59:23;0;310;171;5.58618;318.822;175.926;0;25;1;1.02022;-1.92044;-3.32945;1.01618;-1.97831;-3.29732;-0.503591;0.0265373;-1.61592;3.5138;11.1273;-4.64863;54.6667;114.222;11.2782;34.0852;114.195;6;0;1;1.63633;-0.758927;-1.81121;1.62232;-0.761284;-1.83635;0.467184;-0.0192612;0.909314;-6.88366;2.58487;6.5916;1;0;0;0;1.35885;-1.07233;-1.85774;0;0;0;495.114;1824;799;1131;1024;224;1024;1024;1024;1;4;0;0.0166965;0;0;0; 
888;894;2019/11/01 19:59:23;0;309.5;171.167;5.48904;318.096;173.468;0;26;1;1.04283;-1.95558;-3.38738;1.02418;-1.97149;-3.32434;-0.350346;0.364398;-1.54185;4.83495;15.0011;-4.30277;54.6667;114.222;11.2782;31.1109;114.419;7;0;1;1.63633;-0.758927;-1.81121;1.62232;-0.761284;-1.83635;0.467184;-0.0192612;0.909314;-6.88366;2.58487;6.5916;1;0;0;0;1.35885;-1.07233;-1.85774;0;0;0;495.114;1824;799;1131;1024;224;1024;1024;1024;1;4;0;0.0166975;0;0;0; 
889;895;2019/11/01 19:59:23;0;307.429;168;5.48209;320.215;172.461;1;0;1;1.04283;-1.95558;-3.38738;1.02418;-1.97149;-3.32434;-0.350346;0.364398;-1.54185;4.83495;15.0011;-4.30277;54.6667;114.222;11.2782;28.1367;114.643;8;0;1;1.63633;-0.758927;-1.81121;1.62232;-0.761284;-1.83635;0.467184;-0.0192612;0.909314;-6.88366;2.58487;6.5916;1;0;0;0;1.35885;-1.07233;-1.85774;0;0;0;495.114;1824;799;1131;1024;224;1024;1024;1024;1;4;0;0.0166975;0;0;0; 
890;896;2019/11/01 19:59:23;0;306.769;167.231;5.40662;322.333;171.455;2;0;1;1.04283;-1.95558;-3.38738;1.02418;-1.97149;-3.32434;-0.350346;0.364398;-1.54185;4.83495;15.0011;-4.30277;54.6667;114.222;11.2782;25.1624;114.868;9;0;1;1.63633;-0.758927;-1.81121;1.62232;-0.761284;-1.83635;0.467184;-0.0192612;0.909314;-6.88366;2.58487;6.5916;1;0;0;0;1.35885;-1.07233;-1.85774;0;0;0;495.114;1824;799;1131;1024;224;1024;1024;1024;1;4;0;0.0166975;0;0;0; 
