ID;RS_ID;time;insect_log;imLx_drone; imLy_drone; disparity_drone; imLx_pred_drone; imLy_pred_drone; n_frames_lost_drone; n_frames_tracking_drone; foundL_drone; posX_drone; posY_drone; posZ_drone; sposX_drone; sposY_drone; sposZ_drone; svelX_drone; svelY_drone; svelZ_drone; saccX_drone; saccY_drone; saccZ_drone; imLx_insect; imLy_insect; disparity_insect; imLx_pred_insect; imLy_pred_insect; n_frames_lost_insect; n_frames_tracking_insect; foundL_insect; posX_insect; posY_insect; posZ_insect; sposX_insect; sposY_insect; sposZ_insect; svelX_insect; svelY_insect; svelZ_insect; saccX_insect; saccY_insect; saccZ_insect; valid; posErrX; posErrY; posErrZ; velX; velY; velZ; accX; accY; accZ; hoverthrottle; autoThrottle; autoRoll; autoPitch; autoYaw; joyThrottle; joyRoll; joyPitch; joyYaw; joyArmSwitch; joyModeSwitch; joyTakeoffSwitch; dt; velx_sp; vely_sp; velz_sp;
300;303;2019/10/22 18:37:16;0;-1;-1;-1;-1;-1;100;0;0;0;0;0;0;0;0;0;0;0;0;0;0;471;227;8.50511;471;227;0;1;1;-0.280939;-1.30978;-2.12048;-0.280939;-1.30978;-2.12048;0;0;0;0;0;0;0;0;0;0;0;0;0;0;0;0;675;224;1024;1024;1024;224;1024;1024;1024;1;4;0;0;0;0;0; 
301;304;2019/10/22 18:37:16;0;-1;-1;-1;-1;-1;101;0;0;0;0;0;0;0;0;0;0;0;0;0;0;469;229;8.68713;470.818;227.182;0;2;1;-0.263564;-1.29191;-2.0697;-0.275727;-1.30442;-2.10525;0;0;0;0;0;0;0;0;0;0;-0.263564;-1.39191;-2.0697;0;0;0;675;650;1024;1024;1024;224;1024;1024;1024;1;4;0;0;0;0;0; 
302;305;2019/10/22 18:37:16;0;-1;-1;-1;-1;-1;102;0;0;0;0;0;0;0;0;0;0;0;0;0;0;467;230;8.51714;470.204;227.635;0;3;1;-0.257107;-1.32257;-2.10777;-0.270141;-1.30986;-2.106;0;0;0;0;0;0;0;0;0;0;-0.257107;-1.42257;-2.10777;0;0;0;675;650;1024;1024;1024;224;1024;1024;1024;1;4;0;0;0;0;0; 
303;306;2019/10/22 18:37:16;0;-1;-1;-1;-1;-1;103;0;0;0;0;0;0;0;0;0;0;0;0;0;0;467;232;8.56991;469.537;228.543;0;4;1;-0.255524;-1.32413;-2.08835;-0.265756;-1.31414;-2.10071;0;0;0;0;0;0;0;0;0;0;-0.255524;-1.42413;-2.08835;0;0;0;675;650;1024;1024;1024;224;1024;1024;1024;1;4;0;0;0;0;0; 
304;307;2019/10/22 18:37:16;0;-1;-1;-1;-1;-1;104;0;0;0;0;0;0;0;0;0;0;0;0;0;0;464;234;8.62334;468.22;229.842;0;5;1;-0.236581;-1.32557;-2.06901;-0.257004;-1.31757;-2.0912;0;0;0;0;0;0;0;0;0;0;-0.236581;-1.42557;-2.06901;0;0;0;675;650;1024;1024;1024;224;1024;1024;1024;1;4;0;0;0;0;0; 
305;308;2019/10/22 18:37:16;0;-1;-1;-1;-1;-1;105;0;0;0;0;0;0;0;0;0;0;0;0;0;0;463;235;8.507;466.879;231.168;0;6;1;-0.233951;-1.34859;-2.09406;-0.250088;-1.32688;-2.09206;0;0;0;0;0;0;0;0;0;0;-0.233951;-1.44859;-2.09406;0;0;0;675;650;1024;1024;1024;224;1024;1024;1024;1;4;0;0;0;0;0; 
306;309;2019/10/22 18:37:16;0;-1;-1;-1;-1;-1;106;0;0;0;0;0;0;0;0;0;0;0;0;0;0;461;238;8.99441;465.297;233.003;0;7;1;-0.210177;-1.28937;-1.97138;-0.238115;-1.31563;-2.05585;0;0;0;0;0;0;0;0;0;0;-0.210177;-1.38937;-1.97138;0;0;0;675;650;1024;1024;1024;224;1024;1024;1024;1;4;0;0;0;0;0; 
307;310;2019/10/22 18:37:16;0;-1;-1;-1;-1;-1;107;0;0;0;0;0;0;0;0;0;0;0;0;0;0;459.6;238.8;8.52446;463.711;234.619;0;8;1;-0.213569;-1.36436;-2.07747;-0.230751;-1.33025;-2.06234;0.448923;-0.2578;0.428277;1.36519;-5.77797;-4.8318;0;0;0;0;-0.213569;-1.36436;-2.07747;0;0;0;675;650;1024;1024;1024;224;1024;1024;1024;1;4;0;0;0;0;0; 
308;311;2019/10/22 18:37:16;0;-1;-1;-1;-1;-1;108;0;0;0;0;0;0;0;0;0;0;0;0;0;0;458;241;8.59795;462.079;236.44;0;9;1;-0.202458;-1.36333;-2.05265;-0.222263;-1.34017;-2.05943;0.46051;-0.275685;0.442897;1.32207;-3.26499;-0.949884;0;0;0;0;-0.156987;-1.59089;-2.18445;0;0;0;675;650;1024;1024;1024;224;1024;1024;1024;1;4;0;0;0;0;0; 
309;312;2019/10/22 18:37:16;0;-1;-1;-1;-1;-1;109;0;0;0;0;0;0;0;0;0;0;0;0;0;0;456.4;243.2;8.52329;460.415;238.413;0;10;1;-0.194864;-1.38601;-2.06351;-0.214043;-1.35392;-2.06066;0.482773;-0.324226;0.425642;1.67229;-2.23;-0.136803;0;0;0;0;-0.057402;-1.48601;-1.93131;0;0;0;675;650;1024;1024;1024;224;1024;1024;1024;1;4;0;0;0;0;0; 
310;313;2019/10/22 18:37:16;0;-1;-1;-1;-1;-1;110;0;0;0;0;0;0;0;0;0;0;0;0;0;0;455;245;8.53539;458.786;240.384;0;11;1;-0.186403;-1.39281;-2.05477;-0.205751;-1.36559;-2.05889;0.494293;-0.386244;0.384378;0.884019;-2.06041;-0.821112;0;0;0;0;-0.0387613;-1.49281;-1.9246;0;0;0;675;650;1024;1024;1024;224;1024;1024;1024;1;4;0;0;0;0;0; 
311;314;2019/10/22 18:37:16;0;-1;-1;-1;-1;-1;111;0;0;0;0;0;0;0;0;0;0;0;0;0;0;451.333;247.333;8.73495;456.534;242.507;0;12;1;-0.161198;-1.3721;-2.00045;-0.192385;-1.36754;-2.04136;0.526957;-0.394104;0.433041;0.980742;-0.58518;1.44157;0;0;0;0;-0.00699456;-1.4721;-1.88054;0;0;0;675;650;1024;1024;1024;224;1024;1024;1024;1;4;0;0;0;0;0; 
312;315;2019/10/22 18:37:16;0;-1;-1;-1;-1;-1;112;0;0;0;0;0;0;0;0;0;0;0;0;0;0;449;249;8.49278;454.201;244.551;0;13;1;-0.152085;-1.41938;-2.05208;-0.180295;-1.38309;-2.04457;0.547023;-0.505832;0.304853;-0.0905239;-5.061;-6.57477;0;0;0;0;0.0173826;-1.51938;-1.91282;0;0;0;675;650;1024;1024;1024;224;1024;1024;1024;1;4;0;0;0;0;0; 
313;316;2019/10/22 18:37:16;0;-1;-1;-1;-1;-1;113;0;0;0;0;0;0;0;0;0;0;0;0;0;0;447;249;8.55393;451.904;246.053;0;14;1;-0.139331;-1.40923;-2.03741;-0.168006;-1.39094;-2.04243;0.578729;-0.545811;0.262415;0.463945;-4.18651;-4.60708;0;0;0;0;0.0402895;-1.50923;-1.93731;0;0;0;675;650;1024;1024;1024;224;1024;1024;1024;1;4;0;0;0;0;0; 
314;317;2019/10/22 18:37:16;0;-1;-1;-1;-1;-1;114;0;0;0;0;0;0;0;0;0;0;0;0;0;0;443;251;8.67572;449.045;247.739;0;15;1;-0.114368;-1.39904;-2.00245;-0.151914;-1.39337;-2.03043;0.628109;-0.539869;0.273235;0.94752;-3.56668;-3.44164;0;0;0;0;0.0800163;-1.49904;-1.91431;0;0;0;675;650;1024;1024;1024;224;1024;1024;1024;1;4;0;0;0;0;0; 
315;318;2019/10/22 18:37:16;0;-1;-1;-1;-1;-1;115;0;0;0;0;0;0;0;0;0;0;0;0;0;0;440;253;8.63673;446.064;249.563;0;16;1;-0.0975514;-1.41498;-2.0051;-0.135606;-1.39985;-2.02283;0.690033;-0.507289;0.314958;1.39601;-2.8709;-2.5069;0;0;0;0;0.119026;-1.51498;-1.91088;0;0;0;675;650;1024;1024;1024;224;1024;1024;1024;1;4;0;0;0;0;0; 
316;319;2019/10/22 18:37:16;0;-1;-1;-1;-1;-1;116;0;0;0;0;0;0;0;0;0;0;0;0;0;0;437;253;8.6006;442.992;250.894;0;17;1;-0.0805556;-1.42092;-2.01352;-0.119091;-1.40617;-2.02004;0.76002;-0.466404;0.34409;1.89854;-2.04259;-1.66499;0;0;0;0;0.164949;-1.52092;-1.90146;0;0;0;675;650;1024;1024;1024;224;1024;1024;1024;1;4;0;0;0;0;0; 
317;320;2019/10/22 18:37:16;0;-1;-1;-1;-1;-1;117;0;0;0;0;0;0;0;0;0;0;0;0;0;0;433.2;254.4;8.64885;439.613;252.28;0;18;1;-0.0581821;-1.41973;-1.99782;-0.100818;-1.41024;-2.01337;0.8216;-0.450313;0.318187;2.31551;-1.44997;-1.45756;0;0;0;0;0.219971;-1.51973;-1.87189;0;0;0;675;650;1024;1024;1024;224;1024;1024;1024;1;4;0;0;0;0;0; 
318;321;2019/10/22 18:37:16;0;-1;-1;-1;-1;-1;118;0;0;0;0;0;0;0;0;0;0;0;0;0;0;429;255;8.76837;435.887;253.465;0;19;1;-0.0334872;-1.40322;-1.9687;-0.0806188;-1.40813;-1.99997;0.890926;-0.370159;0.368995;2.76237;-0.328299;-0.618443;0;0;0;0;0.275503;-1.50322;-1.84904;0;0;0;675;650;1024;1024;1024;224;1024;1024;1024;1;4;0;0;0;0;0; 
319;322;2019/10/22 18:37:16;0;-1;-1;-1;-1;-1;119;0;0;0;0;0;0;0;0;0;0;0;0;0;0;427;255;8.58851;432.571;254.321;0;20;1;-0.0225684;-1.43261;-2.00993;-0.0632037;-1.41547;-2.00296;0.952986;-0.320067;0.378971;3.15167;0.704321;0.0942936;0;0;0;0;0.322721;-1.53261;-1.86692;0;0;0;675;650;855;1129;1024;224;1024;1024;1024;1;4;0;0;0;0;0; 
320;323;2019/10/22 18:37:16;0;-1;-1;-1;-1;-1;120;0;0;0;0;0;0;0;0;0;0;0;0;0;0;423;255;8.70907;428.951;254.934;0;21;1;0.000662523;-1.41277;-1.98211;-0.0440438;-1.41466;-1.9967;1.00247;-0.277075;0.362051;3.38568;1.47182;0.411181;0;0;0;0;0.380463;-1.51277;-1.83107;0;0;0;675;650;852;1117;1024;224;1024;1024;1024;1;4;0;0;0;0;0; 
321;324;2019/10/22 18:37:16;0;-1;-1;-1;-1;-1;121;0;0;0;0;0;0;0;0;0;0;0;0;0;0;419;256;8.7923;425.107;255.672;0;22;1;0.0233578;-1.40413;-1.9602;-0.0238233;-1.4115;-1.98575;1.04778;-0.212773;0.36527;3.45976;2.05897;0.447585;0;0;0;0;0.432895;-1.50413;-1.8123;0;0;0;675;650;847;1104;1024;224;1024;1024;1024;1;4;0;0;0;0;0; 
322;325;2019/10/22 18:37:16;0;-1;-1;-1;-1;-1;122;0;0;0;0;0;0;0;0;0;0;0;0;0;0;416.667;255.333;8.84633;421.613;255.993;0;23;1;0.0363769;-1.39242;-1.95031;-0.00576326;-1.40578;-1.97512;1.08114;-0.126092;0.398498;3.35795;2.5941;0.485778;0;0;0;0;0.475791;-1.49242;-1.79713;0;0;0;675;650;848;1094;1024;224;1024;1024;1024;1;4;0;0;0;0;0; 
323;326;2019/10/22 18:37:16;0;-1;-1;-1;-1;-1;123;0;0;0;0;0;0;0;0;0;0;0;0;0;0;413;255;8.76131;417.967;256.108;0;24;1;0.0576132;-1.40435;-1.97029;0.0132497;-1.40535;-1.97367;1.10411;-0.0561364;0.397615;3.1427;3.13025;0.60859;0;0;0;0;0.522958;-1.50435;-1.79877;0;0;0;675;650;845;1096;1024;224;1024;1024;1024;1;4;0;0;0;0;0; 
324;327;2019/10/22 18:37:16;0;-1;-1;-1;-1;-1;124;0;0;0;0;0;0;0;0;0;0;0;0;0;0;409;255;8.87446;414.11;256.176;0;25;1;0.0793701;-1.38644;-1.94517;0.0330858;-1.39968;-1.96512;1.11644;7.31237E-05;0.377719;2.78599;3.35633;0.399988;0;0;0;0;0.566066;-1.48644;-1.7699;0;0;0;675;650;845;1087;1024;224;1024;1024;1024;1;4;0;0;0;0;0; 
325;328;2019/10/22 18:37:16;0;-1;-1;-1;-1;-1;125;0;0;0;0;0;0;0;0;0;0;0;0;0;0;407.333;254.667;8.88569;410.82;256.107;0;26;1;0.0886293;-1.38313;-1.94374;0.0497489;-1.39471;-1.95871;1.12069;0.0829027;0.403256;2.34096;3.62217;0.336921;0;0;0;0;0.591179;-1.48313;-1.77372;0;0;0;675;1824;845;1087;1024;224;1024;1024;1024;1;4;0;0;0;0;0; 
326;329;2019/10/22 18:37:16;0;-1;-1;-1;-1;-1;126;0;0;0;0;0;0;0;0;0;0;0;0;0;0;405.6;252.8;8.82458;407.932;255.461;0;27;1;0.0990444;-1.38392;-1.96304;0.0645375;-1.39148;-1.96001;1.1058;0.142297;0.388419;1.81696;3.84714;0.307397;0;0;0;0;0.615339;-1.48392;-1.77726;0;0;0;675;1824;845;1087;1024;224;1024;1024;1024;1;4;0;0;0;0;0; 
327;330;2019/10/22 18:37:16;0;-1;-1;-1;-1;-1;127;0;0;0;0;0;0;0;0;0;0;0;0;0;0;404;251;8.87918;405.38;254.415;0;28;1;0.107427;-1.36698;-1.95656;0.0774044;-1.38413;-1.95897;1.06751;0.194651;0.339938;1.1689;3.93443;0.0833289;0;0;0;0;0.627322;-1.46698;-1.77394;0;0;0;675;1824;845;1087;1024;224;1024;1024;1024;1;4;0;0;0;0;0; 
328;331;2019/10/22 18:37:16;0;-1;-1;-1;-1;-1;128;0;0;0;0;0;0;0;0;0;0;0;0;0;0;402.667;249.333;8.80519;403.159;253.119;0;29;1;0.115886;-1.37059;-1.97823;0.0889489;-1.38007;-1.96475;1.01853;0.219415;0.245359;0.451448;3.73968;-0.561229;0;0;0;0;0.62653;-1.47059;-1.81562;0;0;0;675;1824;845;1087;1024;224;1024;1024;1024;1;4;0;0;0;0;0; 
329;332;2019/10/22 18:37:16;0;-1;-1;-1;-1;-1;129;0;0;0;0;0;0;0;0;0;0;0;0;0;0;401;248;8.8482;401.076;251.747;0;30;1;0.124722;-1.35767;-1.97277;0.0996808;-1.37335;-1.96715;0.956088;0.259382;0.173221;-0.319919;3.50313;-1.23236;0;0;0;0;0.619427;-1.45767;-1.8536;0;0;0;675;1824;845;1087;1024;224;1024;1024;1024;1;4;0;0;0;0;0; 
330;333;2019/10/22 18:37:16;0;-1;-1;-1;-1;-1;130;0;0;0;0;0;0;0;0;0;0;0;0;0;0;400.667;245.333;8.85419;399.514;249.904;0;31;1;0.126516;-1.34423;-1.97975;0.107731;-1.36461;-1.97093;0.871584;0.295592;0.0807324;-1.16923;3.28138;-1.92477;0;0;0;0;0.598164;-1.44423;-1.89429;0;0;0;675;1824;845;1087;1024;224;1024;1024;1024;1;4;0;0;0;0;0; 
331;334;2019/10/22 18:37:16;0;-1;-1;-1;-1;-1;131;0;0;0;0;0;0;0;0;0;0;0;0;0;0;401;244;8.56837;398.541;248.138;0;32;1;0.128795;-1.3826;-2.05008;0.114051;-1.37001;-1.99468;0.779678;0.276;-0.0951713;-2.06305;2.73978;-3.14485;0;0;0;0;0.564483;-1.4826;-2.00972;0;0;0;675;1824;845;1087;1024;224;1024;1024;1024;1;4;0;0;0;0;0; 
332;335;2019/10/22 18:37:16;0;-1;-1;-1;-1;-1;132;0;0;0;0;0;0;0;0;0;0;0;0;0;0;400;242;8.57027;397.58;246.222;0;33;1;0.134589;-1.37259;-2.05606;0.120212;-1.37078;-2.01309;0.69009;0.248219;-0.269049;-2.89755;2.06677;-4.51188;0;0;0;0;0.529778;-1.47259;-2.1043;0;0;0;675;1824;845;1087;1024;224;1024;1024;1024;1;4;0;0;0;0;0; 
333;336;2019/10/22 18:37:16;0;-1;-1;-1;-1;-1;133;0;0;0;0;0;0;0;0;0;0;0;0;0;0;400;239;8.48566;396.939;243.884;0;34;1;0.135931;-1.37158;-2.08632;0.124928;-1.37102;-2.03506;0.603793;0.201256;-0.465211;-3.58993;1.26643;-5.92172;0;0;0;0;0.491997;-1.47158;-2.22514;0;0;0;675;650;845;1087;1024;224;1024;1024;1024;1;4;0;0;0;0;0; 
334;337;2019/10/22 18:37:16;0;-1;-1;-1;-1;-1;134;0;0;0;0;0;0;0;0;0;0;0;0;0;0;399.333;236.667;8.48665;396.323;241.452;0;35;1;0.139835;-1.35999;-2.09366;0.1294;-1.36771;-2.05264;0.523778;0.170087;-0.63004;-4.12927;0.562918;-7.0481;0;0;0;0;0.457821;-1.45999;-2.33867;0;0;0;675;650;845;1087;1024;224;1024;1024;1024;1;4;0;0;0;0;0; 
335;338;2019/10/22 18:37:16;0;-1;-1;-1;-1;-1;135;0;0;0;0;0;0;0;0;0;0;0;0;0;0;400;234;8.43838;396.143;238.851;0;36;1;0.136693;-1.35463;-2.11436;0.131588;-1.36378;-2.07116;0.441657;0.14023;-0.793255;-4.53145;-0.13797;-8.08756;0;0;0;0;0.418806;-1.45463;-2.45371;0;0;0;675;650;845;1087;1024;224;1024;1024;1024;1;4;0;0;0;0;0; 
336;339;2019/10/22 18:37:16;0;448.444;357.778;9.42779;448.444;357.778;0;1;1;-0.134061;-1.75832;-1.53019;-0.134061;-1.75832;-1.53019;0;0;0;0;0;0;401;232;8.4622;396.385;236.34;0;37;1;0.130411;-1.34099;-2.11493;0.131235;-1.35694;-2.08429;0.358832;0.114745;-0.928532;-4.76606;-0.804822;-8.88206;1;0;0;0;0.373668;-1.44099;-2.55184;0;0;0;647.851;650;845;1087;1024;224;1024;1024;1024;1;4;0;5.6608;0;0;0; 
337;340;2019/10/22 18:37:16;0;438.182;351;9.43552;447.512;357.162;0;2;1;-0.0796776;-1.72701;-1.54875;-0.117746;-1.74893;-1.53576;0;0;0;0;0;0;401;229;8.36061;396.615;233.582;0;38;1;0.131996;-1.34236;-2.15053;0.131463;-1.35257;-2.10416;0.284819;0.138466;-0.994238;-4.83538;-1.032;-8.9188;1;0;0;0;0.16928;-1.44236;-2.24701;0;0;0;647.851;650;845;1087;1024;224;1024;1024;1024;1;4;0;0.0166982;0;0;0; 
338;341;2019/10/22 18:37:16;0;431.68;347.04;9.43231;444.967;355.535;0;3;1;-0.045308;-1.71014;-1.56087;-0.0960148;-1.73729;-1.54329;0;0;0;0;0;0;403;225;8.20747;397.467;230.333;0;39;1;0.122299;-1.34715;-2.2041;0.128714;-1.35094;-2.13414;0.204835;0.162288;-1.07984;-4.83863;-0.962287;-8.58841;1;0;0;0;0.152698;-1.44715;-2.31022;0;0;0;647.851;650;845;1087;1024;224;1024;1024;1024;1;4;0;0.0166973;0;0;0; 
339;342;2019/10/22 18:37:16;0;424.8;343.04;9.38963;440.77;352.934;0;4;1;-0.00895126;-1.70021;-1.57972;-0.0698957;-1.72617;-1.55422;0;0;0;0;0;0;403.333;221.333;8.07809;398.242;226.836;0;40;1;0.122199;-1.34985;-2.25193;0.126759;-1.35062;-2.16948;0.130213;0.178839;-1.18458;-4.79396;-0.666875;-8.02516;1;0;0;0;0.144814;-1.44985;-2.37115;0;0;0;647.851;650;1024;1024;1024;224;1024;1024;1024;1;4;0;0.0166982;0;0;0; 
340;343;2019/10/22 18:37:16;0;417.778;338.963;9.41954;435.295;349.607;0;5;1;0.0282772;-1.67681;-1.58664;-0.0404438;-1.71136;-1.56395;0;0;0;0;0;0;404.8;218.4;8.05704;399.315;223.396;0;41;1;0.113434;-1.33824;-2.26786;0.122762;-1.3469;-2.19899;0.0516248;0.190375;-1.29506;-4.76147;-0.319125;-7.47023;1;0;0;0;0.128157;-1.43824;-2.40179;0;0;0;647.851;650;1362;1288;1024;224;1024;1024;1024;1;4;0;0.0166973;0;0;0; 
341;344;2019/10/22 18:37:17;0;410.667;334.667;9.45054;428.968;345.769;0;6;1;0.0657318;-1.65241;-1.59398;-0.00859115;-1.69368;-1.57296;0;0;0;0;0;0;407;215;8.0137;400.834;219.854;0;42;1;0.100349;-1.32784;-2.29183;0.116038;-1.34118;-2.22684;-0.0311084;0.204459;-1.39863;-4.74442;0.064963;-6.89913;1;-0.114999;-0.265836;0.870873;0.106408;-1.42784;-2.44383;-2.19722;-4.83821;-2.19722;647.851;766;1063;1224;1024;224;1024;1024;1024;1;4;0;0.0166985;-0.344997;-0.37217;2.17718; 
342;345;2019/10/22 18:37:17;0;403.037;330.815;9.41513;421.987;341.74;0;7;1;0.106416;-1.64162;-1.61127;0.0259109;-1.67806;-1.58445;0;0;0;0;0;0;407.6;210.8;7.94905;402.166;215.989;0;43;1;0.0973986;-1.31667;-2.32505;0.110446;-1.33383;-2.25631;-0.101664;0.214961;-1.52597;-4.6852;0.439095;-6.52478;1;-0.0676616;-0.261386;0.912624;0.0935725;-1.41667;-2.49707;-0.709244;-4.75722;-0.709244;647.851;765;1086;1224;1024;224;1024;1024;1024;1;4;0;0.0166973;-0.202985;-0.36594;2.28156; 
343;346;2019/10/22 18:37:17;0;395.037;326.815;9.40576;414.492;337.583;0;8;1;0.148963;-1.62557;-1.62461;0.0628267;-1.66231;-1.5965;1.80236;0.864527;-0.606268;8.23767;3.01536;-2.72167;408;208;7.99819;403.295;212.338;0;44;1;0.0943046;-1.29403;-2.32042;0.105604;-1.32189;-2.27554;-0.164243;0.251471;-1.59983;-4.60402;0.714635;-6.33273;1;-0.0199603;-0.268286;0.896806;0.0827869;-1.39403;-2.4933;13.3471;6.35605;13.3471;647.851;581;1223;1224;1024;224;1024;1024;1024;1;4;0;0.0166982;-0.0598809;-0.3756;2.24201; 
344;347;2019/10/22 18:37:17;0;387.037;322.815;9.44139;406.652;333.356;0;9;1;0.190683;-1.60182;-1.63017;0.101184;-1.64416;-1.6066;1.86874;0.890528;-0.616521;7.20735;2.5827;-2.29331;409.333;204.667;7.94441;404.568;208.679;0;45;1;0.0865681;-1.28534;-2.34771;0.099893;-1.31092;-2.29719;-0.213614;0.310657;-1.61088;-4.43309;1.02115;-5.91984;1;0.0337966;-0.258823;0.92795;0.0673869;-1.38534;-2.53455;15.2862;6.86628;15.2862;647.851;580;1223;1224;1024;224;1024;1024;1024;1;4;0;0.0166973;0.10139;-0.362352;2.31988; 
345;348;2019/10/22 18:37:17;0;379.034;318.552;9.43562;398.573;329.016;0;10;1;0.233121;-1.58402;-1.64363;0.140765;-1.62612;-1.61771;1.96232;0.933754;-0.623398;5.91398;2.61761;-1.25207;410;201;7.96232;405.731;204.913;0;46;1;0.0821955;-1.26331;-2.35514;0.0945837;-1.29664;-2.31458;-0.256631;0.401898;-1.54584;-4.20434;1.50326;-4.99424;1;0.0833831;-0.262815;0.924555;0.0573816;-1.36331;-2.54226;17.2837;7.35557;17.2837;647.851;573;1223;1224;1024;224;1024;1024;1024;1;4;0;0.0166982;0.250149;-0.36794;2.31139; 
346;349;2019/10/22 18:37:17;0;370.5;313.938;9.28876;390.171;324.493;0;11;1;0.282654;-1.58841;-1.68332;0.183332;-1.61481;-1.63739;2.07082;0.945746;-0.667279;4.77389;1.80615;-1.08938;411;199;7.85533;406.917;201.603;0;47;1;0.0769626;-1.26993;-2.39424;0.0892974;-1.28863;-2.33848;-0.287586;0.473816;-1.48439;-3.87692;2.03361;-3.75245;1;0.135812;-0.244881;0.934199;0.0475199;-1.36993;-2.57159;19.3609;7.83787;19.3609;647.851;577;1224;1224;1024;224;1024;1024;1024;1;4;0;0.0166973;0.407435;-0.342833;2.3355; 
347;350;2019/10/22 18:37:17;0;362.895;308.526;9.36379;381.793;319.606;0;12;1;0.320918;-1.55165;-1.68578;0.224607;-1.59586;-1.65191;2.17355;0.957978;-0.71559;3.92648;0.680172;-1.35607;411;197;7.87198;407.798;198.628;0;48;1;0.0767999;-1.25668;-2.39619;0.0855481;-1.27904;-2.35579;-0.294284;0.532401;-1.40545;-3.3769;2.52949;-2.27871;1;0.180034;-0.239184;0.910614;0.0445739;-1.35668;-2.56252;21.0555;8.10058;21.0555;647.851;588;1224;1224;1024;224;1024;1024;1024;1;4;0;0.0166982;0.540101;-0.334857;2.27654; 
348;351;2019/10/22 18:37:17;0;354.889;303.667;9.30377;373.313;314.604;0;13;1;0.365927;-1.53995;-1.71107;0.267003;-1.57909;-1.66966;2.2667;0.969935;-0.769548;3.15589;0.546255;-1.13791;411.333;194.667;7.77443;408.561;195.794;0;49;1;0.075624;-1.25997;-2.43454;0.0825709;-1.27332;-2.37941;-0.287863;0.561036;-1.33478;-2.76955;2.89941;-0.603881;1;0.224343;-0.219119;0.922312;0.0426596;-1.35997;-2.59197;22.5932;8.62119;22.5932;647.851;583;1225;1224;1024;224;1024;1024;1024;1;4;0;0.0166975;0.67303;-0.306766;2.30578; 
349;352;2019/10/22 18:37:17;0;347.059;298.824;9.25645;364.803;309.519;0;14;1;0.410008;-1.52607;-1.73425;0.309904;-1.56318;-1.68904;2.34649;0.977747;-0.831196;4.06598;0.77979;-1.58078;412.667;192.667;7.94433;409.555;193.171;0;50;1;0.0656319;-1.22255;-2.38942;0.0774892;-1.25809;-2.38241;-0.284966;0.591346;-1.22756;-2.14372;3.09661;1.124;1;0.274632;-0.240627;0.841149;0.0352729;-1.32255;-2.53019;24.1875;8.33131;24.1875;647.851;584;1226;1224;1024;224;1024;1024;1024;1;4;0;0.0166982;0.823895;-0.336877;2.10287; 
350;353;2019/10/22 18:37:17;0;339.467;294.067;9.35223;356.338;304.395;0;15;1;0.446317;-1.48929;-1.73053;0.350828;-1.54101;-1.70148;2.40461;0.998484;-0.877555;4.57908;0.898896;-1.99066;413;192;7.98499;410.394;191.128;0;51;1;0.0632146;-1.21286;-2.37955;0.0732068;-1.24452;-2.38156;-0.277526;0.619933;-1.07336;-1.5414;3.09277;2.8205;1;0.316951;-0.228156;0.804447;0.033877;-1.31286;-2.50593;25.4309;8.82786;25.4309;647.851;551;1226;1176;1024;224;1024;1024;1024;1;4;0;0.0166973;0.950854;-0.319418;2.01112; 
351;354;2019/10/22 18:37:17;0;332.333;289.267;9.27103;348.036;299.227;0;16;1;0.48862;-1.48081;-1.75997;0.392166;-1.52295;-1.71903;2.4465;1.01099;-0.93107;4.68056;0.847721;-2.42279;413;191;7.70529;411.014;189.4;0;52;1;0.0655092;-1.25149;-2.46951;0.0708975;-1.24661;-2.40794;-0.261084;0.571703;-1.01678;-0.942621;2.53361;3.80459;1;0.356272;-0.171464;0.865018;0.0358943;-1.35149;-2.58405;26.4348;10.0223;26.4348;647.851;536;1226;1158;1024;224;1024;1024;1024;1;4;0;0.0166982;1.06881;-0.24005;2.16255; 
352;355;2019/10/22 18:37:17;0;325.407;284.593;9.2642;339.917;294.062;0;17;1;0.526286;-1.46092;-1.77519;0.432402;-1.50434;-1.73588;2.46232;1.04762;-0.951854;4.37142;0.915382;-2.58985;414;190;7.60498;411.791;187.902;0;53;1;0.0598118;-1.26253;-2.50571;0.0675718;-1.25139;-2.43727;-0.243391;0.491703;-1.00452;-0.389119;1.59158;4.19866;1;0.401132;-0.141816;0.880988;0.0312701;-1.36253;-2.61687;27.3638;11.0381;27.3638;647.851;522;1226;1149;1024;224;1024;1024;1024;1;4;0;0.0166973;1.2034;-0.198542;2.20247; 
353;356;2019/10/22 18:37:17;0;318.88;280.4;9.21263;332.051;289.044;0;18;1;0.564587;-1.45018;-1.79769;0.472058;-1.48809;-1.75442;2.46535;1.05883;-0.980397;3.78787;0.951896;-2.61116;414;190;7.69286;412.362;186.89;0;54;1;0.0591285;-1.24811;-2.47709;0.0650388;-1.2504;-2.44922;-0.227919;0.409365;-0.975728;0.0314944;0.463724;4.23489;1;0.438871;-0.139989;0.829735;0.0331863;-1.34811;-2.58416;28.0692;11.217;28.0692;647.851;519;1226;1129;1024;224;1024;1024;1024;1;4;0;0.0166982;1.31661;-0.195985;2.07434; 
354;357;2019/10/22 18:37:17;0;313.917;276.25;9.23301;324.842;284.148;0;19;1;0.590166;-1.42829;-1.80612;0.50749;-1.47015;-1.76993;2.43937;1.07022;-0.988588;2.96209;0.97152;-2.44123;415;190;7.50893;413.1;186.229;0;55;1;0.0539315;-1.27868;-2.53776;0.0617066;-1.25888;-2.47578;-0.220053;0.30325;-0.97019;0.289633;-0.750988;3.99657;1;0.47919;-0.0914773;0.877561;0.0283;-1.37868;-2.64749;28.6789;12.2479;28.6789;647.851;506;1226;1147;1024;224;1024;1024;1024;1;4;0;0.0166973;1.43757;-0.128068;2.1939; 
355;358;2019/10/22 18:37:17;0;308.609;272.609;9.24527;318.016;279.495;0;20;1;0.618032;-1.41002;-1.81459;0.540653;-1.45212;-1.78333;2.38489;1.08556;-0.969627;1.93057;1.01337;-2.01743;416;190;7.5953;413.958;185.822;0;56;1;0.0467484;-1.26414;-2.50891;0.0572192;-1.26046;-2.48572;-0.212961;0.172485;-0.994562;0.461266;-2.12291;3.32818;1;0.51854;-0.087978;0.834192;0.0221127;-1.36414;-2.61752;29.0743;12.5111;29.0743;647.851;501;1226;1157;1024;224;1024;1024;1024;1;4;0;0.0166985;1.55562;-0.123169;2.08548; 
356;359;2019/10/22 18:37:17;0;303.238;269.143;9.25706;311.456;275.078;0;21;1;0.646194;-1.39266;-1.82261;0.572315;-1.43428;-1.79512;2.31523;1.07748;-0.955603;0.801485;0.923407;-1.52207;416;190;7.48631;414.583;185.597;0;57;1;0.047429;-1.28254;-2.54543;0.0542821;-1.26708;-2.50363;-0.203334;0.0134;-1.08414;0.572972;-3.69536;1.95387;1;0.549935;-0.0517373;0.867299;0.0223804;-1.38254;-2.66241;29.1786;13.0656;29.1786;647.851;496;1226;1207;1024;224;1024;1024;1024;1;4;0;0.0166973;1.6498;-0.0724322;2.16825; 
357;360;2019/10/22 18:37:17;0;298.783;266.087;9.1562;305.372;270.96;0;22;1;0.677594;-1.39413;-1.8519;0.603899;-1.42223;-1.81215;2.23449;1.04861;-0.945149;-0.365553;0.70423;-0.969451;417;191;7.51632;415.355;185.82;0;58;1;0.0406008;-1.28295;-2.5316;0.0501777;-1.27184;-2.51202;-0.204725;-0.0927097;-1.06602;0.568797;-4.86991;0.975707;1;0.587643;-0.0392821;0.84925;0.0162555;-1.38295;-2.6614;29.415;12.917;29.415;647.851;526;1226;1224;1024;224;1024;1024;1024;1;4;0;0.0166982;1.76293;-0.0549949;2.12312; 
358;361;2019/10/22 18:37:17;0;294.235;263.176;8.9035;299.615;267.109;0;23;1;0.722311;-1.4201;-1.91348;0.639422;-1.42159;-1.84255;2.16723;0.959546;-0.992977;-1.39749;0.0708863;-0.745856;417;191;7.51632;415.391;184.396;1;0;1;0.0406008;-1.28295;-2.5316;0.0501777;-1.27184;-2.51202;-0.204725;-0.0927097;-1.06602;0.568797;-4.86991;0.975707;1;0.623259;-0.0386431;0.816296;0.0161631;-1.38295;-2.65885;29.6922;11.7708;29.6922;647.851;523;1226;1216;1024;224;1024;1024;1024;1;4;0;0.0166973;1.86978;-0.0541004;2.04074; 
359;362;2019/10/22 18:37:17;0;290.235;261.176;8.85948;294.267;263.737;0;24;1;0.74843;-1.41777;-1.92922;0.672125;-1.42045;-1.86855;2.09912;0.845809;-1.05145;-2.30069;-0.807977;-0.731202;419;193;7.49127;416.818;186.289;0;1;1;0.0274144;-1.29834;-2.5327;0.0433487;-1.27979;-2.51822;-0.20573;-0.152844;-0.916643;0.470158;-5.12769;0.886153;1;0.669803;-0.0221061;0.794805;0.00232204;-1.39834;-2.66336;30.1998;10.5932;30.1998;647.851;550;1226;1190;1024;224;1024;1024;1024;1;4;0;0.0166982;2.00941;-0.0309485;1.98701; 
360;363;2019/10/22 18:37:17;0;287.111;258.556;8.69833;289.494;260.525;0;25;1;0.780218;-1.43151;-1.97327;0.704553;-1.42377;-1.89997;2.04625;0.692685;-1.15005;-2.94994;-1.9921;-1.08335;419;193;7.49127;416.914;185.008;1;0;1;0.0274144;-1.29834;-2.5327;0.0433487;-1.27979;-2.51822;-0.20573;-0.152844;-0.916643;0.470158;-5.12769;0.886153;1;0.70178;-0.0254256;0.742523;0.00277252;-1.39834;-2.64249;30.5013;8.54216;30.5013;647.851;592;1226;1161;1024;224;1024;1024;1024;1;4;0;0.0166973;2.10534;-0.0355958;1.85631; 
361;364;2019/10/22 18:37:17;0;283.75;256.125;8.55775;285.072;257.493;0;26;1;0.812633;-1.44322;-2.01353;0.736977;-1.4296;-1.93403;2.01158;0.505491;-1.29172;-3.26041;-3.51122;-1.93599;421;195;7.45973;418.707;187.876;0;1;1;0.0141519;-1.31498;-2.53601;0.0345897;-1.29035;-2.52356;-0.214615;-0.211326;-0.772595;0.32193;-4.93522;1.13996;1;0.747894;-0.0146258;0.713667;-0.010917;-1.41498;-2.6477;31.2892;6.30519;31.2892;647.851;641;1226;1106;1024;224;1024;1024;1024;1;4;0;0.0166985;2.24368;-0.0204761;1.78417; 
362;365;2019/10/22 18:37:17;0;281.647;253.882;8.5138;281.299;254.652;0;27;1;0.829154;-1.43972;-2.03119;0.76463;-1.43264;-1.96318;1.97478;0.309845;-1.44605;-3.31553;-5.17154;-3.11971;422;195;7.24336;420.079;189.377;0;2;1;0.00768562;-1.35426;-2.61176;0.0265185;-1.30952;-2.55002;-0.234137;-0.278426;-0.685858;0.150986;-4.7029;1.53538;1;0.783599;0.0216205;0.744533;-0.0189687;-1.45426;-2.70771;31.918;4.42148;31.918;647.851;688;1226;1064;1024;224;1024;1024;1024;1;4;0;0.0166973;2.3508;0.0302687;1.86133; 
363;366;2019/10/22 18:37:17;0;279.333;251.467;8.46531;277.937;251.898;0;28;1;0.847542;-1.4361;-2.0507;0.789503;-1.43368;-1.98944;1.9259;0.140216;-1.57545;-3.22138;-6.72973;-4.38832;423;196;7.03751;421.297;190.649;0;3;1;0.000819887;-1.39978;-2.68423;0.0188089;-1.3366;-2.59028;-0.255498;-0.395047;-0.724626;-0.0367828;-4.52116;1.72953;1;0.81864;0.066101;0.782548;-0.0291364;-1.49978;-2.77198;32.4612;3.02584;32.4612;647.851;726;1226;1041;1024;224;1024;1024;1024;1;4;0;0.0166982;2.45592;0.0925413;1.95637; 
364;367;2019/10/22 18:37:17;0;278;250.571;8.37811;275.184;249.684;0;29;1;0.864304;-1.44661;-2.07499;0.811943;-1.43756;-2.0151;1.84434;0.0204025;-1.63419;-3.222;-7.78741;-5.19308;423.333;195.333;7.00519;422.232;191.299;0;4;1;-0.00155082;-1.40228;-2.69924;0.012701;-1.3563;-2.62297;-0.27781;-0.504186;-0.792127;-0.24508;-4.26256;1.91211;1;0.846823;0.0647243;0.778666;-0.0348794;-1.50228;-2.79377;32.6383;1.44321;32.6383;647.851;760;1226;1025;1024;224;1024;1024;1024;1;4;0;0.0166973;2.54047;0.0906141;1.94667; 
365;368;2019/10/22 18:37:17;0;276.571;249;8.3243;272.845;247.654;0;30;1;0.878455;-1.44811;-2.09361;0.831897;-1.44072;-2.03866;1.7445;-0.0687011;-1.65967;-3.34902;-8.32367;-5.5442;424;195;6.98941;423.096;191.668;0;5;1;-0.0063138;-1.40346;-2.70665;0.00699654;-1.37045;-2.64808;-0.295988;-0.59778;-0.88268;-0.420326;-4.06993;1.69627;1;0.875374;0.062741;0.773964;-0.0434775;-1.50346;-2.81262;32.6663;0.248772;32.6663;647.851;782;1226;1028;1024;224;1024;1024;1024;1;4;0;0.0166982;2.62612;0.0878375;1.93491; 
366;369;2019/10/22 18:37:17;0;275;247.429;8.04209;270.764;245.759;0;31;1;0.919032;-1.4908;-2.17247;0.858037;-1.45575;-2.0788;1.65949;-0.168894;-1.7098;-3.55355;-8.43409;-5.56138;424;194;6.90338;423.701;191.638;0;6;1;-0.00639249;-1.41493;-2.74438;0.00297983;-1.3838;-2.67697;-0.315743;-0.714581;-1.07286;-0.62868;-4.36433;0.483152;1;0.905285;0.0591854;0.787418;-0.0472477;-1.51493;-2.86622;32.8377;-1.11845;32.8377;647.851;801;1226;1065;1024;224;1024;1024;1024;1;4;0;0.0166973;2.71586;0.0828595;1.96855; 
367;370;2019/10/22 18:37:17;0;274.462;246.769;7.90693;269.195;244.249;0;32;1;0.938139;-1.51282;-2.21191;0.882068;-1.47287;-2.11873;1.57498;-0.274068;-1.7633;-3.87529;-8.17288;-5.21962;422;194;7.1618;423.484;191.646;0;7;1;0.00777315;-1.36388;-2.64536;0.00441783;-1.37782;-2.66748;-0.309908;-0.777978;-1.21835;-0.757669;-4.88098;-1.4898;1;0.91748;-0.00899136;0.673361;-0.0354118;-1.46388;-2.79209;32.4613;-3.72653;32.4613;647.851;832;1226;1082;1024;224;1024;1024;1024;1;4;0;0.0166985;2.75244;-0.0125879;1.6834; 
368;371;2019/10/22 18:37:17;0;273.273;246.182;7.7282;267.794;243.042;0;33;1;0.967512;-1.54464;-2.26516;0.907701;-1.4944;-2.16266;1.51621;-0.411029;-1.85442;-4.15604;-7.78185;-4.76221;422;193;6.8154;423.313;191.363;0;8;1;0.00816822;-1.42709;-2.78386;0.00554294;-1.3926;-2.7024;-0.269691;-0.798488;-1.33938;-0.596552;-5.00496;-3.5031;1;0.945608;0.0326946;0.80233;-0.0379067;-1.52709;-2.96499;32.359;-4.74833;32.359;647.851;840;1226;1157;1024;224;1024;1024;1024;1;4;0;0.0166973;2.83682;0.0457724;2.00582; 
369;372;2019/10/22 18:37:17;0;273;245.6;7.55963;266.801;242.057;0;34;1;0.990886;-1.57589;-2.3178;0.932657;-1.51885;-2.2092;1.48127;-0.586659;-1.99007;-4.26883;-7.57119;-4.51274;421;193;6.74984;422.858;191.188;0;9;1;0.0156403;-1.44096;-2.8109;0.00857215;-1.40711;-2.73495;-0.202685;-0.760605;-1.3812;-0.147073;-4.46248;-4.72327;1;0.95807;0.0221107;0.805582;-0.0254131;-1.54096;-3.01478;31.9071;-7.22416;31.9071;647.851;870;1226;1170;1024;224;1024;1024;1024;1;4;0;0.0166982;2.87421;0.030955;2.01396; 
370;373;2019/10/22 18:37:17;0;273;245;7.51248;266.19;241.227;0;35;1;0.997105;-1.58246;-2.33455;0.951991;-1.53793;-2.24681;1.44791;-0.752744;-2.11913;-4.14406;-7.62953;-4.64376;420;192;6.82688;422.197;190.773;0;10;1;0.0227731;-1.41861;-2.78322;0.0128324;-1.41056;-2.74943;-0.121086;-0.672977;-1.3336;0.537482;-3.3514;-4.99584;1;0.959662;-0.0193243;0.743876;-0.00767106;-1.51861;-2.99068;31.1359;-10.1374;31.1359;647.851;908;1226;1138;1024;224;1024;1024;1024;1;4;0;0.0166973;2.87899;-0.027054;1.85969; 
371;374;2019/10/22 18:37:17;0;274;244;7.48045;266.17;240.382;0;36;1;0.994704;-1.58368;-2.34823;0.964805;-1.55165;-2.27723;1.39939;-0.894547;-2.22401;-3.86432;-7.87495;-5.03939;418;192;6.75384;421.07;190.501;0;11;1;0.0377961;-1.43395;-2.81332;0.0203215;-1.41757;-2.7686;-0.0194511;-0.59193;-1.28134;1.42657;-1.98748;-4.58917;1;0.944693;-0.0177057;0.730859;0.0201115;-1.53395;-3.00809;29.7704;-11.9514;29.7704;647.851;934;1226;1106;1024;224;1024;1024;1024;1;4;0;0.0166982;2.83408;-0.024788;1.82715; 
372;375;2019/10/22 18:37:17;0;274.727;243.818;7.423;266.489;239.784;0;37;1;0.997514;-1.59491;-2.36708;0.974618;-1.56463;-2.30419;1.30508;-0.971461;-2.23427;-3.7336;-7.92925;-5.11758;416.667;192.667;6.81457;419.818;190.546;0;12;1;0.0472227;-1.42524;-2.78555;0.0283919;-1.41987;-2.77368;0.089788;-0.499202;-1.15494;2.47504;-0.332577;-3.08119;1;0.930147;-0.0393952;0.662676;0.0444703;-1.52524;-2.96686;28.0402;-13.346;28.0402;647.851;954;1226;1050;1024;224;1024;1024;1024;1;4;0;0.0166973;2.79044;-0.0551533;1.65669; 
373;376;2019/10/22 18:37:17;0;277;243;7.29293;267.541;239.162;0;38;1;0.999753;-1.61869;-2.41239;0.982158;-1.58085;-2.33665;1.18267;-1.01401;-2.2106;-3.80649;-7.7118;-4.85642;415;193;6.74825;418.373;190.713;0;13;1;0.0600108;-1.4413;-2.81156;0.0378776;-1.4263;-2.78505;0.187463;-0.493085;-1.16233;3.47081;0.937904;-1.62505;1;0.909917;-0.0395538;0.632226;0.0722409;-1.5413;-2.96888;26.0747;-13.902;26.0747;647.851;958;1226;1027;1024;224;1024;1024;1024;1;4;0;0.0166982;2.72975;-0.0553753;1.58056; 
374;377;2019/10/22 18:37:17;0;278;242;7.19563;268.718;238.464;0;39;1;1.00634;-1.63481;-2.44885;0.989412;-1.59704;-2.37031;1.03584;-1.01819;-2.1554;-4.20179;-7.05119;-4.11555;415;193;6.74825;418.398;190.131;1;0;1;0.0600108;-1.4413;-2.81156;0.0378776;-1.4263;-2.78505;0.187463;-0.493085;-1.16233;3.47081;0.937904;-1.62505;1;-0.0169256;0.0377685;0.0785406;1.00634;-1.63481;-2.44885;-0.355438;0.687386;-0.355438;647.851;726;954;981;1024;224;1024;1024;1024;1;4;0;0.0166975;-0.0507769;0.0528759;0.196351; 
375;378;2019/10/22 18:37:17;0;280;242;7.04574;270.296;238.025;0;40;1;1.01358;-1.66958;-2.50095;0.996663;-1.6188;-2.4095;0.87705;-1.00999;-2.09294;-4.93345;-5.92086;-2.88003;413;194;7.22528;416.34;191.042;0;1;1;0.0698613;-1.35189;-2.62211;0.0474727;-1.40398;-2.73617;0.255968;-0.334782;-0.812963;3.88138;2.14962;0.826457;1;-0.0169185;0.0507823;0.091445;1.01358;-1.66958;-2.50095;-0.355289;0.924238;-0.355289;647.851;709;942;1004;1024;224;1024;1024;1024;1;4;0;0.0166982;-0.0507556;0.0710953;0.228612; 
376;379;2019/10/22 18:37:17;0;282.667;240.222;6.89454;272.373;237.21;0;41;1;1.01651;-1.69548;-2.56291;1.00262;-1.6418;-2.45552;0.728356;-1.02071;-2.08908;-5.83291;-4.6224;-1.60803;411.333;194.667;6.73463;414.511;191.802;0;2;1;0.0873;-1.4545;-2.81042;0.0594209;-1.41913;-2.75844;0.327595;-0.242026;-0.56818;4.14355;3.06445;3.2782;1;0.883598;-0.0873041;0.455635;0.119019;-1.5545;-2.91116;21.3609;-14.8582;21.3609;647.851;921;1208;916;1024;224;1024;1024;1024;1;4;0;0.0166973;2.65079;-0.122226;1.13909; 
377;380;2019/10/22 18:37:17;0;285.333;239.778;6.75332;274.804;236.542;0;42;1;1.01806;-1.7282;-2.61832;1.00725;-1.66772;-2.50436;0.60648;-1.07584;-2.16026;-6.66546;-3.49724;-0.710317;411.333;194.667;6.60705;413.302;192.302;0;3;1;0.0889857;-1.48259;-2.86468;0.0682903;-1.43817;-2.79031;0.386343;-0.239709;-0.480825;4.22264;3.32138;4.88527;1;0.879239;-0.0851362;0.42801;0.128012;-1.58259;-2.93237;20.005;-15.5353;20.005;647.851;900;1171;886;1024;224;1024;1024;1024;1;4;0;0.0166982;2.63772;-0.119191;1.07002; 
378;381;2019/10/22 18:37:17;0;288.222;238.667;6.72398;277.557;235.768;0;43;1;1.00107;-1.72887;-2.6343;1.0054;-1.68607;-2.54334;0.48677;-1.13033;-2.251;-7.26643;-2.73264;-0.492979;411;195;6.69588;412.361;192.765;0;4;1;0.0902894;-1.46499;-2.82531;0.0748901;-1.44622;-2.80081;0.41855;-0.241839;-0.398745;4.03251;3.19091;5.95158;1;0.870701;-0.121078;0.337229;0.134694;-1.56499;-2.88057;18.7623;-16.8979;18.7623;647.851;946;1145;838;1024;224;1024;1024;1024;1;4;0;0.0166973;2.6121;-0.169509;0.843073; 
379;382;2019/10/22 18:37:17;0;291;238;6.58949;280.501;235.058;0;44;1;1.00046;-1.75995;-2.69086;1.00392;-1.70823;-2.5876;0.378927;-1.18676;-2.35252;-7.56882;-2.32932;-0.862407;411;195;6.62797;411.701;193.105;0;5;1;0.0912145;-1.48;-2.85426;0.0797874;-1.45635;-2.81685;0.427014;-0.269933;-0.386961;3.57355;2.69914;6.19909;1;0.865348;-0.128232;0.311771;0.138567;-1.58;-2.89937;17.8357;-17.7618;17.8357;647.851;963;1133;824;1024;224;1024;1024;1024;1;4;0;0.0166982;2.59604;-0.179524;0.779427; 
380;383;2019/10/22 18:37:17;0;294;237;6.49346;283.646;234.286;0;45;1;0.992204;-1.77957;-2.7349;1.0004;-1.72963;-2.63179;0.271234;-1.24145;-2.45549;-7.594;-2.28899;-1.71555;412;194;6.59305;411.559;193.041;0;6;1;0.0841291;-1.48153;-2.87356;0.0810899;-1.4639;-2.83386;0.404089;-0.290647;-0.399227;2.88547;2.31227;6.33094;1;0.868349;-0.148102;0.285197;0.132053;-1.58153;-2.91699;17.3053;-18.8343;17.3053;647.851;984;1135;825;1024;224;1024;1024;1024;1;4;0;0.0166973;2.60505;-0.207343;0.712991; 
381;384;2019/10/22 18:37:17;0;297.273;236.182;6.48701;287.017;233.525;0;46;1;0.968016;-1.7761;-2.7411;0.990686;-1.74357;-2.66458;0.138877;-1.24302;-2.49172;-7.50359;-2.3038;-2.62149;412;194;6.54174;411.465;193.009;0;7;1;0.084789;-1.49315;-2.8961;0.0821996;-1.47268;-2.85253;0.381102;-0.448676;-0.704128;2.23089;0.932635;4.23309;1;0.861859;-0.15042;0.275023;0.128827;-1.59315;-2.93961;16.4035;-18.8969;16.4035;647.851;985;1132;836;1024;224;1024;1024;1024;1;4;0;0.0166985;2.58558;-0.210588;0.687557; 
382;385;2019/10/22 18:37:17;0;300;236;6.43741;290.37;232.975;0;47;1;0.954334;-1.78861;-2.763;0.979781;-1.75708;-2.69411;-0.00784958;-1.20607;-2.4476;-7.44149;-2.1223;-3.00433;414;194;6.50329;412.047;193;0;8;1;0.0699442;-1.50198;-2.91322;0.078523;-1.48147;-2.87074;0.304928;-0.518075;-0.870825;1.24803;-0.54256;1.33153;1;0.866143;-0.155104;0.299839;0.113638;-1.60198;-2.99395;15.9996;-18.5017;15.9996;647.851;948;1142;897;1024;224;1024;1024;1024;1;4;0;0.0166973;2.59843;-0.217145;0.749598; 
383;386;2019/10/22 18:37:17;0;304;234.4;6.34937;294.107;232.125;0;48;1;0.936132;-1.80293;-2.80827;0.966686;-1.77084;-2.72836;-0.166666;-1.13533;-2.36288;-7.55171;-1.51093;-2.61155;414;193;6.43144;412.477;192.688;0;9;1;0.0707257;-1.5123;-2.95006;0.0761838;-1.49072;-2.89453;0.214472;-0.520639;-0.938597;0.0626132;-1.44716;-1.02876;1;0.86054;-0.158542;0.322855;0.106146;-1.6123;-3.05121;15.4034;-17.6448;15.4034;647.851;918;1150;954;1024;224;1024;1024;1024;1;4;0;0.0166982;2.58162;-0.221959;0.807137; 
384;387;2019/10/22 18:37:17;0;307.333;233.778;6.3651;297.903;231.367;0;49;1;0.907685;-1.79441;-2.80402;0.948986;-1.77791;-2.75106;-0.325218;-1.04789;-2.24703;-7.77292;-0.577406;-1.55111;415;193;6.50042;413.116;192.476;0;10;1;0.0622988;-1.49625;-2.91875;0.0720183;-1.49238;-2.9018;0.117217;-0.49668;-0.966354;-1.16552;-1.88576;-2.88346;1;0.861915;-0.181663;0.276107;0.087071;-1.59625;-3.02716;15.0032;-16.9288;15.0032;647.851;907;1160;995;1024;224;1024;1024;1024;1;4;0;0.0166973;2.58574;-0.254328;0.690266; 
385;388;2019/10/22 18:37:17;0;310;233;6.23849;301.522;230.625;0;50;1;0.904777;-1.82565;-2.86437;0.935723;-1.79223;-2.78505;-0.467376;-0.96409;-2.13652;-8.04246;0.542543;-0.068313;415;193;6.50042;412.985;192.168;1;0;1;0.0622988;-1.49625;-2.91875;0.0720183;-1.49238;-2.9018;0.117217;-0.49668;-0.966354;-1.16552;-1.88576;-2.88346;1;0.859747;-0.195983;0.246461;0.0759764;-1.59625;-3.03151;13.9625;-16.1001;13.9625;647.851;884;1139;1018;1024;224;1024;1024;1024;1;4;0;0.0167041;2.57924;-0.274377;0.616153; 
386;389;2019/10/22 18:37:17;0;313.6;232;6.21314;305.302;229.824;0;51;1;0.879555;-1.8264;-2.8805;0.918873;-1.80248;-2.81369;-0.605916;-0.869291;-2.0081;-8.32733;1.81131;1.74513;417;191;6.47641;414.404;191.41;0;1;1;0.04712;-1.48895;-2.93809;0.0645488;-1.49135;-2.91269;0.0181836;-0.417775;-0.907787;-2.09834;-1.63737;-3.51235;1;0.858099;-0.213528;0.236968;0.0607734;-1.58895;-3.05065;13.6514;-15.187;13.6514;647.851;864;1144;1053;1024;224;1024;1024;1024;1;4;0;0.0166973;2.5743;-0.298939;0.59242; 
387;390;2019/10/22 18:37:17;0;317;231.6;6.11749;309.127;229.169;0;52;1;0.865574;-1.85224;-2.92734;0.902883;-1.81741;-2.84778;-0.714086;-0.816358;-1.93625;-8.40169;2.79016;3.26471;419;191;6.40765;415.96;190.938;0;2;1;0.0320506;-1.50493;-2.96962;0.0547993;-1.49542;-2.92977;-0.0790558;-0.358527;-0.872872;-2.91232;-1.21471;-3.72822;1;0.86873;-0.212476;0.226785;0.0341527;-1.60493;-3.07457;13.7981;-14.4797;13.7981;647.851;853;1158;1076;1024;224;1024;1024;1024;1;4;0;0.0166985;2.60619;-0.297467;0.566962; 
388;391;2019/10/22 18:37:17;0;320;230;6.08554;312.851;228.238;0;53;1;0.84552;-1.85104;-2.94997;0.885674;-1.8275;-2.87844;-0.804153;-0.770933;-1.89765;-8.22011;3.41128;4.15442;419;191;6.40765;415.966;190.605;1;0;1;0.0320506;-1.50493;-2.96962;0.0547993;-1.49542;-2.92977;-0.0790558;-0.358527;-0.872872;-2.91232;-1.21471;-3.72822;1;0.862519;-0.222564;0.189399;0.0231554;-1.60493;-3.06784;13.0372;-14.0728;13.0372;647.851;843;1149;1082;1024;224;1024;1024;1024;1;4;0;0.0166973;2.58756;-0.31159;0.473499; 
389;392;2019/10/22 18:37:17;0;323.333;229.778;6.04836;316.601;227.545;0;54;1;0.823217;-1.86089;-2.96911;0.866937;-1.83751;-2.90564;-0.88072;-0.728752;-1.84636;-7.78279;3.66997;4.55475;421;189;6.2681;417.99;189.628;0;1;1;0.0168423;-1.52517;-3.04454;0.0434122;-1.50435;-2.9642;-0.163574;-0.309944;-0.858089;-3.3783;-0.313421;-2.69793;1;0.858926;-0.212344;0.236405;0.00801109;-1.62517;-3.14205;13.0174;-13.3384;13.0174;647.851;840;1163;1087;1024;224;1024;1024;1024;1;4;0;0.0166982;2.57678;-0.297281;0.591012; 
390;393;2019/10/22 18:37:17;0;326.222;228.667;6.07917;320.222;226.739;0;55;1;0.795331;-1.84385;-2.95911;0.845455;-1.83942;-2.92168;-0.941757;-0.682804;-1.789;-7.13109;3.65952;4.56146;422.667;188.667;6.31848;419.762;188.922;0;2;1;0.00354575;-1.51082;-3.02172;0.0314523;-1.50629;-2.98146;-0.239087;-0.260284;-0.846375;-3.65591;0.583845;-1.54555;1;0.859874;-0.228599;0.194279;-0.0144187;-1.61082;-3.11596;13.1387;-13.037;13.1387;647.851;847;1180;1068;1024;224;1024;1024;1024;1;4;0;0.0166973;2.57962;-0.320039;0.485697; 
391;394;2019/10/22 18:37:17;0;329.333;227.778;5.96371;323.814;225.923;0;56;1;0.784699;-1.87336;-3.02051;0.827228;-1.8496;-2.95133;-0.998223;-0.638727;-1.73728;-6.39808;3.49473;4.33085;425;187;6.37696;421.702;187.895;0;3;1;-0.0147452;-1.48609;-3.00122;0.017593;-1.50023;-2.98739;-0.318889;-0.184658;-0.785846;-3.79057;1.35633;-0.469951;1;0.869057;-0.263504;0.145766;-0.041829;-1.58609;-3.0971;13.4949;-13.0992;13.4949;647.851;862;1200;1043;1024;224;1024;1024;1024;1;4;0;0.0166985;2.60717;-0.368905;0.364415; 
392;395;2019/10/22 18:37:17;0;332.909;226.727;6.00994;327.526;225.046;0;57;1;0.748973;-1.85168;-3.0021;0.803752;-1.85022;-2.96656;-1.05856;-0.573843;-1.65273;-5.64603;3.27642;4.01731;427;186;6.2424;423.685;186.868;0;4;1;-0.0310504;-1.51147;-3.07034;0.003;-1.5036;-3.01227;-0.397993;-0.144411;-0.80229;-3.81702;1.86858;0.209283;1;0.869387;-0.238752;0.189003;-0.065635;-1.61147;-3.15557;13.6332;-11.8053;13.6332;647.851;859;1214;1047;1024;224;1024;1024;1024;1;4;0;0.0166973;2.60816;-0.334253;0.472509; 
393;396;2019/10/22 18:37:17;0;336;226;5.93917;331.167;224.228;0;58;1;0.731929;-1.86865;-3.04125;0.782205;-1.85575;-2.98897;-1.11695;-0.497388;-1.55534;-4.99606;3.23936;3.93119;428.667;185.333;6.2508;425.614;185.941;0;5;1;-0.0443135;-1.505;-3.06915;-0.011194;-1.50402;-3.02934;-0.498;-0.130018;-0.880562;-4.05668;2.1059;0.218738;1;0.870267;-0.250747;0.168373;-0.088062;-1.605;-3.15734;13.943;-11.0296;13.943;647.851;859;1226;1056;1024;224;1024;1024;1024;1;4;0;0.0166982;2.6108;-0.351046;0.420933; 
394;397;2019/10/22 18:37:17;0;339.4;225.4;6.03565;334.848;223.493;0;59;1;0.69212;-1.83465;-2.99538;0.755179;-1.84942;-2.99089;-1.19117;-0.385963;-1.38218;-4.54283;3.48062;4.41672;431;184;6.04983;427.73;184.865;0;6;1;-0.0650313;-1.54584;-3.17719;-0.0273452;-1.51657;-3.07369;-0.579914;-0.150364;-1.02087;-4.14804;1.97591;-0.375233;1;0.874484;-0.203585;0.282261;-0.119304;-1.64584;-3.27315;14.0853;-8.72276;14.0853;647.851;829;1226;1114;1024;224;1024;1024;1024;1;4;0;0.0166975;2.62345;-0.285019;0.705652; 
395;398;2019/10/22 18:37:17;0;343.333;223.778;5.88624;338.724;222.491;0;60;1;0.676343;-1.86976;-3.07902;0.731528;-1.85552;-3.01733;-1.25533;-0.303477;-1.27523;-4.22133;3.7863;4.93028;433;182;6.01006;429.876;183.469;0;7;1;-0.0820671;-1.54223;-3.2074;-0.0437618;-1.52427;-3.1138;-0.695993;-0.169742;-1.20982;-4.61453;1.7453;-1.62944;1;0.879358;-0.213291;0.305836;-0.14783;-1.64223;-3.32317;14.5512;-7.8271;14.5512;647.851;814;1226;1159;1024;224;1024;1024;1024;1;4;0;0.0166982;2.63807;-0.298608;0.764589; 
396;399;2019/10/22 18:37:17;0;346.909;222.727;5.84891;342.622;221.478;0;61;1;0.650154;-1.87423;-3.10363;0.707116;-1.86113;-3.04322;-1.30552;-0.268794;-1.25039;-3.98514;3.92473;5.10861;435;181;6.06696;432.046;182.162;0;8;1;-0.097747;-1.52091;-3.18186;-0.0599573;-1.52326;-3.13422;-0.782552;-0.169605;-1.33582;-4.93852;1.40922;-2.93177;1;0.887407;-0.240221;0.282127;-0.180291;-1.62091;-3.32535;14.9748;-7.86633;14.9748;647.851;816;1226;1181;1024;224;1024;1024;1024;1;4;0;0.0166973;2.66222;-0.336309;0.705317; 
397;400;2019/10/22 18:37:17;0;350.727;221.818;5.76841;346.608;220.501;0;62;1;0.626198;-1.89383;-3.15129;0.68284;-1.87094;-3.07564;-1.35979;-0.246492;-1.24654;-3.83464;3.92085;5.02446;437;179;5.9831;434.231;180.6;0;9;1;-0.115797;-1.52833;-3.23569;-0.0767093;-1.52478;-3.16466;-0.846037;-0.199786;-1.50927;-5.06776;0.785136;-4.64735;1;0.89517;-0.242609;0.324827;-0.21233;-1.62833;-3.40047;15.2023;-7.61988;15.2023;647.851;813;1226;1217;1024;224;1024;1024;1024;1;4;0;0.0166985;2.68551;-0.339653;0.812069; 
398;401;2019/10/22 18:37:17;0;354.667;220.222;5.7865;350.692;219.332;0;63;1;0.590268;-1.87644;-3.14904;0.655069;-1.87259;-3.09766;-1.40949;-0.237203;-1.27134;-3.70191;3.69655;4.53741;439;177;5.79162;436.425;178.855;0;10;1;-0.136857;-1.5645;-3.35219;-0.0947538;-1.5367;-3.22092;-0.897907;-0.252009;-1.7386;-5.03658;0.0414944;-6.52666;1;0.89979;-0.208087;0.446951;-0.244721;-1.6645;-3.54461;15.3145;-6.87084;15.3145;647.851;831;1226;1235;1024;224;1024;1024;1024;1;4;0;0.0166973;2.69937;-0.291322;1.11738; 
399;402;2019/10/22 18:37:17;0;359;219;5.63029;354.967;218.141;0;64;1;0.56824;-1.91948;-3.2424;0.62902;-1.88666;-3.14108;-1.45729;-0.265714;-1.37012;-3.57999;3.1429;3.46191;440;175;6.04115;438.304;176.978;0;11;1;-0.139465;-1.48612;-3.22286;-0.108167;-1.52152;-3.2215;-0.925912;-0.221081;-1.81039;-4.7304;-0.338674;-7.62838;1;0.89271;-0.300539;0.322315;-0.26369;-1.58612;-3.4634;15.0272;-8.92409;15.0272;647.851;865;1226;1235;1024;224;1024;1024;1024;1;4;0;0.0166982;2.67813;-0.420754;0.805787; 
400;403;2019/10/22 18:37:17;0;363.333;217.778;5.74828;359.376;216.936;0;65;1;0.518959;-1.87124;-3.18172;0.596002;-1.88203;-3.15327;-1.5099;-0.289624;-1.47038;-3.42051;2.27037;1.72501;440;175;6.04115;439.093;176.278;1;0;1;-0.139465;-1.48612;-3.22286;-0.108167;-1.52152;-3.2215;-0.925912;-0.221081;-1.81039;-4.7304;-0.338674;-7.62838;1;0.85603;-0.295912;0.305324;-0.260028;-1.58612;-3.4586;13.8887;-9.15072;13.8887;647.851;854;1226;1207;1024;224;1024;1024;1024;1;4;0;0.0166975;2.56809;-0.414277;0.76331; 
401;404;2019/10/22 18:37:18;0;368;216;5.5951;363.984;215.544;0;66;1;0.491547;-1.90926;-3.27759;0.564665;-1.8902;-3.19057;-1.57214;-0.31222;-1.57389;-3.3172;1.32732;-0.157381;444;172;5.8966;441.775;173.926;0;1;1;-0.176733;-1.5014;-3.31591;-0.128737;-1.51549;-3.24982;-0.902526;-0.12895;-1.68899;-3.94227;-0.129921;-6.86345;1;0.864733;-0.288802;0.36649;-0.300068;-1.6014;-3.55706;13.4721;-9.31504;13.4721;647.851;868;1226;1171;1024;224;1024;1024;1024;1;4;0;0.0166982;2.5942;-0.404322;0.916226; 
402;405;2019/10/22 18:37:18;0;373;214;5.59009;368.836;213.944;0;67;1;0.447356;-1.89609;-3.2904;0.529472;-1.89197;-3.22052;-1.65253;-0.310434;-1.65221;-3.37578;0.63014;-1.69871;445;170;6.01284;443.782;171.771;0;2;1;-0.181615;-1.45854;-3.26098;-0.1446;-1.4984;-3.25317;-0.886604;0.0111398;-1.49034;-3.01767;0.541059;-5.07804;1;0.824202;-0.333426;0.252144;-0.29473;-1.55854;-3.47266;11.9467;-10.104;11.9467;647.851;885;1211;1099;1024;224;1024;1024;1024;1;4;0;0.0166973;2.47261;-0.466796;0.63036; 
403;406;2019/10/22 18:37:18;0;378;212;5.65275;373.861;212.196;0;68;1;0.398259;-1.86036;-3.26369;0.490108;-1.88249;-3.23347;-1.76101;-0.232349;-1.62147;-3.62737;0.434552;-2.51614;447;169;5.87381;445.782;170.009;0;3;1;-0.202905;-1.48599;-3.34287;-0.162092;-1.49468;-3.28008;-0.881482;0.104496;-1.39335;-2.14915;1.26265;-3.24373;1;0.790995;-0.296498;0.2741;-0.300886;-1.58599;-3.50757;10.4542;-8.4168;10.4542;647.851;854;1169;1072;1024;224;1024;1024;1024;1;4;0;0.0166985;2.37298;-0.415097;0.68525; 
404;407;2019/10/22 18:37:18;0;383.273;210.182;5.5924;376.091;211.04;1;0;1;0.398259;-1.86036;-3.26369;0.490108;-1.88249;-3.23347;-1.76101;-0.232349;-1.62147;-3.62737;0.434552;-2.51614;447;169;5.87381;446.748;169.138;1;0;1;-0.202905;-1.48599;-3.34287;-0.162092;-1.49468;-3.28008;-0.881482;0.104496;-1.39335;-2.14915;1.26265;-3.24373;1;0.788206;-0.296498;0.259868;-0.298097;-1.58599;-3.49334;10.3956;-8.4168;10.3956;647.851;858;1168;1071;1024;224;1024;1024;1024;1;4;0;0.0166985;2.36462;-0.415097;0.649671; 
405;408;2019/10/22 18:37:18;0;388.6;208.6;5.5463;378.321;209.885;2;0;1;0.398259;-1.86036;-3.26369;0.490108;-1.88249;-3.23347;-1.76101;-0.232349;-1.62147;-3.62737;0.434552;-2.51614;449;167;5.97526;448.6;167.425;0;1;1;-0.216162;-1.44684;-3.29535;-0.178313;-1.48033;-3.28466;-0.833131;0.195813;-1.19534;-1.25085;1.94217;-1.00621;1;0.805234;-0.335644;0.218309;-0.315126;-1.54684;-3.45178;10.4148;-9.12925;10.4148;647.851;866;1154;1031;1024;224;1024;1024;1024;1;4;0;0.0166985;2.4157;-0.469901;0.545773; 
406;409;2019/10/22 18:37:18;0;393.333;207;5.54341;380.55;208.729;3;0;1;0.398259;-1.86036;-3.26369;0.490108;-1.88249;-3.23347;-1.76101;-0.232349;-1.62147;-3.62737;0.434552;-2.51614;449;167;5.97526;449.604;166.518;1;0;1;-0.216162;-1.44684;-3.29535;-0.178313;-1.48033;-3.28466;-0.833131;0.195813;-1.19534;-1.25085;1.94217;-1.00621;1;0.795319;-0.335644;0.189641;-0.305211;-1.54684;-3.42311;10.2065;-9.12925;10.2065;647.851;868;1151;1027;1024;224;1024;1024;1024;1;4;0;0.0166985;2.38596;-0.469901;0.474102; 
407;410;2019/10/22 18:37:18;0;399.091;205.273;5.53126;392.039;205.848;0;1;1;0.216737;-1.85066;-3.36894;0.408097;-1.87294;-3.27411;-1.71397;-0.140333;-1.44253;-2.98683;0.518569;-1.96534;449;167;5.97526;450.607;165.61;2;0;1;-0.216162;-1.44684;-3.29535;-0.178313;-1.48033;-3.28466;-0.833131;0.195813;-1.19534;-1.25085;1.94217;-1.00621;1;0.696673;-0.326097;0.125134;-0.288576;-1.54684;-3.39925;8.46429;-7.75929;8.46429;647.851;849;1133;1034;1024;224;1024;1024;1024;1;4;0;0.0667913;2.09002;-0.456535;0.312836; 
408;411;2019/10/22 18:37:18;0;404.727;203.818;5.5019;399.755;203.804;0;2;1;0.166774;-1.84954;-3.39421;0.3357;-1.86592;-3.31014;-1.80911;-0.0290048;-1.31549;-2.72852;0.94119;-1.0338;453;166;5.96039;452.747;164.888;0;1;1;-0.250189;-1.44348;-3.3082;-0.199876;-1.46927;-3.29172;-0.7517;0.27901;-0.886812;-0.400268;2.43737;1.43675;1;0.657418;-0.322444;0.100684;-0.321718;-1.54348;-3.41082;6.40391;-6.24555;6.40391;647.851;821;1091;1005;1024;224;1024;1024;1024;1;4;0;0.0166973;1.97225;-0.451422;0.251711; 
409;412;2019/10/22 18:37:18;0;409.6;202;5.51492;406.12;201.895;0;3;1;0.122291;-1.83147;-3.39529;0.271677;-1.85559;-3.33569;-1.94871;0.0529863;-1.27482;-2.8051;1.47663;-0.0997557;454;166;6.03666;454.289;164.424;0;2;1;-0.255294;-1.42524;-3.2664;-0.216501;-1.45606;-3.28413;-0.710536;0.324223;-0.682101;0.275775;2.76871;3.56489;1;0.585448;-0.330347;-0.000298262;-0.313771;-1.52524;-3.33539;3.62718;-5.3235;3.62718;647.851;808;1034;969;1024;224;1024;1024;1024;1;4;0;0.0166985;1.75634;-0.462486;-0.000745654; 
410;413;2019/10/22 18:37:18;0;415.273;200.182;5.50156;412.198;200.026;0;4;1;0.0711359;-1.82218;-3.41266;0.211515;-1.84556;-3.35878;-2.10921;0.150597;-1.21261;-3.11256;2.11786;0.90175;454;166;6.03666;455.361;163.543;1;0;1;-0.255294;-1.42524;-3.2664;-0.216501;-1.45606;-3.28413;-0.710536;0.324223;-0.682101;0.275775;2.76871;3.56489;1;0.516835;-0.320325;-0.044353;-0.30532;-1.52524;-3.31442;1.06284;-3.87216;1.06284;647.851;783;989;977;1024;224;1024;1024;1024;1;4;0;0.0166973;1.5505;-0.448455;-0.110883; 
411;414;2019/10/22 18:37:18;0;421;198.4;5.49828;418.199;198.178;0;5;1;0.0192004;-1.80979;-3.42363;0.153821;-1.83483;-3.37823;-2.26539;0.242434;-1.14735;-3.49875;2.74227;1.8848;454;166;6.03666;456.433;162.661;2;0;1;-0.255294;-1.42524;-3.2664;-0.216501;-1.45606;-3.28413;-0.710536;0.324223;-0.682101;0.275775;2.76871;3.56489;1;0.455511;-0.309593;-0.0672939;-0.301691;-1.52524;-3.31094;-1.31823;-2.48295;-1.31823;647.851;760;945;987;1024;224;1024;1024;1024;1;4;0;0.0166982;1.36653;-0.433431;-0.168235; 
412;415;2019/10/22 18:37:18;0;426.667;197;5.49814;424.17;196.461;0;6;1;-0.0322282;-1.79925;-3.43075;0.098006;-1.82416;-3.39399;-2.40289;0.300714;-1.11566;-3.80775;3.06422;2.47718;459;166;5.94062;458.72;163.36;0;1;1;-0.30142;-1.44828;-3.31921;-0.241977;-1.45373;-3.29465;-0.67293;0.32903;-0.506878;0.665466;2.65859;4.71329;1;0.441603;-0.275879;-0.0342941;-0.343597;-1.54828;-3.35969;-2.83608;-1.11171;-2.83608;647.851;746;910;978;1024;224;1024;1024;1024;1;4;0;0.0166973;1.32481;-0.38623;-0.0857353; 
413;416;2019/10/22 18:37:18;0;432.222;195.556;5.47595;430.105;194.818;0;7;1;-0.0829842;-1.79558;-3.45193;0.0437089;-1.81558;-3.41137;-2.89657;0.409422;-1.21742;-7.00623;4.03345;2.38509;462;166;5.73339;461.124;163.576;0;2;1;-0.338425;-1.50063;-3.43918;-0.270911;-1.4678;-3.33801;-0.67883;0.264069;-0.488879;0.851757;2.14597;5.00889;1;0.412788;-0.214956;0.0508976;-0.369079;-1.60063;-3.46227;-6.85561;1.41029;-6.85561;647.851;723;826;981;1024;224;1024;1024;1024;1;4;0;0.0166985;1.23836;-0.300938;0.127244; 
414;417;2019/10/22 18:37:18;0;437.333;193.778;5.419;435.877;193.12;0;8;1;-0.130921;-1.80081;-3.49726;-0.00868002;-1.81115;-3.43714;-3.11289;0.464327;-1.23749;-9.40913;4.38971;1.74248;463.333;166.667;5.81768;463.081;163.897;0;3;1;-0.344958;-1.48365;-3.38619;-0.293125;-1.47255;-3.35246;-0.692657;0.206625;-0.450957;0.922269;1.50999;5.05764;1;0.366053;-0.2275;-0.0295057;-0.374733;-1.58365;-3.40763;-9.25452;1.89575;-9.25452;647.851;711;826;960;1024;224;1024;1024;1024;1;4;0;0.0166973;1.09816;-0.3185;-0.0737643; 
415;418;2019/10/22 18:37:18;0;443.333;191.778;5.31406;441.818;191.312;0;9;1;-0.189847;-1.82072;-3.57671;-0.0630301;-1.81402;-3.47901;-3.20407;0.444544;-1.31472;-10.6575;4.19714;0.886193;465;167;5.82856;464.934;164.212;0;4;1;-0.358583;-1.48326;-3.37829;-0.312762;-1.47576;-3.36021;-0.737671;0.134906;-0.451553;0.782038;0.760091;4.81634;1;0.327215;-0.230763;-0.0801072;-0.390245;-1.58326;-3.3989;-10.3933;1.57918;-10.3933;647.851;718;826;946;1024;224;1024;1024;1024;1;4;0;0.0166982;0.981644;-0.323069;-0.200268; 
416;419;2019/10/22 18:37:18;0;449.152;189.273;5.31029;447.821;189.264;0;10;1;-0.244654;-1.8024;-3.59226;-0.117517;-1.81053;-3.51299;-3.23611;0.40658;-1.40451;-10.8937;3.54031;-0.234452;466;166;5.88676;466.518;164.114;0;5;1;-0.363514;-1.46153;-3.34957;-0.327988;-1.47149;-3.35702;-0.826221;0.0742908;-0.466456;0.246078;-0.156956;4.14852;1;0.280162;-0.249005;-0.142498;-0.397679;-1.56153;-3.37049;-10.9859;0.753644;-10.9859;647.851;765;760;932;1024;224;1024;1024;1024;1;4;0;0.0166975;0.840485;-0.348607;-0.356246; 
417;420;2019/10/22 18:37:18;0;454.252;187.195;5.32981;453.638;187.178;0;11;1;-0.291507;-1.77959;-3.58986;-0.169714;-1.80125;-3.53605;-3.23339;0.378019;-1.47279;-10.401;2.66551;-1.43997;468;167;5.59066;468.246;164.387;0;6;1;-0.400618;-1.54637;-3.52205;-0.349777;-1.49396;-3.40653;-0.894814;-0.0689022;-0.646392;-0.404155;-1.27135;2.59604;1;0.258131;-0.154876;0.00136948;-0.427845;-1.64637;-3.53742;-10.9493;2.09551;-10.9493;647.851;758;761;961;1024;224;1024;1024;1024;1;4;0;0.0166982;0.774393;-0.216826;0.00342369; 
418;421;2019/10/22 18:37:18;0;459.748;184.805;5.33623;459.441;184.966;0;12;1;-0.342558;-1.75883;-3.5979;-0.221567;-1.78852;-3.5546;-3.21594;0.369079;-1.52494;-9.48674;1.87226;-2.49801;471;167;5.70136;470.4;164.607;0;7;1;-0.419096;-1.51635;-3.45366;-0.370573;-1.50068;-3.42067;-1.05031;-0.228784;-0.890961;-1.7492;-2.9899;0.0241607;1;0.197529;-0.272175;-0.100947;-0.419096;-1.51635;-3.45366;-13.2212;-8.78185;-13.2212;647.851;923;762;927;1024;224;1024;1024;1024;1;4;0;0.0166973;0.592587;-0.381045;-0.252368; 
419;422;2019/10/22 18:37:18;0;464.551;183;5.25038;465.011;182.851;0;13;1;-0.393806;-1.7733;-3.66622;-0.273239;-1.78396;-3.58809;-3.19499;0.347722;-1.62051;-6.8835;0.877013;-3.10819;472.444;166;5.84961;472.363;164.47;0;8;1;-0.420797;-1.47081;-3.37085;-0.38564;-1.49172;-3.40572;-1.08825;-0.232769;-0.804922;-2.68412;-3.77758;-1.24731;1;0.147558;-0.313143;-0.21724;-0.420797;-1.47081;-3.37085;-15.1006;-8.60454;-15.1006;647.851;939;762;903;1024;224;1024;1024;1024;1;4;0;0.0166985;0.442675;-0.4384;-0.5431; 
420;423;2019/10/22 18:37:18;0;469.836;180.409;5.24215;470.56;180.557;0;14;1;-0.444731;-1.75553;-3.68561;-0.324687;-1.77543;-3.61735;-3.17866;0.351251;-1.6918;-4.3927;0.0747479;-3.67876;475;166;5.65608;474.542;164.396;0;9;1;-0.457741;-1.52114;-3.48619;-0.40727;-1.50054;-3.42986;-1.10867;-0.251412;-0.791969;-3.27144;-4.09528;-2.10989;1;0.133054;-0.254291;-0.131161;-0.457741;-1.52114;-3.48619;-15.3396;-7.97571;-15.3396;647.851;943;766;915;1024;224;1024;1024;1024;1;4;0;0.0166973;0.399163;-0.356007;-0.327902; 
421;424;2019/10/22 18:37:18;0;474.208;178.875;5.23669;475.802;178.471;0;15;1;-0.486856;-1.74518;-3.69754;-0.373337;-1.76635;-3.64141;-3.14611;0.401061;-1.66346;-2.40421;-0.128762;-3.5996;477;167;5.73069;476.7;164.685;0;10;1;-0.469196;-1.50859;-3.43598;-0.425848;-1.50296;-3.4317;-1.1167;-0.259414;-0.760597;-3.47615;-4.0315;-2.4998;1;0.0958587;-0.257765;-0.205422;-0.469196;-1.50859;-3.43598;-16.3813;-6.4454;-16.3813;647.851;914;785;908;1024;224;1024;1024;1024;1;4;0;0.0166982;0.287576;-0.360872;-0.513556; 
422;425;2019/10/22 18:37:18;0;478.28;174.96;5.33927;480.721;175.778;0;16;1;-0.515556;-1.68117;-3.64674;-0.416003;-1.7408;-3.643;-3.07938;0.519062;-1.51718;-0.816753;0.37183;-2.60959;478.28;174.96;5.33927;478.107;164.179;1;0;1;-0.469196;-1.50859;-3.43598;-0.425848;-1.50296;-3.4317;-1.1167;-0.259414;-0.760597;-3.47615;-4.0315;-2.4998;1;0.0995527;-0.0596311;0.00373244;-0.515556;-1.68117;-3.64674;2.09061;-1.08529;2.09061;647.851;776;1049;1017;1024;224;1024;1024;1024;1;4;0;0.0166975;0.298658;-0.0834836;0.00933111; 
423;426;2019/10/22 18:37:18;0;481.792;173.958;5.38595;485.225;173.576;0;17;1;-0.543622;-1.65886;-3.62026;-0.454289;-1.71622;-3.63618;-2.9838;0.650935;-1.3101;0.506452;1.31272;-0.916223;481.792;173.958;5.38595;479.515;163.674;2;0;1;-0.469196;-1.50859;-3.43598;-0.425848;-1.50296;-3.4317;-1.1167;-0.259414;-0.760597;-3.47615;-4.0315;-2.4998;1;0.0149075;-0.207629;-0.200199;-0.469196;-1.50859;-3.43598;-18.3378;-1.5892;-18.3378;647.851;823;800;946;1024;224;1024;1024;1024;1;4;0;0.0166982;0.0447225;-0.29068;-0.500498; 
424;427;2019/10/22 18:37:18;0;485.364;173.182;5.29813;489.447;171.804;0;18;1;-0.586275;-1.68027;-3.68431;-0.493884;-1.70543;-3.65062;-2.87752;0.722308;-1.16941;1.65505;2.19791;0.869715;485.364;173.182;5.29813;480.923;163.168;3;0;1;-0.469196;-1.50859;-3.43598;-0.425848;-1.50296;-3.4317;-1.1167;-0.259414;-0.760597;-3.47615;-4.0315;-2.4998;1;0.0923904;-0.0251664;0.0336909;-0.586275;-1.68027;-3.68431;1.9402;-0.458028;1.9402;647.851;750;1087;1045;1024;224;1024;1024;1024;1;4;0;0.0166973;0.277171;-0.035233;0.0842273; 
425;428;2019/10/22 18:37:18;0;487.696;171.652;5.22339;493.068;170.103;0;19;1;-0.616942;-1.69213;-3.74511;-0.530802;-1.70144;-3.67897;-2.75484;0.762821;-1.06448;2.75035;2.97605;2.7418;487.696;171.652;5.22339;482.33;162.662;4;0;1;-0.469196;-1.50859;-3.43598;-0.425848;-1.50296;-3.4317;-1.1167;-0.259414;-0.760597;-3.47615;-4.0315;-2.4998;1;0.0861401;-0.00930929;0.066143;-0.616942;-1.69213;-3.74511;1.80894;-0.169429;1.80894;647.851;739;1102;1064;1024;224;1024;1024;1024;1;4;0;0.0166985;0.25842;-0.013033;0.165358; 
426;429;2019/10/22 18:37:18;0;490.267;170.978;5.22893;496.329;168.728;0;20;1;-0.640823;-1.68498;-3.7447;-0.563808;-1.6965;-3.69869;-2.6076;0.772806;-0.963448;3.93017;3.4687;4.55306;490.267;170.978;5.22893;483.738;162.157;5;0;1;-0.469196;-1.50859;-3.43598;-0.425848;-1.50296;-3.4317;-1.1167;-0.259414;-0.760597;-3.47615;-4.0315;-2.4998;1;0.0770152;-0.0115249;0.0460141;-0.640823;-1.68498;-3.7447;1.61732;-0.209753;1.61732;647.851;736;1118;1075;1024;224;1024;1024;1024;1;4;0;0.0166973;0.231046;-0.0161349;0.115035; 
427;430;2019/10/22 18:37:18;0;491.833;170.417;5.32163;499.011;167.624;0;21;1;-0.64435;-1.65124;-3.68238;-0.587971;-1.68292;-3.6938;-2.42149;0.796779;-0.787239;5.25115;3.66114;6.23016;491.833;170.417;5.32163;485.146;161.651;6;0;1;-0.469196;-1.50859;-3.43598;-0.425848;-1.50296;-3.4317;-1.1167;-0.259414;-0.760597;-3.47615;-4.0315;-2.4998;1;-0.0663585;-0.0743358;-0.222111;-0.521612;-1.60859;-3.47168;-10.5271;9.00521;-10.5271;647.851;614;1002;1071;1024;224;1024;1024;1024;1;4;0;0.0166982;-0.199076;-0.10407;-0.555279; 
428;431;2019/10/22 18:37:18;0;495.586;169.207;5.24144;501.972;166.51;0;22;1;-0.689937;-1.66691;-3.74509;-0.618561;-1.67812;-3.70918;-2.26162;0.728311;-0.736563;6.41564;3.03212;6.85474;484;174;5.69936;485.833;168.911;0;1;1;-0.533062;-1.56794;-3.42098;-0.458012;-1.52245;-3.42848;-0.929585;-0.257377;-0.599017;-2.29203;-3.081;-1.76451;1;-0.0258497;-0.0101751;-0.247577;-0.592711;-1.66794;-3.46161;-9.86706;9.28285;-9.86706;647.851;614;1012;1061;1024;224;1024;1024;1024;1;4;0;0.0166975;-0.0775491;-0.0142452;-0.618943; 
429;432;2019/10/22 18:37:18;0;497.085;168.458;5.22967;504.419;165.535;0;23;1;-0.705791;-1.6647;-3.75747;-0.64473;-1.6741;-3.72367;-2.11731;0.60516;-0.791237;7.30886;1.63652;6.18441;483.333;175.333;5.70917;486.088;171.6;0;2;1;-0.52632;-1.57496;-3.40866;-0.478505;-1.53821;-3.42253;-0.814725;-0.242756;-0.391365;-1.21534;-2.19566;-0.549604;1;-0.0520188;-0.0061506;-0.262064;-0.592711;-1.66794;-3.46161;-9.40649;7.75515;-9.40649;647.851;646;1033;1051;1024;224;1024;1024;1024;1;4;0;0.0166982;-0.156056;-0.00861084;-0.655161; 
430;433;2019/10/22 18:37:18;0;498.805;167.748;5.09704;506.566;164.672;0;24;1;-0.740995;-1.70224;-3.85908;-0.673609;-1.68254;-3.76429;-1.98795;0.454502;-0.928585;7.93696;-0.087317;4.67215;484;176;5.74537;486.63;173.186;0;3;1;-0.528794;-1.56986;-3.38398;-0.493591;-1.5477;-3.41097;-0.734413;-0.239533;-0.215459;-0.0985875;-1.33885;1.01872;1;-0.0874351;-0.0126758;-0.352752;-0.586174;-1.66986;-3.41154;-10.6109;5.67783;-10.6109;647.851;694;988;987;1024;224;1024;1024;1024;1;4;0;0.0166973;-0.262305;-0.0177461;-0.881879; 
431;434;2019/10/22 18:37:18;0;499.63;167.21;5.12783;508.213;163.943;0;25;1;-0.74457;-1.68765;-3.83881;-0.694898;-1.68407;-3.78665;-1.84793;0.342057;-0.987064;8.38305;-1.73231;3.11239;483.333;178.667;5.91539;486.785;175.077;0;4;1;-0.507972;-1.54348;-3.27428;-0.497905;-1.54644;-3.36996;-0.66476;-0.252956;-0.0578878;0.786237;-0.84361;2.10251;1;-0.128114;-0.0405869;-0.495116;-0.566783;-1.64348;-3.29153;-10.9726;3.70806;-10.9726;647.851;746;975;943;1024;224;1024;1024;1024;1;4;0;0.0166985;-0.384343;-0.0568217;-1.23779; 
432;435;2019/10/22 18:37:18;0;500.908;166.908;5.0911;509.645;163.385;0;26;1;-0.76247;-1.69736;-3.86814;-0.715169;-1.68806;-3.8111;-1.71307;0.238956;-1.04103;8.60129;-3.1708;1.55769;483.467;180;5.93577;486.936;176.777;0;5;1;-0.507348;-1.54752;-3.25683;-0.500738;-1.54676;-3.33602;-0.585443;-0.244041;0.152592;1.51625;-0.49145;3.1471;1;-0.151292;-0.0405343;-0.549338;-0.563878;-1.64752;-3.26176;-11.0705;2.3687;-11.0705;647.851;792;966;908;1024;224;1024;1024;1024;1;4;0;0.0166973;-0.453875;-0.056748;-1.37335; 
433;436;2019/10/22 18:37:18;0;502;166.385;5.06993;510.867;162.88;0;27;1;-0.776403;-1.70015;-3.88714;-0.733539;-1.69169;-3.83391;-1.60903;0.108394;-1.18402;8.40457;-4.65088;-0.649548;482;181.556;6.02867;486.539;178.461;0;6;1;-0.487391;-1.53441;-3.19953;-0.496734;-1.54306;-3.29508;-0.492773;-0.226472;0.364289;2.15528;-0.229109;4.13383;1;-0.190903;-0.0572807;-0.648776;-0.542637;-1.63441;-3.18513;-11.8227;0.366609;-11.8227;647.851;859;939;861;1024;224;1024;1024;1024;1;4;0;0.0166982;-0.572708;-0.0801929;-1.62194; 
434;437;2019/10/22 18:37:18;0;502.789;165.728;5.00038;511.845;162.368;0;28;1;-0.795076;-1.71834;-3.94483;-0.752;-1.69968;-3.86718;-1.49818;-0.0210519;-1.34124;8.09078;-5.78239;-2.80392;482;182;6.10423;486.219;179.795;0;7;1;-0.481357;-1.51844;-3.15792;-0.492121;-1.53567;-3.25393;-0.431844;-0.188654;0.915486;3.28042;0.136916;8.52701;1;-0.217907;-0.0812438;-0.748253;-0.534093;-1.61844;-3.11893;-12.0404;-1.75231;-12.0404;647.851;918;912;834;1024;224;1024;1024;1024;1;4;0;0.0166973;-0.653721;-0.113741;-1.87063; 
435;438;2019/10/22 18:37:18;0;503.771;165.771;4.99879;512.712;162.073;0;29;1;-0.805137;-1.71925;-3.94585;-0.767941;-1.70555;-3.89078;-1.39083;-0.138228;-1.47195;7.75496;-6.43744;-4.40011;480;184;5.95904;485.306;181.386;0;8;1;-0.476338;-1.56939;-3.2256;-0.487386;-1.54579;-3.24543;-0.294566;-0.143457;1.25639;4.045;0.478606;11.6949;1;-0.245636;-0.0361645;-0.762633;-0.522305;-1.66939;-3.12815;-12.8322;-2.45516;-12.8322;647.851;936;882;834;1024;224;1024;1024;1024;1;4;0;0.0166985;-0.736908;-0.0506303;-1.90658; 
436;439;2019/10/22 18:37:18;0;504.8;165.6;4.94202;513.518;161.865;0;30;1;-0.82477;-1.73756;-3.99213;-0.78499;-1.71515;-3.92119;-1.27919;-0.213161;-1.50957;7.4827;-6.52813;-4.95967;480;185;5.92357;484.604;182.842;0;9;1;-0.47919;-1.5858;-3.24025;-0.484927;-1.55779;-3.24388;-0.142148;-0.126352;1.42096;4.79164;0.739039;13.5504;1;-0.262685;-0.045766;-0.793037;-0.522305;-1.66939;-3.12815;-12.4088;-3.60404;-12.4088;647.851;952;883;834;1024;224;1024;1024;1024;1;4;0;0.0166973;-0.788054;-0.0640724;-1.98259; 
437;440;2019/10/22 18:37:18;0;505;166;4.99039;514.02;161.9;0;31;1;-0.818776;-1.72405;-3.95123;-0.795126;-1.71782;-3.9302;-1.16768;-0.262656;-1.47888;7.20553;-6.33122;-4.93938;479;187;6.21753;483.735;184.521;0;10;1;-0.448508;-1.5242;-3.07818;-0.474002;-1.54771;-3.19417;0.0101479;-0.0809103;1.55444;5.56958;1.13032;14.5675;1;-0.32714;-0.0936222;-1.04672;-0.467986;-1.6242;-2.88348;-15.1147;-5.11845;-15.1147;647.851;969;826;834;1024;224;1024;1024;1024;1;4;0;0.0166982;-0.98142;-0.131071;-2.61681; 
438;441;2019/10/22 18:37:18;0;505.5;166;4.94925;514.403;161.981;0;32;1;-0.830623;-1.73838;-3.98407;-0.805775;-1.72399;-3.94636;-1.06236;-0.301061;-1.42737;6.92132;-5.95477;-4.50613;478;188;6.31196;482.747;186.04;0;11;1;-0.433893;-1.50799;-3.02776;-0.461969;-1.5358;-3.14424;0.160875;-0.00476002;1.69835;6.32144;1.63353;14.912;1;-0.37345;-0.116005;-1.15875;-0.432325;-1.60799;-2.78761;-16.4051;-6.02507;-16.4051;647.851;976;826;834;1024;224;1024;1024;1024;1;4;0;0.0166975;-1.12035;-0.162406;-2.89687; 
439;442;2019/10/22 18:37:18;0;506.5;166;4.93668;514.865;162.094;0;33;1;-0.842846;-1.74281;-3.99421;-0.816896;-1.72964;-3.96072;-0.970219;-0.332151;-1.36271;6.70326;-5.33175;-3.41709;476;190;6.11733;481.356;187.762;0;12;1;-0.431384;-1.56956;-3.11507;-0.452793;-1.54592;-3.13549;0.271959;-0.0143097;1.65616;6.84608;1.82718;14.1051;1;-0.409487;-0.0600779;-1.09874;-0.407409;-1.66956;-2.86197;-17.2945;-5.41138;-17.2945;647.851;961;826;834;1024;224;1024;1024;1024;1;4;0;0.0166982;-1.22846;-0.0841091;-2.74686; 
440;443;2019/10/22 18:37:18;0;507;166;4.89701;515.228;162.226;0;34;1;-0.854768;-1.75692;-4.02657;-0.828258;-1.73782;-3.98047;-0.886592;-0.351565;-1.26993;6.46374;-4.51863;-1.76554;475;193;6.18934;479.996;189.946;0;13;1;-0.418302;-1.57145;-3.06545;-0.442446;-1.55358;-3.11448;0.361504;-0.0800963;1.55046;7.27512;1.52973;10.9982;1;-0.454317;-0.0663742;-1.18517;-0.373941;-1.67145;-2.7953;-18.2773;-5.77835;-18.2773;647.851;954;826;834;1024;224;1024;1024;1024;1;4;0;0.0166973;-1.36295;-0.0929239;-2.96293; 
441;444;2019/10/22 18:37:18;0;507.2;166.4;4.87455;515.43;162.499;0;35;1;-0.860755;-1.76843;-4.04286;-0.838007;-1.747;-3.99919;-0.811695;-0.376435;-1.19476;6.19048;-3.66223;0.0473479;474.667;193.333;6.14868;478.875;191.613;0;14;1;-0.418364;-1.58409;-3.08423;-0.435221;-1.56274;-3.1054;0.425171;-0.11573;1.48934;7.23864;1.02854;7.52894;1;-0.464066;-0.0755571;-1.20389;-0.373941;-1.67145;-2.7953;-17.9578;-6.2688;-17.9578;647.851;950;826;834;1024;224;1024;1024;1024;1;4;0;0.0166985;-1.3922;-0.10578;-3.00972; 
442;445;2019/10/22 18:37:18;0;508;166;4.90702;515.711;162.615;0;36;1;-0.863194;-1.75334;-4.01836;-0.845563;-1.74891;-4.00494;-0.728858;-0.360613;-1.05123;5.91151;-2.78604;1.85833;473;195;6.28665;477.505;193.327;0;15;1;-0.395953;-1.56035;-3.00922;-0.423441;-1.56202;-3.07655;0.500589;-0.0863226;1.56166;6.90934;0.776943;5.07914;1;-0.522234;-0.0885555;-1.25011;-0.323329;-1.66035;-2.75483;-19.5731;-6.29967;-19.5731;647.851;939;826;834;1024;224;1024;1024;1024;1;4;0;0.0166973;-1.5667;-0.123978;-3.12528; 
443;446;2019/10/22 18:37:18;0;508.333;166.333;4.86006;515.905;162.849;0;37;1;-0.874957;-1.77313;-4.05529;-0.854381;-1.75617;-4.02004;-0.673894;-0.369484;-0.989448;5.51837;-2.09814;3.06906;471.333;196.667;6.44679;475.958;195.074;0;16;1;-0.373217;-1.53234;-2.92734;-0.408374;-1.55312;-3.03178;0.562375;-0.0733606;1.58531;6.35039;0.496308;3.17073;1;-0.578502;-0.123834;-1.39636;-0.27588;-1.63234;-2.62368;-20.8024;-7.05707;-20.8024;647.851;940;826;834;1024;224;1024;1024;1024;1;4;0;0.0166982;-1.73551;-0.173368;-3.49091; 
444;447;2019/10/22 18:37:18;0;508.8;166.4;4.85806;516.084;163.081;0;38;1;-0.880111;-1.77443;-4.05658;-0.8621;-1.76165;-4.031;-0.629216;-0.372055;-0.931616;5.04034;-1.54233;3.82076;471;198;6.28956;474.713;196.735;0;17;1;-0.379902;-1.57946;-2.99467;-0.399832;-1.56102;-3.02065;0.585508;-0.144723;1.44464;5.50559;-0.261021;0.889464;1;-0.586221;-0.129313;-1.40733;-0.27588;-1.63234;-2.62368;-20.6518;-7.19021;-20.6518;647.851;934;826;834;1024;224;1024;1024;1024;1;4;0;0.0166975;-1.75866;-0.181038;-3.51831; 
445;448;2019/10/22 18:37:18;0;509;166;4.89897;516.17;163.161;0;39;1;-0.874799;-1.75622;-4.02496;-0.86591;-1.76002;-4.02919;-0.573218;-0.344559;-0.832361;4.60925;-0.974936;4.40989;469;199;6.26573;473.157;198.226;0;18;1;-0.365419;-1.5921;-3.00165;-0.389508;-1.57034;-3.01495;0.603973;-0.184333;1.34804;4.62894;-0.835436;-0.696516;1;-0.59003;-0.127684;-1.40551;-0.27588;-1.63234;-2.62368;-20.3398;-6.8031;-20.3398;647.851;922;826;834;1024;224;1024;1024;1024;1;4;0;0.016698;-1.77009;-0.178757;-3.51378; 
446;449;2019/10/22 18:37:18;0;509;167;4.91126;516.13;163.575;0;40;1;-0.872609;-1.76029;-4.00927;-0.867919;-1.7601;-4.02321;-0.502281;-0.295697;-0.670069;4.29993;-0.361909;5.04089;468;200;6.2719;471.699;199.592;0;19;1;-0.357104;-1.59717;-2.9943;-0.379787;-1.57839;-3.00876;0.612553;-0.209652;1.23092;3.77969;-1.01852;-1.69367;1;-0.59204;-0.127764;-1.39953;-0.27588;-1.63234;-2.62368;-19.8854;-6.16938;-19.8854;647.851;905;826;834;1024;224;1024;1024;1024;1;4;0;0.0166973;-1.77612;-0.17887;-3.49884; 
447;450;2019/10/22 18:37:18;0;509;167;4.88122;516.004;163.911;0;41;1;-0.87798;-1.77113;-4.03394;-0.870938;-1.76341;-4.02643;-0.432846;-0.24292;-0.510821;4.09253;0.315918;5.7552;467;201;6.21265;470.315;200.866;0;20;1;-0.352477;-1.61909;-3.01841;-0.371594;-1.5906;-3.01165;0.621567;-0.237042;1.11285;3.05193;-1.09546;-2.51934;1;-0.595058;-0.131071;-1.40275;-0.27588;-1.63234;-2.62368;-19.4628;-5.54346;-19.4628;647.851;888;826;834;1024;224;1024;1024;1024;1;4;0;0.0166985;-1.78517;-0.1835;-3.50689; 
448;451;2019/10/22 18:37:18;0;507.333;168.667;4.87249;515.286;164.719;0;42;1;-0.862484;-1.78852;-4.03173;-0.868401;-1.77094;-4.02802;-0.35089;-0.233739;-0.398655;3.96457;0.696098;6.05857;466;202;6.4072;468.988;202.072;0;21;1;-0.333987;-1.57642;-2.92246;-0.360312;-1.58635;-2.98489;0.624985;-0.239345;1.03364;2.32781;-1.26822;-3.61976;1;-0.592522;-0.138604;-1.40434;-0.27588;-1.63234;-2.62368;-18.8358;-5.5612;-18.8358;647.851;859;826;836;1024;224;1024;1024;1024;1;4;0;0.0166973;-1.77757;-0.194045;-3.51086; 
449;452;2019/10/22 18:37:18;0;507;169;4.8607;514.571;165.441;0;43;1;-0.861154;-1.79571;-4.03962;-0.866227;-1.77837;-4.0315;-0.25783;-0.228877;-0.284938;4.0399;0.979039;6.44793;464;202;6.51092;467.386;202.909;0;22;1;-0.313338;-1.5513;-2.8759;-0.34622;-1.57583;-2.9522;0.623143;-0.234306;0.937937;1.6393;-1.40352;-4.75652;1;-0.669177;-0.127069;-1.34792;-0.19705;-1.6513;-2.68358;-20.2195;-5.28806;-20.2195;647.851;851;826;922;1024;224;1024;1024;1024;1;4;0;0.0166982;-2.00753;-0.177897;-3.3698; 
450;453;2019/10/22 18:37:18;0;506.5;170;4.83844;513.808;166.312;0;44;1;-0.859959;-1.81256;-4.0525;-0.864347;-1.78863;-4.0378;-0.163667;-0.245038;-0.198092;4.28266;1.09455;6.79739;464;203;6.28616;466.226;203.797;0;23;1;-0.324542;-1.61338;-2.97434;-0.339716;-1.5871;-2.95884;0.613901;-0.244706;0.809539;1.09694;-1.2413;-5.38957;1;-0.667296;-0.137326;-1.35422;-0.19705;-1.6513;-2.68358;-19.5209;-5.68483;-19.5209;647.851;855;826;927;1024;224;1024;1024;1024;1;4;0;0.0166975;-2.00189;-0.192256;-3.38555; 
451;454;2019/10/22 18:37:18;0;505;171;4.85031;512.699;167.287;0;45;1;-0.842422;-1.8167;-4.03689;-0.857769;-1.79705;-4.03753;-0.0656992;-0.294857;-0.152135;4.59588;0.855164;6.79426;462;204;6.42364;464.751;204.722;0;24;1;-0.302059;-1.58533;-2.90639;-0.328419;-1.58657;-2.9431;0.612241;-0.211593;0.772573;0.691172;-0.853615;-5.5313;1;-0.660719;-0.145746;-1.35395;-0.19705;-1.6513;-2.68358;-18.697;-6.48572;-18.697;647.851;868;826;929;1024;224;1024;1024;1024;1;4;0;0.0166982;-1.98216;-0.204045;-3.38487; 
452;455;2019/10/22 18:37:18;0;503;173;4.80577;511.182;168.655;0;46;1;-0.829463;-1.85084;-4.06282;-0.849277;-1.81319;-4.04511;0.0350091;-0.388851;-0.178722;4.90268;0.141182;6.03827;461;204;6.46426;463.368;205.355;0;25;1;-0.292442;-1.57537;-2.88812;-0.317626;-1.58321;-2.92661;0.615523;-0.146183;0.791512;0.426561;-0.258767;-5.07313;1;-0.652227;-0.161883;-1.36154;-0.19705;-1.6513;-2.68358;-17.8137;-8.00133;-17.8137;647.851;898;826;923;1024;224;1024;1024;1024;1;4;0;0.0166975;-1.95668;-0.226636;-3.40384; 
453;456;2019/10/22 18:37:18;0;501.5;174;4.85135;509.536;169.985;0;47;1;-0.806241;-1.84202;-4.01896;-0.836367;-1.82184;-4.03727;0.159031;-0.466579;-0.150495;5.30469;-0.808255;5.06158;460;205;6.43927;462.055;206.095;0;26;1;-0.285828;-1.58793;-2.89505;-0.308087;-1.58462;-2.91714;0.62287;-0.0638539;0.852249;0.261139;0.536199;-4.08433;1;-0.639316;-0.170532;-1.35369;-0.19705;-1.6513;-2.68358;-16.6744;-9.16922;-16.6744;647.851;925;826;919;1024;224;1024;1024;1024;1;4;0;0.0166982;-1.91795;-0.238745;-3.38422; 
454;457;2019/10/22 18:37:18;0;499.667;175.667;4.81855;507.695;171.496;0;48;1;-0.792745;-1.86894;-4.03678;-0.82328;-1.83597;-4.03712;0.275567;-0.53956;-0.126629;5.68397;-1.70595;4.12302;458;206;6.46908;460.476;206.912;0;27;1;-0.269083;-1.58705;-2.87744;-0.296386;-1.58535;-2.90523;0.628949;-0.0343444;0.829406;0.172512;1.14019;-3.266;1;-0.62623;-0.184664;-1.35354;-0.19705;-1.6513;-2.68358;-15.5839;-10.3752;-15.5839;647.851;945;842;914;1024;224;1024;1024;1024;1;4;0;0.0166973;-1.87869;-0.258529;-3.38386; 
455;458;2019/10/22 18:37:18;0;497.75;177.75;4.82165;505.693;173.27;0;49;1;-0.772399;-1.8857;-4.02226;-0.808016;-1.85089;-4.03266;0.397751;-0.613252;-0.0806168;6.0278;-2.5582;3.28957;458;206;6.46908;460.135;207.759;1;0;1;-0.269083;-1.58705;-2.87744;-0.296386;-1.58535;-2.90523;0.628949;-0.0343444;0.829406;0.172512;1.14019;-3.266;1;-0.610966;-0.199584;-1.34908;-0.19705;-1.6513;-2.68358;-14.408;-11.6047;-14.408;647.851;961;866;911;1024;224;1024;1024;1024;1;4;0;0.0166985;-1.8329;-0.279417;-3.37271; 
456;459;2019/10/22 18:37:18;0;494.8;179.6;4.77907;503.25;175.154;0;50;1;-0.748479;-1.9186;-4.04741;-0.790155;-1.8712;-4.03709;0.534865;-0.697616;-0.0455277;6.40559;-3.34185;2.58286;457;208;6.45878;458.583;208.699;0;1;1;-0.261787;-1.60245;-2.87348;-0.286006;-1.59048;-2.89571;0.583433;-0.0707342;0.690963;-0.0323878;1.24389;-2.80479;1;-0.593104;-0.219896;-1.35351;-0.19705;-1.6513;-2.68358;-13.0731;-13.0711;-13.0731;647.851;978;894;908;1024;224;1024;1024;1024;1;4;0;0.0166973;-1.77931;-0.307855;-3.38377; 
457;460;2019/10/22 18:37:18;0;492;181.429;4.84241;500.541;177.109;0;51;1;-0.709835;-1.9092;-3.98405;-0.766059;-1.8826;-4.02118;0.687075;-0.76013;0.0379622;6.84883;-3.86273;2.30868;456;209;6.43979;457.279;209.656;0;2;1;-0.25481;-1.61363;-2.87767;-0.276647;-1.59743;-2.8903;0.565892;-0.0777822;0.649144;-0.183724;1.31757;-2.23177;1;-0.569009;-0.231296;-1.3376;-0.19705;-1.6513;-2.68358;-11.5017;-14.0913;-11.5017;647.851;1003;926;910;1024;224;1024;1024;1024;1;4;0;0.0166985;-1.70703;-0.323815;-3.34399; 
458;461;2019/10/22 18:37:18;0;489;184;4.86078;497.583;179.348;0;52;1;-0.676356;-1.92398;-3.9544;-0.739148;-1.89502;-4.00114;0.851941;-0.782779;0.198333;7.37093;-3.89041;2.89061;455;211;6.50749;456.08;210.963;0;3;1;-0.244491;-1.60962;-2.83925;-0.267;-1.60108;-2.87498;0.549723;-0.0963506;0.622607;-0.324182;1.18492;-1.85227;1;-0.542098;-0.243711;-1.31756;-0.19705;-1.6513;-2.68358;-9.78246;-14.6117;-9.78246;647.851;1006;962;920;1024;224;1024;1024;1024;1;4;0;0.0166973;-1.62629;-0.341195;-3.29391; 
459;462;2019/10/22 18:37:18;0;485.667;186.333;4.83232;494.345;181.713;0;53;1;-0.645918;-1.95539;-3.96437;-0.711179;-1.91313;-3.99011;1.01098;-0.834146;0.307281;7.82399;-3.80177;3.56205;454;212;6.39972;454.932;212.177;0;4;1;-0.240811;-1.64322;-2.88276;-0.259143;-1.61373;-2.87732;0.529971;-0.162254;0.542259;-0.487283;0.655957;-1.96434;1;-0.514129;-0.261823;-1.30653;-0.19705;-1.6513;-2.68358;-8.08183;-15.6091;-8.08183;647.851;1013;996;929;1024;224;1024;1024;1024;1;4;0;0.0166982;-1.54239;-0.366552;-3.26633; 
460;463;2019/10/22 18:37:18;0;482.25;188.25;4.89809;490.883;184.032;0;54;1;-0.602437;-1.9454;-3.90033;-0.678556;-1.92281;-3.96318;1.1844;-0.847204;0.479592;8.32294;-3.50934;4.55758;452.667;213.333;6.48389;453.704;213.441;0;5;1;-0.227423;-1.63044;-2.83966;-0.249627;-1.61874;-2.86602;0.51804;-0.214104;0.500307;-0.651115;-0.120608;-2.38302;1;-0.481506;-0.271505;-1.2796;-0.19705;-1.6513;-2.68358;-6.18282;-15.955;-6.18282;647.851;1008;1034;943;1024;224;1024;1024;1024;1;4;0;0.0166975;-1.44452;-0.380107;-3.199; 
461;464;2019/10/22 18:37:19;0;478.25;190.25;4.89914;491.112;184.357;1;0;1;-0.602437;-1.9454;-3.90033;-0.678556;-1.92281;-3.96318;1.1844;-0.847204;0.479592;8.32294;-3.50934;4.55758;452;215;6.50415;452.63;214.847;0;6;1;-0.2216;-1.63602;-2.82374;-0.241219;-1.62392;-2.85334;0.499611;-0.260463;0.477779;-0.833283;-0.846178;-2.63313;1;-0.481506;-0.271505;-1.2796;-0.19705;-1.6513;-2.68358;-6.18282;-15.955;-6.18282;647.851;1008;1034;943;1024;224;1024;1024;1024;1;4;0;0.0166975;-1.44452;-0.380107;-3.199; 
462;465;2019/10/22 18:37:19;0;474;192.571;4.91299;491.341;184.682;2;0;1;-0.602437;-1.9454;-3.90033;-0.678556;-1.92281;-3.96318;1.1844;-0.847204;0.479592;8.32294;-3.50934;4.55758;450;216;6.5093;451.237;216.144;0;7;1;-0.206093;-1.64111;-2.81727;-0.230682;-1.62908;-2.84252;0.520651;-0.310385;0.499036;-0.750627;-1.46452;-2.34615;1;-0.481506;-0.271505;-1.2796;-0.19705;-1.6513;-2.68358;-6.18282;-15.955;-6.18282;647.851;1008;1034;943;1024;224;1024;1024;1024;1;4;0;0.0166975;-1.44452;-0.380107;-3.199; 
463;466;2019/10/22 18:37:19;0;470;195.429;4.87185;491.57;185.007;3;0;1;-0.602437;-1.9454;-3.90033;-0.678556;-1.92281;-3.96318;1.1844;-0.847204;0.479592;8.32294;-3.50934;4.55758;450;217;6.48018;450.254;217.361;0;8;1;-0.20702;-1.6549;-2.82567;-0.223583;-1.63683;-2.83746;0.524251;-0.34354;0.51036;-0.616632;-1.93976;-1.96179;1;-0.481506;-0.271505;-1.2796;-0.19705;-1.6513;-2.68358;-6.18282;-15.955;-6.18282;647.851;1008;1034;943;1024;224;1024;1024;1024;1;4;0;0.0166975;-1.44452;-0.380107;-3.199; 
464;467;2019/10/22 18:37:19;0;466;197.429;4.94538;491.799;185.331;4;0;1;-0.602437;-1.9454;-3.90033;-0.678556;-1.92281;-3.96318;1.1844;-0.847204;0.479592;8.32294;-3.50934;4.55758;449;218;6.51386;449.249;218.52;0;9;1;-0.198289;-1.65273;-2.80683;-0.215995;-1.6416;-2.82827;0.518192;-0.367871;0.492714;-0.495868;-2.24791;-1.69568;1;-0.481506;-0.271505;-1.2796;-0.19705;-1.6513;-2.68358;-6.18282;-15.955;-6.18282;647.851;1008;1034;943;1024;224;1024;1024;1024;1;4;0;0.0166975;-1.44452;-0.380107;-3.199; 
465;468;2019/10/22 18:37:19;0;461.75;199.75;5.03179;492.028;185.656;5;0;1;-0.602437;-1.9454;-3.90033;-0.678556;-1.92281;-3.96318;1.1844;-0.847204;0.479592;8.32294;-3.50934;4.55758;447.333;218.667;6.51593;448.015;219.531;0;10;1;-0.185462;-1.65646;-2.80311;-0.206835;-1.64605;-2.82072;0.519758;-0.349795;0.521571;-0.338296;-2.09751;-1.1;1;-0.481506;-0.271505;-1.2796;-0.19705;-1.6513;-2.68358;-6.18282;-15.955;-6.18282;647.851;1008;1034;943;1024;224;1024;1024;1024;1;4;0;0.0166975;-1.44452;-0.380107;-3.199; 
466;469;2019/10/22 18:37:19;0;457;202;5.04967;492.257;185.981;6;0;1;-0.602437;-1.9454;-3.90033;-0.678556;-1.92281;-3.96318;1.1844;-0.847204;0.479592;8.32294;-3.50934;4.55758;447;219;6.4448;447.042;220.328;0;11;1;-0.184928;-1.67689;-2.83262;-0.200263;-1.6553;-2.82429;0.508944;-0.355858;0.479535;-0.239293;-1.82447;-0.742935;1;-0.481506;-0.271505;-1.2796;-0.19705;-1.6513;-2.68358;-6.18282;-15.955;-6.18282;647.851;1008;1034;943;1024;224;1024;1024;1024;1;4;0;0.0166975;-1.44452;-0.380107;-3.199; 
467;470;2019/10/22 18:37:19;0;452;204;5.09854;492.485;186.306;7;0;1;-0.602437;-1.9454;-3.90033;-0.678556;-1.92281;-3.96318;1.1844;-0.847204;0.479592;8.32294;-3.50934;4.55758;452;204;5.09854;446.379;221.287;1;0;1;-0.184928;-1.67689;-2.83262;-0.200263;-1.6553;-2.82429;0.508944;-0.355858;0.479535;-0.239293;-1.82447;-0.742935;1;-0.481506;-0.271505;-1.2796;-0.19705;-1.6513;-2.68358;-6.18282;-15.955;-6.18282;647.851;1008;1034;943;1024;224;1024;1024;1024;1;4;0;0.0166975;-1.44452;-0.380107;-3.199; 
468;471;2019/10/22 18:37:19;0;447.75;205.75;5.14754;492.714;186.631;8;0;1;-0.602437;-1.9454;-3.90033;-0.678556;-1.92281;-3.96318;1.1844;-0.847204;0.479592;8.32294;-3.50934;4.55758;447.75;205.75;5.14754;445.716;222.246;2;0;1;-0.184928;-1.67689;-2.83262;-0.200263;-1.6553;-2.82429;0.508944;-0.355858;0.479535;-0.239293;-1.82447;-0.742935;1;-0.481506;-0.271505;-1.2796;-0.19705;-1.6513;-2.68358;-6.18282;-15.955;-6.18282;647.851;1008;1034;943;1024;224;1024;1024;1024;1;4;0;0.0166975;-1.44452;-0.380107;-3.199; 
469;472;2019/10/22 18:37:19;0;442.333;207.667;5.29176;492.943;186.955;9;0;1;-0.602437;-1.9454;-3.90033;-0.678556;-1.92281;-3.96318;1.1844;-0.847204;0.479592;8.32294;-3.50934;4.55758;442.333;207.667;5.29176;445.053;223.205;3;0;1;-0.184928;-1.67689;-2.83262;-0.200263;-1.6553;-2.82429;0.508944;-0.355858;0.479535;-0.239293;-1.82447;-0.742935;1;-0.481506;-0.271505;-1.2796;-0.19705;-1.6513;-2.68358;-6.18282;-15.955;-6.18282;647.851;1008;1034;943;1024;224;1024;1024;1024;1;4;0;0.0166975;-1.44452;-0.380107;-3.199; 
470;473;2019/10/22 18:37:19;0;438;209;5.34348;-1;-1;10;0;0;0;0;0;0;0;0;0;0;0;0;0;0;438;209;5.34348;444.39;224.164;4;0;1;-0.184928;-1.67689;-2.83262;-0.200263;-1.6553;-2.82429;0.508944;-0.355858;0.479535;-0.239293;-1.82447;-0.742935;0;-0.481506;-0.271505;-1.2796;-0.19705;-1.6513;-2.68358;-6.18282;-15.955;-6.18282;647.851;224;1024;1024;1024;224;1024;1024;1024;1;4;0;0;-1.44452;-0.380107;-3.199; 
471;474;2019/10/22 18:37:19;0;438;209;5.34348;-1;-1;11;0;0;0;0;0;0;0;0;0;0;0;0;0;0;433.333;210.222;5.43573;443.727;225.123;5;0;1;-0.184928;-1.67689;-2.83262;-0.200263;-1.6553;-2.82429;0.508944;-0.355858;0.479535;-0.239293;-1.82447;-0.742935;0;-0.481506;-0.271505;-1.2796;-0.19705;-1.6513;-2.68358;-6.18282;-15.955;-6.18282;647.851;224;1024;1024;1024;224;1024;1024;1024;1;4;0;0;-1.44452;-0.380107;-3.199; 
472;475;2019/10/22 18:37:19;0;-1;-1;-1;-1;-1;11;0;0;0;0;0;0;0;0;0;0;0;0;0;0;428.667;212.222;5.48698;443.064;226.082;6;0;1;-0.184928;-1.67689;-2.83262;-0.200263;-1.6553;-2.82429;0.508944;-0.355858;0.479535;-0.239293;-1.82447;-0.742935;0;-0.481506;-0.271505;-1.2796;-0.19705;-1.6513;-2.68358;-6.18282;-15.955;-6.18282;647.851;224;1024;1024;1024;224;1024;1024;1024;1;4;0;0;-1.44452;-0.380107;-3.199; 
473;476;2019/10/22 18:37:19;0;-1;-1;-1;-1;-1;11;0;0;0;0;0;0;0;0;0;0;0;0;0;0;424;213;5.50147;442.401;227.041;7;0;1;-0.184928;-1.67689;-2.83262;-0.200263;-1.6553;-2.82429;0.508944;-0.355858;0.479535;-0.239293;-1.82447;-0.742935;0;-0.481506;-0.271505;-1.2796;-0.19705;-1.6513;-2.68358;-6.18282;-15.955;-6.18282;647.851;224;1024;1024;1024;224;1024;1024;1024;1;4;0;0;-1.44452;-0.380107;-3.199; 
474;477;2019/10/22 18:37:19;0;-1;-1;-1;-1;-1;11;0;0;0;0;0;0;0;0;0;0;0;0;0;0;419.333;214.222;5.50518;441.738;228;8;0;1;-0.184928;-1.67689;-2.83262;-0.200263;-1.6553;-2.82429;0.508944;-0.355858;0.479535;-0.239293;-1.82447;-0.742935;0;-0.481506;-0.271505;-1.2796;-0.19705;-1.6513;-2.68358;-6.18282;-15.955;-6.18282;647.851;224;1024;1024;1024;224;1024;1024;1024;1;4;0;0;-1.44452;-0.380107;-3.199; 
475;478;2019/10/22 18:37:19;0;-1;-1;-1;-1;-1;11;0;0;0;0;0;0;0;0;0;0;0;0;0;0;414.4;216;5.54606;441.075;228.959;9;0;1;-0.184928;-1.67689;-2.83262;-0.200263;-1.6553;-2.82429;0.508944;-0.355858;0.479535;-0.239293;-1.82447;-0.742935;0;-0.481506;-0.271505;-1.2796;-0.19705;-1.6513;-2.68358;-6.18282;-15.955;-6.18282;647.851;224;1024;1024;1024;224;1024;1024;1024;1;4;0;0;-1.44452;-0.380107;-3.199; 
476;479;2019/10/22 18:37:19;0;-1;-1;-1;-1;-1;11;0;0;0;0;0;0;0;0;0;0;0;0;0;0;409.75;217.75;5.56074;-1;-1;10;0;0;0;0;0;0;0;0;0;0;0;0;0;0;0;-0.481506;-0.271505;-1.2796;-0.19705;-1.6513;-2.68358;-6.18282;-15.955;-6.18282;647.851;224;1024;1024;1024;224;1024;1024;1024;1;4;0;0;-1.44452;-0.380107;-3.199; 
477;480;2019/10/22 18:37:19;0;-1;-1;-1;-1;-1;11;0;0;0;0;0;0;0;0;0;0;0;0;0;0;435.333;230.667;6.62201;435.333;230.667;0;1;1;-0.0920658;-1.70526;-2.7082;-0.0920658;-1.70526;-2.7082;0;0;0;0;0;0;0;-0.481506;-0.271505;-1.2796;-0.19705;-1.6513;-2.68358;-6.18282;-15.955;-6.18282;647.851;224;1024;1024;1024;224;1024;1024;1024;1;4;0;0;-1.44452;-0.380107;-3.199; 
478;481;2019/10/22 18:37:19;0;-1;-1;-1;-1;-1;11;0;0;0;0;0;0;0;0;0;0;0;0;0;0;435;231;6.57875;435.303;230.697;0;2;1;-0.0901428;-1.71858;-2.72461;-0.0914889;-1.70926;-2.71313;0;0;0;0;0;0;0;-0.481506;-0.271505;-1.2796;-0.19705;-1.6513;-2.68358;-6.18282;-15.955;-6.18282;647.851;224;1024;1024;1024;224;1024;1024;1024;1;4;0;0;-1.44452;-0.380107;-3.199; 
479;482;2019/10/22 18:37:19;0;-1;-1;-1;-1;-1;11;0;0;0;0;0;0;0;0;0;0;0;0;0;0;434;231;6.86754;435.094;230.746;0;3;1;-0.0790861;-1.64631;-2.61004;-0.0877681;-1.69037;-2.6822;0;0;0;0;0;0;0;-0.481506;-0.271505;-1.2796;-0.19705;-1.6513;-2.68358;-6.18282;-15.955;-6.18282;647.851;224;1024;1024;1024;224;1024;1024;1024;1;4;0;0;-1.44452;-0.380107;-3.199; 
480;483;2019/10/22 18:37:19;0;-1;-1;-1;-1;-1;11;0;0;0;0;0;0;0;0;0;0;0;0;0;0;434;232;6.68381;434.866;231.007;0;4;1;-0.0812601;-1.69779;-2.67766;-0.0858157;-1.6926;-2.68084;0;0;0;0;0;0;0;-0.481506;-0.271505;-1.2796;-0.19705;-1.6513;-2.68358;-6.18282;-15.955;-6.18282;647.851;224;1024;1024;1024;224;1024;1024;1024;1;4;0;0;-1.44452;-0.380107;-3.199; 
481;484;2019/10/22 18:37:19;0;-1;-1;-1;-1;-1;11;0;0;0;0;0;0;0;0;0;0;0;0;0;0;434;231;6.58371;434.659;231.006;0;5;1;-0.0824957;-1.71729;-2.72256;-0.0848197;-1.70001;-2.69335;0;0;0;0;0;0;0;-0.481506;-0.271505;-1.2796;-0.248141;-1.40465;-1.56892;-6.18282;-15.955;-6.18282;647.851;224;1024;1024;1024;224;1024;1024;1024;1;4;0;0;-1.44452;-0.380107;-3.199; 
482;485;2019/10/22 18:37:19;0;-1;-1;-1;-1;-1;11;0;0;0;0;0;0;0;0;0;0;0;0;0;0;432.667;231.333;6.91006;434.149;231.09;0;6;1;-0.0689711;-1.63819;-2.59265;-0.0800651;-1.68146;-2.66314;0;0;0;0;0;0;0;-0.481506;-0.271505;-1.2796;-0.248141;-1.40465;-1.56892;-6.18282;-15.955;-6.18282;647.851;224;1024;1024;1024;224;1024;1024;1024;1;4;0;0;-1.44452;-0.380107;-3.199; 
483;486;2019/10/22 18:37:19;0;-1;-1;-1;-1;-1;11;0;0;0;0;0;0;0;0;0;0;0;0;0;0;432.667;231.333;6.91006;434.144;231.092;1;0;1;-0.0689711;-1.63819;-2.59265;-0.0800651;-1.68146;-2.66314;0;0;0;0;0;0;0;-0.481506;-0.271505;-1.2796;-0.248141;-1.40465;-1.56892;-6.18282;-15.955;-6.18282;647.851;224;1024;1024;1024;224;1024;1024;1024;1;4;0;0;-1.44452;-0.380107;-3.199; 
484;487;2019/10/22 18:37:19;0;-1;-1;-1;-1;-1;11;0;0;0;0;0;0;0;0;0;0;0;0;0;0;432;232;6.63313;433.45;231.385;0;1;1;-0.0668354;-1.71076;-2.69812;-0.0760962;-1.69025;-2.67364;0;0;0;0;0;0;0;-0.481506;-0.271505;-1.2796;-0.248141;-1.40465;-1.56892;-6.18282;-15.955;-6.18282;647.851;224;1024;1024;1024;224;1024;1024;1024;1;4;0;0;-1.44452;-0.380107;-3.199; 
485;488;2019/10/22 18:37:19;0;-1;-1;-1;-1;-1;11;0;0;0;0;0;0;0;0;0;0;0;0;0;0;431;232;6.7083;432.697;231.575;0;2;1;-0.058648;-1.69159;-2.66788;-0.0708617;-1.69065;-2.67191;0.176473;0.159173;0.35262;1.21421;3.40918;5.53915;0;-0.481506;-0.271505;-1.2796;-0.248141;-1.40465;-1.56892;-6.18282;-15.955;-6.18282;647.851;224;1024;1024;1024;224;1024;1024;1024;1;4;0;0;-1.44452;-0.380107;-3.199; 
486;489;2019/10/22 18:37:19;0;-1;-1;-1;-1;-1;11;0;0;0;0;0;0;0;0;0;0;0;0;0;0;430;232;6.61766;431.883;231.707;0;3;1;-0.0519108;-1.71476;-2.70442;-0.0651765;-1.69788;-2.68166;0.183197;0.0698017;0.213406;0.592897;-1.58564;-2.2843;0;-0.481506;-0.271505;-1.2796;-0.248141;-1.40465;-1.56892;-6.18282;-15.955;-6.18282;647.851;224;1024;1024;1024;224;1024;1024;1024;1;4;0;0;-1.44452;-0.380107;-3.199; 
487;490;2019/10/22 18:37:19;0;-1;-1;-1;-1;-1;11;0;0;0;0;0;0;0;0;0;0;0;0;0;0;430;232;6.64325;431.303;231.8;0;4;1;-0.0517109;-1.70815;-2.694;-0.0611368;-1.70097;-2.68537;0.194373;0.0132476;0.112544;0.62077;-0.450248;-1.26479;0;-0.481506;-0.271505;-1.2796;-0.248141;-1.40465;-1.56892;-6.18282;-15.955;-6.18282;647.851;224;1024;1024;1024;224;1024;1024;1024;1;4;0;0;-1.44452;-0.380107;-3.199; 
488;491;2019/10/22 18:37:19;0;-1;-1;-1;-1;-1;11;0;0;0;0;0;0;0;0;0;0;0;0;0;0;428;233;6.757;430.304;232.158;0;5;1;-0.0360706;-1.68555;-2.64457;-0.0536169;-1.69634;-2.67313;0.223405;0.0204879;0.136747;0.932875;1.31799;2.2745;0;-0.481506;-0.271505;-1.2796;-0.248141;-1.40465;-1.56892;-6.18282;-15.955;-6.18282;647.851;224;1024;1024;1024;224;1024;1024;1024;1;4;0;0;-1.44452;-0.380107;-3.199; 
489;492;2019/10/22 18:37:19;0;-1;-1;-1;-1;-1;11;0;0;0;0;0;0;0;0;0;0;0;0;0;0;428;234;6.74674;429.576;232.709;0;6;1;-0.0361254;-1.69428;-2.6445;-0.0483695;-1.69572;-2.66454;0.242511;-0.0365127;0.0772676;0.415167;-3.13497;-4.56275;0;-0.481506;-0.271505;-1.2796;-0.248141;-1.40465;-1.56892;-6.18282;-15.955;-6.18282;647.851;224;1024;1024;1024;224;1024;1024;1024;1;4;0;0;-1.44452;-0.380107;-3.199; 
490;493;2019/10/22 18:37:19;0;-1;-1;-1;-1;-1;11;0;0;0;0;0;0;0;0;0;0;0;0;0;0;427;234;6.73606;428.752;233.113;0;7;1;-0.0287749;-1.69696;-2.6487;-0.0424911;-1.69609;-2.65979;0.279676;-0.0452404;0.101652;0.891222;-1.01071;-1.0774;0;-0.481506;-0.271505;-1.2796;-0.248141;-1.40465;-1.56892;-6.18282;-15.955;-6.18282;647.851;224;1024;1024;1024;224;1024;1024;1024;1;4;0;0;-1.44452;-0.380107;-3.199; 
491;494;2019/10/22 18:37:19;0;-1;-1;-1;-1;-1;11;0;0;0;0;0;0;0;0;0;0;0;0;0;0;426;236;6.90139;427.855;233.996;0;8;1;-0.0208551;-1.66836;-2.57724;-0.0360003;-1.68777;-2.63502;0.306991;-0.015651;0.208258;1.05583;-1.30442;-1.22281;0;-0.481506;-0.271505;-1.2796;-0.248141;-1.40465;-1.56892;-6.18282;-15.955;-6.18282;647.851;224;1024;1024;1024;224;1024;1024;1024;1;4;0;0;-1.44452;-0.380107;-3.199; 
492;495;2019/10/22 18:37:19;0;-1;-1;-1;-1;-1;11;0;0;0;0;0;0;0;0;0;0;0;0;0;0;425;236;6.81169;426.904;234.644;0;9;1;-0.0138042;-1.69033;-2.61119;-0.0293414;-1.68854;-2.62787;0.327267;0.0279141;0.339716;1.2087;-0.949888;-0.229386;0;-0.481506;-0.271505;-1.2796;-0.248141;-1.40465;-1.56892;-6.18282;-15.955;-6.18282;647.851;224;1024;1024;1024;224;1024;1024;1024;1;4;0;0;-1.44452;-0.380107;-3.199; 
493;496;2019/10/22 18:37:19;0;-1;-1;-1;-1;-1;11;0;0;0;0;0;0;0;0;0;0;0;0;0;0;424;236;6.85446;425.911;235.117;0;10;1;-0.00643811;-1.67978;-2.59489;-0.0224705;-1.68591;-2.61798;0.350736;0.0768433;0.472875;1.3495;-0.316025;1.301;0;-0.481506;-0.271505;-1.2796;-0.248141;-1.40465;-1.56892;-6.18282;-15.955;-6.18282;647.851;224;1024;1024;1024;224;1024;1024;1024;1;4;0;0;-1.44452;-0.380107;-3.199; 
494;497;2019/10/22 18:37:19;0;-1;-1;-1;-1;-1;11;0;0;0;0;0;0;0;0;0;0;0;0;0;0;423;237;6.8319;424.888;235.762;0;11;1;0.000844563;-1.69142;-2.59942;-0.0154759;-1.68756;-2.61241;0.362721;0.081149;0.526135;1.36592;0.0525763;2.33524;0;-0.481506;-0.271505;-1.2796;-0.248141;-1.40465;-1.56892;-6.18282;-15.955;-6.18282;647.851;224;1024;1024;1024;224;1024;1024;1024;1;4;0;0;-1.44452;-0.380107;-3.199; 
495;498;2019/10/22 18:37:19;0;-1;-1;-1;-1;-1;11;0;0;0;0;0;0;0;0;0;0;0;0;0;0;421;237;7.12183;423.541;236.232;0;12;1;0.0148234;-1.62256;-2.4936;-0.00638615;-1.66806;-2.57677;0.385252;0.159122;0.666112;1.38945;0.812623;3.75212;0;-0.481506;-0.271505;-1.2796;-0.248141;-1.40465;-1.56892;-6.18282;-15.955;-6.18282;647.851;224;1024;1024;1024;224;1024;1024;1024;1;4;0;0;-1.44452;-0.380107;-3.199; 
496;499;2019/10/22 18:37:19;0;-1;-1;-1;-1;-1;11;0;0;0;0;0;0;0;0;0;0;0;0;0;0;420.667;237.333;6.96354;422.46;236.673;0;13;1;0.017549;-1.66143;-2.54896;0.000794394;-1.66607;-2.56843;0.40397;0.21534;0.764432;1.32992;1.52795;4.89745;0;-0.481506;-0.271505;-1.2796;-0.248141;-1.40465;-1.56892;-6.18282;-15.955;-6.18282;647.851;224;1024;1024;1024;224;1024;1024;1024;1;4;0;0;-1.44452;-0.380107;-3.199; 
497;500;2019/10/22 18:37:19;0;-1;-1;-1;-1;-1;11;0;0;0;0;0;0;0;0;0;0;0;0;0;0;420;237;7.07767;421.473;236.892;0;14;1;0.0219662;-1.63268;-2.50916;0.00714592;-1.65605;-2.55064;0.414645;0.255845;0.795549;1.22776;2.00073;5.28325;0;-0.481506;-0.271505;-1.2796;-0.248141;-1.40465;-1.56892;-6.18282;-15.955;-6.18282;647.851;224;1024;1024;1024;224;1024;1024;1024;1;4;0;0;-1.44452;-0.380107;-3.199; 
498;501;2019/10/22 18:37:19;0;-1;-1;-1;-1;-1;11;0;0;0;0;0;0;0;0;0;0;0;0;0;0;418;237;7.07957;420.15;237.047;0;15;1;0.0360571;-1.63224;-2.50848;0.0158193;-1.64891;-2.538;0.429092;0.311731;0.836165;1.1432;2.33358;5.15203;0;-0.481506;-0.271505;-1.2796;-0.248141;-1.40465;-1.56892;-6.18282;-15.955;-6.18282;647.851;224;1024;1024;1024;224;1024;1024;1024;1;4;0;0;-1.44452;-0.380107;-3.199; 
499;502;2019/10/22 18:37:19;0;-1;-1;-1;-1;-1;11;0;0;0;0;0;0;0;0;0;0;0;0;0;0;417;238;7.4022;418.886;237.462;0;16;1;0.0412267;-1.56672;-2.39542;0.0234415;-1.62425;-2.49522;0.44076;0.433221;0.9918;1.04534;2.823;5.16304;0;-0.481506;-0.271505;-1.2796;-0.248141;-1.40465;-1.56892;-6.18282;-15.955;-6.18282;647.851;224;1024;1024;1024;224;1024;1024;1024;1;4;0;0;-1.44452;-0.380107;-3.199; 
500;503;2019/10/22 18:37:19;0;-1;-1;-1;-1;-1;11;0;0;0;0;0;0;0;0;0;0;0;0;0;0;416;238;6.95346;417.666;237.761;0;17;1;0.0510636;-1.66783;-2.55001;0.0317281;-1.63732;-2.51166;0.45292;0.460515;0.997334;0.987329;3.20843;4.97911;0;-0.481506;-0.271505;-1.2796;-0.248141;-1.40465;-1.56892;-6.18282;-15.955;-6.18282;647.851;224;1024;1024;1024;224;1024;1024;1024;1;4;0;0;-1.44452;-0.380107;-3.199; 
501;504;2019/10/22 18:37:19;0;-1;-1;-1;-1;-1;11;0;0;0;0;0;0;0;0;0;0;0;0;0;0;416;238;7.05843;416.789;237.974;0;18;1;0.0503042;-1.64302;-2.51209;0.0373009;-1.63903;-2.51179;0.446174;0.392205;0.857834;0.835632;2.85565;3.75292;0;-0.481506;-0.271505;-1.2796;-0.248141;-1.40465;-1.56892;-6.18282;-15.955;-6.18282;647.851;224;1024;1024;1024;224;1024;1024;1024;1;4;0;0;-1.44452;-0.380107;-3.199; 
502;505;2019/10/22 18:37:19;0;-1;-1;-1;-1;-1;11;0;0;0;0;0;0;0;0;0;0;0;0;0;0;414;237;7.21076;415.544;237.815;0;19;1;0.0630818;-1.60255;-2.46284;0.0450352;-1.62809;-2.49711;0.444337;0.386979;0.799446;0.662548;2.39866;2.39154;0;-0.481506;-0.271505;-1.2796;-0.248141;-1.40465;-1.56892;-6.18282;-15.955;-6.18282;647.851;224;1024;1024;1024;224;1024;1024;1024;1;4;0;0;-1.44452;-0.380107;-3.199; 
503;506;2019/10/22 18:37:19;0;-1;-1;-1;-1;-1;11;0;0;0;0;0;0;0;0;0;0;0;0;0;0;413;237;7.16279;414.34;237.693;0;20;1;0.0704708;-1.61328;-2.47934;0.0526659;-1.62364;-2.49178;0.448342;0.361585;0.714704;0.532066;1.86137;1.11215;0;-0.481506;-0.271505;-1.2796;-0.248141;-1.40465;-1.56892;-6.18282;-15.955;-6.18282;647.851;224;1024;1024;1024;224;1024;1024;1024;1;4;0;0;-1.44452;-0.380107;-3.199; 
504;507;2019/10/22 18:37:19;0;-1;-1;-1;-1;-1;11;0;0;0;0;0;0;0;0;0;0;0;0;0;0;410.667;236.667;7.46722;412.754;237.495;0;21;1;0.0831904;-1.54565;-2.37949;0.0618232;-1.60025;-2.45809;0.452677;0.411244;0.747849;0.413405;1.51413;0.314685;0;-0.481506;-0.271505;-1.2796;0.240542;-1.64565;-2.12866;-6.18282;-15.955;-6.18282;647.851;224;1024;1024;1024;224;1024;1024;1024;1;4;0;0;-1.44452;-0.380107;-3.199; 
505;508;2019/10/22 18:37:19;0;-1;-1;-1;-1;-1;11;0;0;0;0;0;0;0;0;0;0;0;0;0;0;410;236;7.36419;411.408;237.138;0;22;1;0.0888715;-1.56351;-2.41528;0.0699377;-1.58923;-2.44525;0.45724;0.386587;0.648239;0.313836;0.722297;-1.18284;0;-0.481506;-0.271505;-1.2796;0.251209;-1.66351;-2.14709;-6.18282;-15.955;-6.18282;647.851;224;1024;1024;1024;224;1024;1024;1024;1;4;0;0;-1.44452;-0.380107;-3.199; 
506;509;2019/10/22 18:37:19;0;-1;-1;-1;-1;-1;11;0;0;0;0;0;0;0;0;0;0;0;0;0;0;409;235;7.41724;410.136;236.561;0;23;1;0.0949635;-1.54672;-2.40173;0.0774454;-1.57648;-2.43219;0.456867;0.474886;0.706218;0.20406;0.490756;-1.87196;0;-0.481506;-0.271505;-1.2796;0.254406;-1.64672;-2.17568;-6.18282;-15.955;-6.18282;647.851;224;1024;1024;1024;224;1024;1024;1024;1;4;0;0;-1.44452;-0.380107;-3.199; 
507;510;2019/10/22 18:37:19;0;-1;-1;-1;-1;-1;11;0;0;0;0;0;0;0;0;0;0;0;0;0;0;408;234;7.49357;408.917;235.824;0;24;1;0.100655;-1.52542;-2.38094;0.0844084;-1.56116;-2.41682;0.462194;0.595841;0.8029;0.186393;1.10746;-1.3425;0;-0.481506;-0.271505;-1.2796;0.260386;-1.62542;-2.13403;-6.18282;-15.955;-6.18282;647.851;224;1024;1024;1024;224;1024;1024;1024;1;4;0;0;-1.44452;-0.380107;-3.199; 
508;511;2019/10/22 18:37:19;0;-1;-1;-1;-1;-1;11;0;0;0;0;0;0;0;0;0;0;0;0;0;0;407;233;7.50406;407.74;234.972;0;25;1;0.107164;-1.51775;-2.38129;0.0912351;-1.54814;-2.40616;0.461766;0.676706;0.844836;0.18142;1.82119;-0.624282;0;-0.481506;-0.271505;-1.2796;0.272222;-1.61775;-2.09456;-6.18282;-15.955;-6.18282;647.851;224;1024;1024;1024;224;1024;1024;1024;1;4;0;0;-1.44452;-0.380107;-3.199; 
509;512;2019/10/22 18:37:19;0;-1;-1;-1;-1;-1;11;0;0;0;0;0;0;0;0;0;0;0;0;0;0;408;232;7.49913;407.222;234.036;0;26;1;0.10058;-1.5132;-2.38654;0.0940387;-1.53766;-2.40027;0.442238;0.74933;0.872219;0.0844835;2.64076;0.2543;0;-0.481506;-0.271505;-1.2796;0.267184;-1.6132;-2.08172;-6.18282;-15.955;-6.18282;647.851;224;1024;1024;1024;224;1024;1024;1024;1;4;0;0;-1.44452;-0.380107;-3.199; 
510;513;2019/10/22 18:37:19;0;-1;-1;-1;-1;-1;11;0;0;0;0;0;0;0;0;0;0;0;0;0;0;407.333;230.667;7.51043;406.661;232.936;0;27;1;0.104858;-1.50354;-2.38784;0.0972846;-1.52742;-2.39654;0.40692;0.740346;0.769049;-0.131993;2.89837;0.23722;0;-0.481506;-0.271505;-1.2796;0.264846;-1.60354;-2.0723;-6.18282;-15.955;-6.18282;647.851;224;1024;1024;1024;224;1024;1024;1024;1;4;0;0;-1.44452;-0.380107;-3.199; 
511;514;2019/10/22 18:37:19;0;-1;-1;-1;-1;-1;11;0;0;0;0;0;0;0;0;0;0;0;0;0;0;409;229;7.55873;406.803;231.613;0;28;1;0.0931859;-1.48477;-2.37867;0.096055;-1.51463;-2.39118;0.348426;0.742051;0.677283;-0.513638;3.15822;0.258293;0;-0.481506;-0.271505;-1.2796;0.235362;-1.58477;-2.10997;-6.18282;-15.955;-6.18282;647.851;224;1024;1024;1024;224;1024;1024;1024;1;4;0;0;-1.44452;-0.380107;-3.199; 
512;515;2019/10/22 18:37:19;0;-1;-1;-1;-1;-1;11;0;0;0;0;0;0;0;0;0;0;0;0;0;0;409;227;7.58186;406.931;230.024;0;29;1;0.0929015;-1.46927;-2.37869;0.095109;-1.50102;-2.38744;0.279577;0.74649;0.585056;-1.01601;2.97931;-0.328766;0;-0.481506;-0.271505;-1.2796;0.210906;-1.56927;-2.14931;-6.18282;-15.955;-6.18282;647.851;224;1024;1024;1024;224;1024;1024;1024;1;4;0;0;-1.44452;-0.380107;-3.199; 
513;516;2019/10/22 18:37:19;0;-1;-1;-1;-1;-1;11;0;0;0;0;0;0;0;0;0;0;0;0;0;0;411;225;7.5042;407.68;228.244;0;30;1;0.0805638;-1.4734;-2.41067;0.0907454;-1.49273;-2.3944;0.193047;0.721087;0.440513;-1.68418;2.28764;-1.6441;0;-0.481506;-0.271505;-1.2796;0.173456;-1.5734;-2.21627;-6.18282;-15.955;-6.18282;647.851;224;1024;1024;1024;224;1024;1024;1024;1;4;0;0;-1.44452;-0.380107;-3.199; 
514;517;2019/10/22 18:37:19;0;-1;-1;-1;-1;-1;11;0;0;0;0;0;0;0;0;0;0;0;0;0;0;412;224;7.6899;408.563;226.644;0;31;1;0.0721293;-1.43241;-2.35604;0.0851606;-1.47464;-2.3829;0.0915759;0.726101;0.35719;-2.4885;1.56979;-2.93339;0;-0.481506;-0.271505;-1.2796;0.132142;-1.53241;-2.2191;-6.18282;-15.955;-6.18282;647.851;224;1024;1024;1024;224;1024;1024;1024;1;4;0;0;-1.44452;-0.380107;-3.199; 
515;518;2019/10/22 18:37:19;0;-1;-1;-1;-1;-1;11;0;0;0;0;0;0;0;0;0;0;0;0;0;0;414;222;7.70001;409.857;224.859;0;32;1;0.0590736;-1.41973;-2.36011;0.0773345;-1.45816;-2.37606;-0.0117463;0.753031;0.310983;-3.30564;0.956652;-4.00078;0;-0.481506;-0.271505;-1.2796;0.0867155;-1.51973;-2.2523;-6.18282;-15.955;-6.18282;647.851;224;1024;1024;1024;224;1024;1024;1024;1;4;0;0;-1.44452;-0.380107;-3.199; 
516;519;2019/10/22 18:37:19;0;-1;-1;-1;-1;-1;11;0;0;0;0;0;0;0;0;0;0;0;0;0;0;416;220;7.57072;411.449;222.944;0;33;1;0.0469002;-1.43299;-2.40771;0.0682042;-1.45061;-2.38555;-0.123152;0.75848;0.230466;-4.09971;0.646393;-4.55077;0;-0.481506;-0.271505;-1.2796;0.0433459;-1.53299;-2.31361;-6.18282;-15.955;-6.18282;647.851;224;1024;1024;1024;224;1024;1024;1024;1;4;0;0;-1.44452;-0.380107;-3.199; 
517;520;2019/10/22 18:37:19;0;-1;-1;-1;-1;-1;11;0;0;0;0;0;0;0;0;0;0;0;0;0;0;417;217;7.63426;412.936;220.619;0;34;1;0.0399735;-1.40473;-2.39851;0.059735;-1.43685;-2.38944;-0.2189;0.765623;0.145231;-4.72489;0.48195;-4.85469;0;-0.481506;-0.271505;-1.2796;0.00345983;-1.50473;-2.33018;-6.18282;-15.955;-6.18282;647.851;224;1024;1024;1024;224;1024;1024;1024;1;4;0;0;-1.44452;-0.380107;-3.199; 
518;521;2019/10/22 18:37:19;0;-1;-1;-1;-1;-1;11;0;0;0;0;0;0;0;0;0;0;0;0;0;0;420;216;7.61026;414.978;218.634;0;35;1;0.0204289;-1.4037;-2.4097;0.0479432;-1.4269;-2.39552;-0.31965;0.755294;0.054863;-5.22736;0.324321;-5.02962;0;-0.481506;-0.271505;-1.2796;-0.044702;-1.5037;-2.36649;-6.18282;-15.955;-6.18282;647.851;224;1024;1024;1024;224;1024;1024;1024;1;4;0;0;-1.44452;-0.380107;-3.199; 
519;522;2019/10/22 18:37:19;0;-1;-1;-1;-1;-1;11;0;0;0;0;0;0;0;0;0;0;0;0;0;0;421;215;7.67822;416.785;216.899;0;36;1;0.0137492;-1.38586;-2.39197;0.037685;-1.41459;-2.39445;-0.403635;0.765173;0.0327208;-5.51868;0.370605;-4.64589;0;-0.481506;-0.271505;-1.2796;-0.0819975;-1.48586;-2.37553;-6.18282;-15.955;-6.18282;647.851;224;1024;1024;1024;224;1024;1024;1024;1;4;0;0;-1.44452;-0.380107;-3.199; 
520;523;2019/10/22 18:37:19;0;-1;-1;-1;-1;-1;11;0;0;0;0;0;0;0;0;0;0;0;0;0;0;424;214;7.58439;419.054;215.347;0;37;1;-0.0058185;-1.39752;-2.4252;0.0246339;-1.40947;-2.40368;-0.483835;0.719293;-0.0633392;-5.60855;0.195184;-4.46651;0;-0.481506;-0.271505;-1.2796;-0.130708;-1.49752;-2.41507;-6.18282;-15.955;-6.18282;647.851;224;1024;1024;1024;224;1024;1024;1024;1;4;0;0;-1.44452;-0.380107;-3.199; 
521;524;2019/10/22 18:37:20;0;-1;-1;-1;-1;-1;11;0;0;0;0;0;0;0;0;0;0;0;0;0;0;426;214;7.7576;421.336;214.249;0;38;1;-0.0185533;-1.36631;-2.37105;0.0116778;-1.39652;-2.39389;-0.552436;0.677687;-0.109181;-5.52384;-0.183702;-4.35742;0;-0.481506;-0.271505;-1.2796;-0.168071;-1.46631;-2.39062;-6.18282;-15.955;-6.18282;647.851;224;1024;1024;1024;224;1024;1024;1024;1;4;0;0;-1.44452;-0.380107;-3.199; 
522;525;2019/10/22 18:37:20;0;-1;-1;-1;-1;-1;11;0;0;0;0;0;0;0;0;0;0;0;0;0;0;428;213;7.71415;423.623;213.163;0;39;1;-0.031595;-1.36862;-2.38798;-0.00130407;-1.38815;-2.39212;-0.608975;0.655991;-0.0917037;-5.25397;-0.519413;-3.90072;0;-0.481506;-0.271505;-1.2796;-0.206598;-1.46862;-2.42257;-6.18282;-15.955;-6.18282;647.851;224;1024;1024;1024;224;1024;1024;1024;1;4;0;0;-1.44452;-0.380107;-3.199; 
523;526;2019/10/22 18:37:20;0;-1;-1;-1;-1;-1;11;0;0;0;0;0;0;0;0;0;0;0;0;0;0;430;214;7.80329;425.91;212.724;0;40;1;-0.0440235;-1.35832;-2.35717;-0.0141199;-1.3792;-2.38163;-0.660252;0.62375;-0.0238364;-4.91449;-0.878079;-3.01544;0;-0.481506;-0.271505;-1.2796;-0.237352;-1.45832;-2.38628;-6.18282;-15.955;-6.18282;647.851;224;1024;1024;1024;224;1024;1024;1024;1;4;0;0;-1.44452;-0.380107;-3.199; 
524;527;2019/10/22 18:37:20;0;-1;-1;-1;-1;-1;11;0;0;0;0;0;0;0;0;0;0;0;0;0;0;433;213;7.8034;428.512;212.117;0;41;1;-0.0632067;-1.35297;-2.36067;-0.028846;-1.37133;-2.37534;-0.702734;0.596118;0.0662605;-4.47816;-1.16236;-1.76376;0;-0.481506;-0.271505;-1.2796;-0.2753;-1.45297;-2.36832;-6.18282;-15.955;-6.18282;647.851;224;1024;1024;1024;224;1024;1024;1024;1;4;0;0;-1.44452;-0.380107;-3.199; 
525;528;2019/10/22 18:37:20;0;-1;-1;-1;-1;-1;11;0;0;0;0;0;0;0;0;0;0;0;0;0;0;436;214;7.78832;431.338;212.026;0;42;1;-0.0825501;-1.36093;-2.36169;-0.0449572;-1.36821;-2.37125;-0.751591;0.542839;0.132409;-4.07612;-1.58509;-0.660248;0;-0.481506;-0.271505;-1.2796;-0.311377;-1.46093;-2.34012;-6.18282;-15.955;-6.18282;647.851;224;1024;1024;1024;224;1024;1024;1024;1;4;0;0;-1.44452;-0.380107;-3.199; 
526;529;2019/10/22 18:37:20;0;-1;-1;-1;-1;-1;11;0;0;0;0;0;0;0;0;0;0;0;0;0;0;439;215;7.71043;434.322;212.307;0;43;1;-0.102799;-1.38007;-2.38197;-0.0623098;-1.37177;-2.37447;-0.79808;0.476226;0.196073;-3.7003;-1.9215;0.63956;0;-0.481506;-0.271505;-1.2796;-0.353667;-1.48007;-2.33778;-6.18282;-15.955;-6.18282;647.851;224;1024;1024;1024;224;1024;1024;1024;1;4;0;0;-1.44452;-0.380107;-3.199; 
527;530;2019/10/22 18:37:20;0;-1;-1;-1;-1;-1;11;0;0;0;0;0;0;0;0;0;0;0;0;0;0;443;215;7.95729;437.735;212.541;0;44;1;-0.124694;-1.33725;-2.30808;-0.081025;-1.36141;-2.35455;-0.848966;0.425912;0.274705;-3.40408;-2.15812;1.91641;0;-0.481506;-0.271505;-1.2796;-0.387123;-1.43725;-2.2436;-6.18282;-15.955;-6.18282;647.851;224;1024;1024;1024;224;1024;1024;1024;1;4;0;0;-1.44452;-0.380107;-3.199; 
528;531;2019/10/22 18:37:20;0;-1;-1;-1;-1;-1;11;0;0;0;0;0;0;0;0;0;0;0;0;0;0;446.667;215.333;8.24091;441.349;212.843;0;45;1;-0.142604;-1.29291;-2.22753;-0.0994988;-1.34086;-2.31644;-0.901424;0.444353;0.46695;-3.21006;-2.13984;3.38028;0;-0.481506;-0.271505;-1.2796;-0.417607;-1.39291;-2.13854;-6.18282;-15.955;-6.18282;647.851;224;1024;1024;1024;224;1024;1024;1024;1;4;0;0;-1.44452;-0.380107;-3.199; 
529;532;2019/10/22 18:37:20;0;-1;-1;-1;-1;-1;11;0;0;0;0;0;0;0;0;0;0;0;0;0;0;451;217;7.78536;445.315;213.618;0;46;1;-0.178723;-1.37746;-2.35196;-0.123266;-1.35184;-2.3271;-0.976624;0.375839;0.497891;-3.18916;-2.2737;4.11118;0;-0.481506;-0.271505;-1.2796;-0.497658;-1.47746;-2.18675;-6.18282;-15.955;-6.18282;647.851;224;1024;1024;1024;224;1024;1024;1024;1;4;0;0;-1.44452;-0.380107;-3.199; 
530;533;2019/10/22 18:37:20;0;-1;-1;-1;-1;-1;11;0;0;0;0;0;0;0;0;0;0;0;0;0;0;455;218;7.73366;449.426;214.522;0;47;1;-0.205727;-1.39205;-2.36412;-0.148004;-1.3639;-2.3382;-1.06172;0.255151;0.447008;-3.34674;-2.72554;3.98685;0;-0.481506;-0.271505;-1.2796;-0.561371;-1.49205;-2.18281;-6.18282;-15.955;-6.18282;647.851;224;1024;1024;1024;224;1024;1024;1024;1;4;0;0;-1.44452;-0.380107;-3.199; 
531;534;2019/10/22 18:37:20;0;-1;-1;-1;-1;-1;11;0;0;0;0;0;0;0;0;0;0;0;0;0;0;458.667;218.667;8.31571;453.529;215.411;0;48;1;-0.21333;-1.29795;-2.19643;-0.167602;-1.34412;-2.29567;-1.12669;0.249277;0.569943;-3.50564;-2.80738;4.13897;0;-0.481506;-0.271505;-1.2796;-0.579521;-1.39795;-2.04226;-6.18282;-15.955;-6.18282;647.851;224;1024;1024;1024;224;1024;1024;1024;1;4;0;0;-1.44452;-0.380107;-3.199; 
