ID;RS_ID;time;insect_log;imLx_drone; imLy_drone; disparity_drone; imLx_pred_drone; imLy_pred_drone; n_frames_lost_drone; n_frames_tracking_drone; foundL_drone; posX_drone; posY_drone; posZ_drone; sposX_drone; sposY_drone; sposZ_drone; svelX_drone; svelY_drone; svelZ_drone; saccX_drone; saccY_drone; saccZ_drone; dtrkr_state;imLx_insect; imLy_insect; disparity_insect; imLx_pred_insect; imLy_pred_insect; n_frames_lost_insect; n_frames_tracking_insect; foundL_insect; posX_insect; posY_insect; posZ_insect; sposX_insect; sposY_insect; sposZ_insect; svelX_insect; svelY_insect; svelZ_insect; saccX_insect; saccY_insect; saccZ_insect; trkrs_state;interceptor_state;hunt_vol_check;nav_state;valid; flight_mode;target_pos_x; target_pos_y; target_pos_z; hoverthrottle; autoThrottle; autoRoll; autoPitch; autoYaw; joyThrottle; joyRoll; joyPitch; joyYaw; joyArmSwitch; joyModeSwitch; joyTakeoffSwitch;dt; heading; Sheading;
2641;2644;2019/11/20 17:00:59;0;-1;-1;-1;-1;-1;100;0;0;0;0;0;0;0;0;0;0;0;0;0;0;1;350;74;5.39713;350;74;0;1;1;0.685709;-0.016206;-4.1181;0.685709;-0.016206;-4.1181;0;0;0;0;0;0;2;4;5;5;0;3;0;0;0;675;304;1024;1024;1024;224;1024;1024;1024;1824;3;0;0;0.000221519;0; 
2642;2645;2019/11/20 17:00:59;0;-1;-1;-1;-1;-1;100;0;0;0;0;0;0;0;0;0;0;0;0;0;0;1;349;73;5.10939;349.909;73.9091;0;2;1;0.734103;-0.06265;-4.35569;0.700227;-0.03014;-4.18938;0;0;0;0;0;0;2;4;5;5;0;3;0;0;0;675;304;1024;1024;1024;224;1024;1024;1024;1824;3;0;0;0.000221519;0; 
2643;2646;2019/11/20 17:00:59;0;-1;-1;-1;-1;-1;100;0;0;0;0;0;0;0;0;0;0;0;0;0;0;1;347;71;4.98147;349.909;73.9091;1;0;1;0.734103;-0.06265;-4.35569;0.700227;-0.03014;-4.18938;0;0;0;0;0;0;2;4;5;5;0;3;0;0;0;675;304;1024;1024;1024;224;1024;1024;1024;1824;3;0;0;0.000221519;0; 
2644;2647;2019/11/20 17:00:59;0;-1;-1;-1;-1;-1;100;0;0;0;0;0;0;0;0;0;0;0;0;0;0;1;346;69;5.20913;349.022;72.7955;0;1;1;0.748817;-0.012;-4.29452;0.714804;-0.024698;-4.22092;0;0;0;0;0;0;2;4;5;5;0;3;0;0;0;675;304;1024;1024;1024;224;1024;1024;1024;1824;3;0;0;0.000221519;0; 
2645;2648;2019/11/20 17:00:59;0;-1;-1;-1;-1;-1;100;0;0;0;0;0;0;0;0;0;0;0;0;0;0;1;343.6;67.2;5.33964;347.674;71.4031;0;2;1;0.752969;0.025236;-4.19931;0.726253;-0.009718;-4.21444;0;0;0;0;0;0;2;4;5;5;0;3;0;0;0;675;304;1024;1024;1024;224;1024;1024;1024;1824;3;0;0;0.000221519;0; 
2646;2649;2019/11/20 17:00:59;0;-1;-1;-1;-1;-1;100;0;0;0;0;0;0;0;0;0;0;0;0;0;0;1;342;65.4286;5.3996;346.183;69.8332;0;3;1;0.75941;0.048861;-4.16218;0.736201;0.007856;-4.19876;0;0;0;0;0;0;2;4;5;5;0;3;0;0;0;675;304;1024;1024;1024;224;1024;1024;1024;1824;3;0;0;0.000221519;0; 
2647;2650;2019/11/20 17:00:59;0;-1;-1;-1;-1;-1;100;0;0;0;0;0;0;0;0;0;0;0;0;0;0;1;341;63;5.30804;344.77;67.9743;0;4;1;0.781922;0.051943;-4.24722;0.749917;0.021082;-4.2133;0;0;0;0;0;0;2;4;5;5;0;3;0;0;0;675;304;1024;1024;1024;224;1024;1024;1024;1824;3;0;0;0.000221519;0; 
2648;2651;2019/11/20 17:00:59;0;-1;-1;-1;-1;-1;100;0;0;0;0;0;0;0;0;0;0;0;0;0;0;1;339;62;5.41596;343.156;66.2995;0;5;1;0.784789;0.077355;-4.16794;0.760379;0.037964;-4.19969;0;0;0;0;0;0;2;4;5;5;0;3;0;0;0;675;304;1024;1024;1024;224;1024;1024;1024;1824;3;0;0;0.000221519;0; 
2649;2652;2019/11/20 17:00:59;0;-1;-1;-1;-1;-1;100;0;0;0;0;0;0;0;0;0;0;0;0;0;0;1;337.333;60.6667;5.47707;341.489;64.6796;0;6;1;0.791234;0.097002;-4.12848;0.769635;0.055675;-4.17833;0.59385;0.734221;0.0945401;-2.35834;13.4216;37.3306;2;4;5;5;0;3;0;0;0;675;304;1024;1024;1024;224;1024;1024;1024;1824;3;0;0;0.000221519;0; 
2650;2653;2019/11/20 17:00:59;0;-1;-1;-1;-1;-1;100;0;0;0;0;0;0;0;0;0;0;0;0;0;0;1;336;59;5.48949;339.877;63.0095;0;7;1;0.801579;0.111292;-4.12793;0.779218;0.07236;-4.16321;0.613498;0.828058;0.287143;-0.708373;10.7085;27.3161;2;4;5;5;0;3;0;0;0;675;304;1024;1024;1024;224;1024;1024;1024;1824;3;0;0;0.000221519;0; 
2651;2654;2019/11/20 17:00:59;0;-1;-1;-1;-1;-1;100;0;0;0;0;0;0;0;0;0;0;0;0;0;0;1;336;59;5.48949;339.789;62.9155;1;0;1;0.801579;0.111292;-4.12793;0.779218;0.07236;-4.16321;0.613498;0.828058;0.287143;-0.708373;10.7085;27.3161;2;4;5;5;0;3;0;0;0;675;304;1024;1024;1024;224;1024;1024;1024;1824;3;0;0;0.000221519;0; 
2652;2655;2019/11/20 17:00:59;0;-1;-1;-1;-1;-1;100;0;0;0;0;0;0;0;0;0;0;0;0;0;0;1;332.8;56.4;5.635;337.316;60.5984;0;1;1;0.80925;0.151733;-4.0347;0.788228;0.096172;-4.12466;0.580195;0.859224;0.479546;-0.786241;6.29514;16.7023;2;4;5;5;0;3;0;0;0;675;304;1024;1024;1024;224;1024;1024;1024;1824;3;0;0;0.000221519;0; 
2653;2656;2019/11/20 17:00:59;0;-1;-1;-1;-1;-1;100;0;0;0;0;0;0;0;0;0;0;0;0;0;0;1;332;56;5.42145;337.185;60.4644;1;0;1;0.80925;0.151733;-4.0347;0.788228;0.096172;-4.12466;0.580195;0.859224;0.479546;-0.786241;6.29514;16.7023;2;4;5;5;0;3;0;0;0;675;304;1024;1024;1024;224;1024;1024;1024;1824;3;0;0;0.000221519;0; 
2654;2657;2019/11/20 17:00:59;0;-1;-1;-1;-1;-1;100;0;0;0;0;0;0;0;0;0;0;0;0;0;0;1;332;56;5.42145;337.054;60.3303;2;0;1;0.80925;0.151733;-4.0347;0.788228;0.096172;-4.12466;0.580195;0.859224;0.479546;-0.786241;6.29514;16.7023;2;4;5;5;0;3;0;0;0;675;304;1024;1024;1024;224;1024;1024;1024;1824;3;0;0;0.000221519;0; 
2655;2658;2019/11/20 17:00:59;0;-1;-1;-1;-1;-1;100;0;0;0;0;0;0;0;0;0;0;0;0;0;0;1;329;52;5.27161;336.922;60.1962;3;0;1;0.80925;0.151733;-4.0347;0.788228;0.096172;-4.12466;0.580195;0.859224;0.479546;-0.786241;6.29514;16.7023;2;4;5;5;0;3;0;0;0;675;304;1024;1024;1024;224;1024;1024;1024;1824;3;0;0;0.000221519;0; 
2656;2659;2019/11/20 17:00:59;0;-1;-1;-1;-1;-1;100;0;0;0;0;0;0;0;0;0;0;0;0;0;0;1;328;51;5.52424;332.635;55.7785;0;1;1;0.868882;0.175523;-4.1439;0.812424;0.119978;-4.13043;0.53072;0.784136;0.451425;-0.627472;3.13424;8.85345;2;4;5;5;0;3;0;0;0;675;304;1024;1024;1024;224;1024;1024;1024;1824;3;0;0;0.000221519;0; 
2657;2660;2019/11/20 17:00:59;0;-1;-1;-1;-1;-1;100;0;0;0;0;0;0;0;0;0;0;0;0;0;0;1;327.333;49.3333;5.48631;330.413;53.12;0;2;1;0.88096;0.182536;-4.18134;0.832985;0.138745;-4.1457;0.517432;0.752359;0.432792;-1.10495;1.78524;8.43498;2;4;5;5;0;3;0;0;0;675;304;1024;1024;1024;224;1024;1024;1024;1824;3;0;0;0.000221519;0; 
2658;2661;2019/11/20 17:00:59;0;-1;-1;-1;-1;-1;100;0;0;0;0;0;0;0;0;0;0;0;0;0;0;1;326;48;5.33876;330.137;52.8284;1;0;1;0.88096;0.182536;-4.18134;0.832985;0.138745;-4.1457;0.517432;0.752359;0.432792;-1.10495;1.78524;8.43498;2;4;5;5;0;3;0;0;0;675;304;1024;1024;1024;224;1024;1024;1024;1824;3;0;0;0.000221519;0; 
2659;2662;2019/11/20 17:00:59;0;-1;-1;-1;-1;-1;100;0;0;0;0;0;0;0;0;0;0;0;0;0;0;1;325;47;5.43202;329.862;52.5368;2;0;1;0.88096;0.182536;-4.18134;0.832985;0.138745;-4.1457;0.517432;0.752359;0.432792;-1.10495;1.78524;8.43498;2;4;5;5;0;3;0;0;0;675;304;1024;1024;1024;224;1024;1024;1024;1824;3;0;0;0.000221519;0; 
2660;2663;2019/11/20 17:00:59;0;-1;-1;-1;-1;-1;100;0;0;0;0;0;0;0;0;0;0;0;0;0;0;1;324;46;5.38815;329.587;52.2452;3;0;1;0.88096;0.182536;-4.18134;0.832985;0.138745;-4.1457;0.517432;0.752359;0.432792;-1.10495;1.78524;8.43498;2;4;5;5;0;3;0;0;0;675;304;1024;1024;1024;224;1024;1024;1024;1824;3;0;0;0.000221519;0; 
2661;2664;2019/11/20 17:00:59;0;-1;-1;-1;-1;-1;100;0;0;0;0;0;0;0;0;0;0;0;0;0;0;1;323;44;5.50207;326.083;47.9122;0;1;1;0.917783;0.224196;-4.19744;0.858424;0.164381;-4.16122;0.491138;0.684376;0.330565;-0.912467;0.469192;4.16829;2;4;5;5;0;3;0;0;0;675;304;1024;1024;1024;224;1024;1024;1024;1824;3;0;0;0.000221519;0; 
2662;2665;2019/11/20 17:00:59;0;-1;-1;-1;-1;-1;100;0;0;0;0;0;0;0;0;0;0;0;0;0;0;1;323;43;5.47993;324.512;45.5877;0;2;1;0.921489;0.228694;-4.21967;0.877344;0.183674;-4.17876;0.493157;0.64649;0.197548;-0.733027;0.119853;2.69079;2;4;5;5;0;3;0;0;0;675;304;1024;1024;1024;224;1024;1024;1024;1824;3;0;0;0.000221519;0; 
2663;2666;2019/11/20 17:00:59;0;-1;-1;-1;-1;-1;100;0;0;0;0;0;0;0;0;0;0;0;0;0;0;1;322;42;5.43912;323.236;43.8769;0;3;1;0.937588;0.230767;-4.25665;0.895417;0.197802;-4.20213;0.510015;0.619047;0.0468168;-0.630506;-0.313235;1.17162;2;4;5;5;0;3;0;0;0;675;304;1024;1024;1024;224;1024;1024;1024;1824;3;0;0;0.000221519;0; 
2664;2667;2019/11/20 17:00:59;0;-1;-1;-1;-1;-1;100;0;0;0;0;0;0;0;0;0;0;0;0;0;0;1;322;40;5.43476;322.4;42.1036;0;4;1;0.938341;0.24517;-4.27073;0.908294;0.212013;-4.22271;0.545692;0.602676;-0.167644;-0.447179;-0.700077;-0.588983;2;4;5;5;0;3;0;0;0;675;304;1024;1024;1024;224;1024;1024;1024;1824;3;0;0;0.000221519;0; 
2665;2668;2019/11/20 17:00:59;0;-1;-1;-1;-1;-1;100;0;0;0;0;0;0;0;0;0;0;0;0;0;0;1;321;39;5.54831;321.509;40.5703;0;5;1;0.928142;0.266933;-4.18855;0.914248;0.228489;-4.21246;0.598435;0.650423;-0.318922;-0.0880735;-0.775943;-2.40378;2;4;5;5;0;3;0;0;0;675;304;1024;1024;1024;224;1024;1024;1024;1824;3;0;0;0.000221519;0; 
2666;2669;2019/11/20 17:00:59;0;-1;-1;-1;-1;-1;100;0;0;0;0;0;0;0;0;0;0;0;0;0;0;1;320;38;5.74881;320.575;39.1831;0;6;1;0.904461;0.297838;-4.0475;0.911312;0.249293;-4.16297;0.567539;0.684491;-0.237314;0.0805212;-0.646205;-3.22584;2;4;5;5;0;3;0;0;0;675;304;1024;1024;1024;224;1024;1024;1024;1824;3;0;0;0.000221519;0; 
2667;2670;2019/11/20 17:00:59;0;-1;-1;-1;-1;-1;100;0;0;0;0;0;0;0;0;0;0;0;0;0;0;1;319;36;5.42881;319.606;37.5799;0;7;1;0.966975;0.274395;-4.29674;0.928011;0.256824;-4.2031;0.618335;0.779756;-0.309583;0.556123;-0.00693804;-4.49116;2;4;5;5;0;3;0;0;0;675;304;1024;1024;1024;224;1024;1024;1024;1824;3;0;0;0.000221519;0; 
2668;2671;2019/11/20 17:00:59;0;-1;-1;-1;-1;-1;100;0;0;0;0;0;0;0;0;0;0;0;0;0;0;1;318.667;34.6667;5.57214;318.818;36.0254;0;8;1;0.945091;0.301514;-4.19315;0.933135;0.270231;-4.20012;0.59376;0.813449;-0.271026;0.735354;0.662456;-4.56558;2;4;5;5;0;3;0;0;0;675;304;1024;1024;1024;224;1024;1024;1024;1824;3;0;0;0.000221519;0; 
2669;2672;2019/11/20 17:00:59;0;-1;-1;-1;-1;-1;100;0;0;0;0;0;0;0;0;0;0;0;0;0;0;1;318.667;34.6667;5.57214;318.311;35.3456;1;0;1;0.945091;0.301514;-4.19315;0.933135;0.270231;-4.20012;0.59376;0.813449;-0.271026;0.735354;0.662456;-4.56558;2;4;5;5;0;3;0;0;0;675;304;1024;1024;1024;224;1024;1024;1024;1824;3;0;0;0.000221519;0; 
2670;2673;2019/11/20 17:00:59;0;-1;-1;-1;-1;-1;100;0;0;0;0;0;0;0;0;0;0;0;0;0;0;1;317;33;5.78308;317.311;33.7812;0;1;1;0.925017;0.3369;-4.04855;0.9307;0.290232;-4.15464;0.477005;0.804392;-0.000118867;0.328241;1.03178;-2.89998;2;4;5;5;0;3;0;0;0;675;304;1024;1024;1024;224;1024;1024;1024;1824;3;0;0;0.000221519;0; 
2671;2674;2019/11/20 17:00:59;0;-1;-1;-1;-1;-1;100;0;0;0;0;0;0;0;0;0;0;0;0;0;0;1;316.333;32.3333;5.54562;316.448;32.5671;0;2;1;0.97063;0.315542;-4.22538;0.942679;0.297825;-4.17587;0.403879;0.776314;0.160235;-0.288389;1.21332;-0.617874;2;4;5;5;0;3;0;0;0;675;304;1024;1024;1024;224;1024;1024;1024;1824;3;0;0;0.000221519;0; 
2672;2675;2019/11/20 17:00:59;0;-1;-1;-1;-1;-1;100;0;0;0;0;0;0;0;0;0;0;0;0;0;0;1;316.571;32;6.45878;315.95;31.6465;0;3;1;0.831558;0.407345;-3.62948;0.831558;0.407345;-3.62948;0;0;0;0;0;0;2;4;5;5;0;3;0;0;0;675;304;1024;1024;1024;224;1024;1024;1024;1824;3;0;0;0.000221519;0; 
2673;2676;2019/11/20 17:00:59;0;-1;-1;-1;-1;-1;100;0;0;0;0;0;0;0;0;0;0;0;0;0;0;1;316;32;5.47095;315.429;31.02;0;4;1;0.986921;0.309364;-4.28481;0.986921;0.309364;-4.28481;0;0;0;0;0;0;2;4;5;5;0;3;0;0;0;675;304;1024;1024;1024;224;1024;1024;1024;1824;3;0;0;0.000221519;0; 
2674;2677;2019/11/20 17:00:59;0;-1;-1;-1;-1;-1;100;0;0;0;0;0;0;0;0;0;0;0;0;0;0;1;316;32;5.47095;314.893;30.2838;1;0;1;0.986921;0.309364;-4.28481;0.986921;0.309364;-4.28481;0;0;0;0;0;0;2;4;5;5;0;3;0;0;0;675;304;1024;1024;1024;224;1024;1024;1024;1824;3;0;0;0.000221519;0; 
2675;2678;2019/11/20 17:00:59;0;-1;-1;-1;-1;-1;100;0;0;0;0;0;0;0;0;0;0;0;0;0;0;1;315;33;5.60363;314.398;30.5915;0;1;1;0.972469;0.317266;-4.1782;0.982586;0.311734;-4.25283;0;0;0;0;0;0;2;4;5;5;0;3;0;0;0;675;304;1024;1024;1024;224;1024;1024;1024;1824;3;0;0;0.000221519;0; 
2676;2679;2019/11/20 17:00:59;0;-1;-1;-1;-1;-1;100;0;0;0;0;0;0;0;0;0;0;0;0;0;0;1;313;34;5.79353;313.374;31.0903;0;2;1;0.957839;0.33098;-4.03624;0.975162;0.317508;-4.18785;0;0;0;0;0;0;2;4;5;5;0;3;0;0;0;675;304;1024;1024;1024;224;1024;1024;1024;1824;3;0;0;0.000221519;0; 
2677;2680;2019/11/20 17:00:59;0;-1;-1;-1;-1;-1;100;0;0;0;0;0;0;0;0;0;0;0;0;0;0;1;313;35;5.33;312.695;31.7478;0;3;1;1.04114;0.269507;-4.38183;0.994955;0.303108;-4.24605;0;0;0;0;0;0;2;4;5;5;0;3;0;0;0;675;304;1024;1024;1024;224;1024;1024;1024;1824;3;0;0;0.000221519;0; 
2678;2681;2019/11/20 17:00:59;0;-1;-1;-1;-1;-1;100;0;0;0;0;0;0;0;0;0;0;0;0;0;0;1;312;36;5.57636;311.91;32.5374;0;4;1;1.0041;0.292271;-4.18305;0.997699;0.299857;-4.22715;0;0;0;0;0;0;2;4;5;5;0;3;0;0;0;675;304;1024;1024;1024;224;1024;1024;1024;1824;3;0;0;0.000221519;0; 
2679;2682;2019/11/20 17:00:59;0;-1;-1;-1;-1;-1;100;0;0;0;0;0;0;0;0;0;0;0;0;0;0;1;312;36;5.57636;311.341;32.0018;1;0;1;1.0041;0.292271;-4.18305;0.997699;0.299857;-4.22715;0;0;0;0;0;0;2;4;5;5;0;3;0;0;0;675;304;1024;1024;1024;224;1024;1024;1024;1824;3;0;0;0.000221519;0; 
2680;2683;2019/11/20 17:01:00;0;-1;-1;-1;-1;-1;100;0;0;0;0;0;0;0;0;0;0;0;0;0;0;1;312;36;5.57636;310.772;31.4662;2;0;1;1.0041;0.292271;-4.18305;0.997699;0.299857;-4.22715;0;0;0;0;0;0;2;4;5;5;0;3;0;0;0;675;304;1024;1024;1024;224;1024;1024;1024;1824;3;0;0;0.000221519;0; 
2681;2684;2019/11/20 17:01:00;0;-1;-1;-1;-1;-1;100;0;0;0;0;0;0;0;0;0;0;0;0;0;0;1;312;36;5.57636;310.204;30.9306;3;0;1;1.0041;0.292271;-4.18305;0.997699;0.299857;-4.22715;0;0;0;0;0;0;2;4;5;5;0;3;0;0;0;675;304;1024;1024;1024;224;1024;1024;1024;1824;3;0;0;0.000221519;0; 
2682;2685;2019/11/20 17:01:00;0;-1;-1;-1;-1;-1;100;0;0;0;0;0;0;0;0;0;0;0;0;0;0;1;309;37;5.53308;309.035;33.4193;0;1;1;1.03904;0.279768;-4.21054;1.0101;0.29383;-4.22217;0;0;0;0;0;0;2;4;5;5;0;3;0;0;0;675;304;1024;1024;1024;224;1024;1024;1024;1824;3;0;0;0.000221519;0; 
2683;2686;2019/11/20 17:01:00;0;-1;-1;-1;-1;-1;100;0;0;0;0;0;0;0;0;0;0;0;0;0;0;1;308;38;6.02976;308.027;34.8409;0;2;1;0.961739;0.328225;-3.85891;0.995593;0.304148;-4.11319;0;0;0;0;0;0;2;4;5;5;0;3;0;0;0;675;304;1024;1024;1024;224;1024;1024;1024;1824;3;0;0;0.000221519;0; 
2684;2687;2019/11/20 17:01:00;0;-1;-1;-1;-1;-1;100;0;0;0;0;0;0;0;0;0;0;0;0;0;0;1;308;38;6.02976;307.418;34.5014;1;0;1;0.961739;0.328225;-3.85891;0.995593;0.304148;-4.11319;0;0;0;0;0;0;2;4;5;5;0;3;0;0;0;675;304;1024;1024;1024;224;1024;1024;1024;1824;3;0;0;0.000221519;0; 
2685;2688;2019/11/20 17:01:00;0;-1;-1;-1;-1;-1;100;0;0;0;0;0;0;0;0;0;0;0;0;0;0;1;306.4;39.2;5.71511;306.381;36.1334;0;1;1;1.02867;0.285444;-4.06528;1.00552;0.298537;-4.09882;0.13734;-0.0790386;0.922388;1.6001;-0.898566;-0.212171;2;4;5;5;0;3;0;0;0;675;304;1024;1024;1024;224;1024;1024;1024;1824;3;0;0;0.000221519;0; 
2686;2689;2019/11/20 17:01:00;0;-1;-1;-1;-1;-1;100;0;0;0;0;0;0;0;0;0;0;0;0;0;0;1;305;39;5.78843;305.247;36.9258;0;2;1;1.02773;0.295268;-4.01479;1.01218;0.297557;-4.07361;0.171088;-0.0952194;0.827118;2.43505;-1.59558;-7.46786;2;4;5;5;0;3;0;0;0;675;304;1024;1024;1024;224;1024;1024;1024;1824;3;0;0;0.000221519;0; 
2687;2690;2019/11/20 17:01:00;0;-1;-1;-1;-1;-1;100;0;0;0;0;0;0;0;0;0;0;0;0;0;0;1;304;39;5.67752;304.173;37.4192;0;3;1;1.0566;0.282479;-4.09322;1.02551;0.293033;-4.07949;0.175844;-0.0812661;0.895277;-0.957693;0.914123;6.01377;2;4;5;5;0;3;0;0;0;675;304;1024;1024;1024;224;1024;1024;1024;1824;3;0;0;0.000221519;0; 
2688;2691;2019/11/20 17:01:00;0;-1;-1;-1;-1;-1;100;0;0;0;0;0;0;0;0;0;0;0;0;0;0;1;304;39.4286;5.62388;303.45;37.8955;0;4;1;1.06668;0.27301;-4.13005;1.03786;0.287026;-4.09466;0.201716;-0.0794965;0.85456;-0.48501;0.82446;2.94393;2;4;5;5;0;3;0;0;0;675;304;1024;1024;1024;224;1024;1024;1024;1824;3;0;0;0.000221519;0; 
2689;2692;2019/11/20 17:01:00;0;-1;-1;-1;-1;-1;100;0;0;0;0;0;0;0;0;0;0;0;0;0;0;1;304;39.4286;5.62388;302.782;37.7365;1;0;1;1.06668;0.27301;-4.13005;1.03786;0.287026;-4.09466;0.201716;-0.0794965;0.85456;-0.48501;0.82446;2.94393;2;4;5;5;0;3;0;0;0;675;304;1024;1024;1024;224;1024;1024;1024;1824;3;0;0;0.000221519;0; 
2690;2693;2019/11/20 17:01:00;0;-1;-1;-1;-1;-1;100;0;0;0;0;0;0;0;0;0;0;0;0;0;0;1;301;41;6.03471;301.42;38.8495;0;1;1;1.0189;0.308497;-3.84135;1.03217;0.293467;-4.01867;0.187116;-0.048784;1.12212;-0.286784;0.618802;4.90323;2;4;5;5;0;3;0;0;0;675;304;1024;1024;1024;224;1024;1024;1024;1824;3;0;0;0.000221519;0; 
2691;2694;2019/11/20 17:01:00;0;-1;-1;-1;-1;-1;100;0;0;0;0;0;0;0;0;0;0;0;0;0;0;1;299;41;5.74162;299.867;39.5046;0;2;1;1.08831;0.27575;-4.03744;1.04901;0.288152;-4.0243;0.272238;-0.0771723;0.939464;3.24531;-1.71043;-13.79;2;4;5;5;0;3;0;0;0;675;304;1024;1024;1024;224;1024;1024;1024;1824;3;0;0;0.000221519;0; 
2692;2695;2019/11/20 17:01:00;0;-1;-1;-1;-1;-1;100;0;0;0;0;0;0;0;0;0;0;0;0;0;0;1;297;42;5.95814;298.17;40.2701;0;3;1;1.06553;0.293419;-3.88586;1.05397;0.289732;-3.98276;0.329158;-0.0764367;0.960844;2.60365;-1.01735;-8.14239;2;4;5;5;0;3;0;0;0;675;304;1024;1024;1024;224;1024;1024;1024;1824;3;0;0;0.000221519;0; 
2693;2696;2019/11/20 17:01:00;0;-1;-1;-1;-1;-1;100;0;0;0;0;0;0;0;0;0;0;0;0;0;0;1;296;43;6.15922;296.685;41.126;0;4;1;1.03886;0.308246;-3.75429;1.04943;0.295286;-3.91422;0.32499;-0.0536315;1.12198;2.0889;-0.468084;-3.87631;2;4;5;5;0;3;0;0;0;675;304;1024;1024;1024;224;1024;1024;1024;1824;3;0;0;0.000221519;0; 
2694;2697;2019/11/20 17:01:00;0;-1;-1;-1;-1;-1;100;0;0;0;0;0;0;0;0;0;0;0;0;0;0;1;295;43;5.69674;295.337;41.7315;0;5;1;1.13196;0.256145;-4.05908;1.07419;0.283544;-3.95768;0.361613;-0.0646545;1.09007;1.8891;-0.224;-1.65915;2;4;5;5;0;3;0;0;0;675;304;1024;1024;1024;224;1024;1024;1024;1824;3;0;0;0.000221519;0; 
2695;2698;2019/11/20 17:01:00;0;-1;-1;-1;-1;-1;100;0;0;0;0;0;0;0;0;0;0;0;0;0;0;1;293;45;5.88528;294.509;41.7578;1;0;1;1.13196;0.256145;-4.05908;1.07419;0.283544;-3.95768;0.361613;-0.0646545;1.09007;1.8891;-0.224;-1.65915;2;4;5;5;0;3;0;0;0;675;304;1024;1024;1024;224;1024;1024;1024;1824;3;0;0;0.000221519;0; 
2696;2699;2019/11/20 17:01:00;0;-1;-1;-1;-1;-1;100;0;0;0;0;0;0;0;0;0;0;0;0;0;0;1;291;46;5.62;293.681;41.784;2;0;1;1.13196;0.256145;-4.05908;1.07419;0.283544;-3.95768;0.361613;-0.0646545;1.09007;1.8891;-0.224;-1.65915;2;4;5;5;0;3;0;0;0;675;304;1024;1024;1024;224;1024;1024;1024;1824;3;0;0;0.000221519;0; 
2697;2700;2019/11/20 17:01:00;0;-1;-1;-1;-1;-1;100;0;0;0;0;0;0;0;0;0;0;0;0;0;0;1;290.667;47.3333;6.37483;291.506;44.29;0;1;1;1.04551;0.302277;-3.60763;1.06559;0.289164;-3.85267;0.290782;-0.0331026;1.29818;1.37054;-0.0109081;0.185356;2;4;5;5;0;3;0;0;0;675;304;1024;1024;1024;224;1024;1024;1024;1824;3;0;0;0.000221519;0; 
2698;2701;2019/11/20 17:01:00;0;-1;-1;-1;-1;-1;100;0;0;0;0;0;0;0;0;0;0;0;0;0;0;1;288.25;48.25;5.96371;289.385;45.925;0;2;1;1.13783;0.251368;-3.85188;1.08726;0.277825;-3.85243;0.339445;-0.0667029;1.27671;1.27848;-0.0602038;0.574115;2;4;5;5;0;3;0;0;0;675;304;1024;1024;1024;224;1024;1024;1024;1824;3;0;0;0.000221519;0; 
2699;2702;2019/11/20 17:01:00;0;-1;-1;-1;-1;-1;100;0;0;0;0;0;0;0;0;0;0;0;0;0;0;1;287;50;6.35595;287.616;47.5411;0;3;1;1.07744;0.283273;-3.6062;1.08432;0.279459;-3.77856;0.309383;-0.0660521;1.50189;0.878317;-0.00282264;2.02866;2;4;5;5;0;3;0;0;0;675;304;1024;1024;1024;224;1024;1024;1024;1824;3;0;0;0.000221519;0; 
2700;2703;2019/11/20 17:01:00;0;-1;-1;-1;-1;-1;100;0;0;0;0;0;0;0;0;0;0;0;0;0;0;1;284.889;50.6667;5.86119;285.734;48.8388;0;4;1;1.18638;0.222362;-3.90732;1.11494;0.26233;-3.81719;0.3682;-0.121688;1.39695;0.643905;-0.137199;2.52315;2;4;5;5;0;3;0;0;0;675;304;1024;1024;1024;224;1024;1024;1024;1824;3;0;0;0.000221519;0; 
2701;2704;2019/11/20 17:01:00;0;-1;-1;-1;-1;-1;100;0;0;0;0;0;0;0;0;0;0;0;0;0;0;1;285;53;6.32229;284.484;50.4952;0;5;1;1.09898;0.260405;-3.61166;1.11015;0.261753;-3.75553;0.402734;-0.17343;1.31338;0.619149;-0.441061;2.08703;2;4;5;5;0;3;0;0;0;675;304;1024;1024;1024;224;1024;1024;1024;1824;3;0;0;0.000221519;0; 
2702;2705;2019/11/20 17:01:00;0;-1;-1;-1;-1;-1;100;0;0;0;0;0;0;0;0;0;0;0;0;0;0;1;282;54.5714;5.97008;282.662;52.1664;0;6;1;1.18892;0.209006;-3.81712;1.13378;0.245929;-3.77401;0.420077;-0.216698;1.33804;0.546562;-0.719936;1.99479;2;4;5;5;0;3;0;0;0;675;304;1024;1024;1024;224;1024;1024;1024;1824;3;0;0;0.000221519;0; 
2703;2706;2019/11/20 17:01:00;0;-1;-1;-1;-1;-1;100;0;0;0;0;0;0;0;0;0;0;0;0;0;0;1;281.333;56.6667;6.29284;281.181;54.0225;0;7;1;1.13323;0.233458;-3.61169;1.13362;0.242188;-3.72531;0.523656;-0.317582;1.31131;1.25774;-1.56781;1.2493;2;4;5;5;0;3;0;0;0;675;304;1024;1024;1024;224;1024;1024;1024;1824;3;0;0;0.000221519;0; 
2704;2707;2019/11/20 17:01:00;0;-1;-1;-1;-1;-1;100;0;0;0;0;0;0;0;0;0;0;0;0;0;0;1;279.333;57.3333;6.57076;279.517;55.5565;0;8;1;1.10051;0.259634;-3.456;1.12368;0.247421;-3.64452;0.459609;-0.311943;1.61693;1.23443;-1.91986;2.10799;2;4;5;5;0;3;0;0;0;675;304;1024;1024;1024;224;1024;1024;1024;1824;3;0;0;0.000221519;0; 
2705;2708;2019/11/20 17:01:00;0;-1;-1;-1;-1;-1;100;0;0;0;0;0;0;0;0;0;0;0;0;0;0;1;278.727;60.1818;6.44752;278.165;57.5546;0;9;1;1.12624;0.228452;-3.50926;1.12445;0.241731;-3.60394;0.436007;-0.337807;1.66737;1.24623;-2.23696;1.92554;2;4;5;5;0;3;0;0;0;675;304;1024;1024;1024;224;1024;1024;1024;1824;3;0;0;0.000221519;0; 
2706;2709;2019/11/20 17:01:00;0;-1;-1;-1;-1;-1;100;0;0;0;0;0;0;0;0;0;0;0;0;0;0;1;277;63;6.54207;276.683;59.8776;0;10;1;1.12315;0.221343;-3.44607;1.12406;0.235614;-3.55658;0.298032;-0.309353;2.04096;0.467573;-2.09147;3.72667;2;4;5;5;0;3;0;0;0;675;304;1024;1024;1024;224;1024;1024;1024;1824;3;0;0;0.000221519;0; 
2707;2710;2019/11/20 17:01:00;0;-1;-1;-1;-1;-1;100;0;0;0;0;0;0;0;0;0;0;0;0;0;0;1;277.75;64.25;6.60028;275.897;61.9335;0;11;1;1.10757;0.22006;-3.41019;1.11911;0.230948;-3.51266;0.214605;-0.308607;2.19428;-0.470602;-1.7946;5.75316;2;4;5;5;0;3;0;0;0;675;304;1024;1024;1024;224;1024;1024;1024;1824;3;0;0;0.000221519;0; 
2708;2711;2019/11/20 17:01:00;0;-1;-1;-1;-1;-1;100;0;0;0;0;0;0;0;0;0;0;0;0;0;0;1;276.667;66.6667;6.51275;275.031;64.1652;0;12;1;1.13076;0.195143;-3.44528;1.12261;0.220207;-3.49245;0.0841526;-0.287866;2.44074;-1.62361;-1.36092;7.85467;2;4;5;5;0;3;0;0;0;675;304;1024;1024;1024;224;1024;1024;1024;1824;3;0;0;0.000221519;0; 
2709;2712;2019/11/20 17:01:00;0;-1;-1;-1;-1;-1;100;0;0;0;0;0;0;0;0;0;0;0;0;0;0;1;275;69;6.39942;273.92;66.4951;0;13;1;1.1638;0.166931;-3.49574;1.13497;0.204224;-3.49344;0.0558805;-0.324298;2.39026;-2.84187;-0.843364;9.02073;2;4;5;5;0;3;0;0;0;675;304;1024;1024;1024;224;1024;1024;1024;1824;3;0;0;0.000221519;0; 
2710;2713;2019/11/20 17:01:00;0;-1;-1;-1;-1;-1;100;0;0;0;0;0;0;0;0;0;0;0;0;0;0;1;274.25;70.25;6.48771;272.924;68.5478;0;14;1;1.15374;0.169744;-3.44259;1.1406;0.19388;-3.47818;0.101061;-0.408355;2.09829;-3.1367;-0.890965;7.33436;2;4;5;5;0;3;0;0;0;675;304;1024;1024;1024;224;1024;1024;1024;1824;3;0;0;0.000221519;0; 
2711;2714;2019/11/20 17:01:00;0;-1;-1;-1;-1;-1;100;0;0;0;0;0;0;0;0;0;0;0;0;0;0;1;274;73;6.77006;272.171;70.8752;0;15;1;1.10746;0.185748;-3.28725;1.13066;0.19144;-3.4209;0.085422;-0.445808;1.98979;-3.28181;-0.965796;5.68794;2;4;5;5;0;3;0;0;0;675;304;1024;1024;1024;224;1024;1024;1024;1824;3;0;0;0.000221519;0; 
2712;2715;2019/11/20 17:01:00;0;-1;-1;-1;-1;-1;100;0;0;0;0;0;0;0;0;0;0;0;0;0;0;1;273.5;74.6667;7.05178;271.513;73.0539;0;16;1;1.06676;0.206659;-3.14908;1.11149;0.196006;-3.33936;0.00106097;-0.42563;2.06119;-3.1548;-1.04374;3.4935;2;4;5;5;0;3;0;0;0;675;304;1024;1024;1024;224;1024;1024;1024;1824;3;0;0;0.000221519;0; 
2713;2716;2019/11/20 17:01:00;0;-1;-1;-1;-1;-1;100;0;0;0;0;0;0;0;0;0;0;0;0;0;0;1;272.909;77.2727;6.48281;270.895;75.4217;0;17;1;1.16494;0.125053;-3.41382;1.12753;0.17472;-3.3617;0.0342257;-0.47988;1.83948;-2.61308;-1.31009;0.679513;2;4;5;5;0;3;0;0;0;675;304;1024;1024;1024;224;1024;1024;1024;1824;3;0;0;0.000221519;0; 
2714;2717;2019/11/20 17:01:00;0;-1;-1;-1;-1;-1;100;0;0;0;0;0;0;0;0;0;0;0;0;0;0;1;272.667;78.6667;6.47072;270.417;77.5376;0;18;1;1.16899;0.114742;-3.41397;1.13996;0.156727;-3.37738;0.0898365;-0.541386;1.56314;-1.54516;-1.79828;-3.09631;2;4;5;5;0;3;0;0;0;675;304;1024;1024;1024;224;1024;1024;1024;1824;3;0;0;0.000221519;0; 
2715;2718;2019/11/20 17:01:00;0;-1;-1;-1;-1;-1;100;0;0;0;0;0;0;0;0;0;0;0;0;0;0;1;273;81;6.498;270.222;79.768;0;19;1;1.16152;0.10363;-3.38923;1.14643;0.140798;-3.38093;0.0996806;-0.578074;1.38708;-0.752212;-2.09223;-5.86321;2;4;5;5;0;3;0;0;0;675;304;1024;1024;1024;224;1024;1024;1024;1824;3;0;0;0.000221519;0; 
2716;2719;2019/11/20 17:01:00;0;-1;-1;-1;-1;-1;100;0;0;0;0;0;0;0;0;0;0;0;0;0;0;1;273;82;6.72373;270.125;81.6542;0;20;1;1.12253;0.12599;-3.27114;1.13926;0.136355;-3.348;0.0544671;-0.576524;1.35204;-0.637362;-1.92679;-6.49748;2;4;5;5;0;3;0;0;0;675;304;1024;1024;1024;224;1024;1024;1024;1824;3;0;0;0.000221519;0; 
2717;2720;2019/11/20 17:01:00;0;-1;-1;-1;-1;-1;100;0;0;0;0;0;0;0;0;0;0;0;0;0;0;1;271.75;84.25;7.10786;269.699;83.6874;0;21;1;1.07065;0.157634;-3.0852;1.11868;0.142739;-3.26916;-0.0151599;-0.540365;1.4171;-0.784013;-1.53361;-6.18507;2;4;5;5;0;3;0;0;0;675;304;1024;1024;1024;224;1024;1024;1024;1824;3;0;0;0.000221519;0; 
2718;2721;2019/11/20 17:01:00;0;-1;-1;-1;-1;-1;100;0;0;0;0;0;0;0;0;0;0;0;0;0;0;1;271.333;85.3333;6.45151;269.298;85.4538;0;22;1;1.1828;0.070186;-3.39421;1.13791;0.120973;-3.30667;0.0964031;-0.623805;0.980751;-0.0897334;-1.71143;-8.02491;2;4;5;5;0;3;0;0;0;675;304;1024;1024;1024;224;1024;1024;1024;1824;3;0;0;0.000221519;0; 
2719;2722;2019/11/20 17:01:00;0;-1;-1;-1;-1;-1;100;0;0;0;0;0;0;0;0;0;0;0;0;0;0;1;272;88;6.80713;269.261;87.5303;0;23;1;1.11611;0.100202;-3.20554;1.13137;0.114742;-3.27634;0.073199;-0.613759;0.929276;0.101769;-1.5614;-8.44915;2;4;5;5;0;3;0;0;0;675;304;1024;1024;1024;224;1024;1024;1024;1824;3;0;0;0.000221519;0; 
2720;2723;2019/11/20 17:01:00;0;-1;-1;-1;-1;-1;100;0;0;0;0;0;0;0;0;0;0;0;0;0;0;1;272;90;6.72572;269.274;89.6179;0;24;1;1.12962;0.077809;-3.23574;1.13085;0.103662;-3.26416;0.00751205;-0.580127;1.00963;-0.267637;-1.09152;-7.27952;2;4;5;5;0;3;0;0;0;675;304;1024;1024;1024;224;1024;1024;1024;1824;3;0;0;0.000221519;0; 
2721;2724;2019/11/20 17:01:00;0;-1;-1;-1;-1;-1;100;0;0;0;0;0;0;0;0;0;0;0;0;0;0;1;271.667;92.3333;6.33237;269.214;91.8182;0;25;1;1.20242;0.00863;-3.42606;1.15232;0.075153;-3.31273;0.0280125;-0.610178;0.878105;-0.446733;-0.783099;-6.39989;2;4;5;5;0;3;0;0;0;675;304;1024;1024;1024;224;1024;1024;1024;1824;3;0;0;0.000221519;0; 
2722;2725;2019/11/20 17:01:00;0;-1;-1;-1;-1;-1;100;0;0;0;0;0;0;0;0;0;0;0;0;0;0;1;272;94.5;7.2338;269.312;94.046;0;26;1;1.05028;0.113745;-2.99045;1.12171;0.08673;-3.21605;-0.0532727;-0.564236;1.05368;-0.698193;-0.4208;-5.03114;2;4;5;5;0;3;0;0;0;675;304;1024;1024;1024;224;1024;1024;1024;1824;3;0;0;0.000221519;0; 
2723;2726;2019/11/20 17:01:00;0;-1;-1;-1;-1;-1;100;0;0;0;0;0;0;0;0;0;0;0;0;0;0;1;272;97;7.44885;269.419;96.3976;0;27;1;1.01996;0.124224;-2.8944;1.09118;0.097978;-3.11955;-0.141732;-0.51725;1.22951;-0.92426;-0.160191;-3.76766;2;4;5;5;0;3;0;0;0;675;304;1024;1024;1024;224;1024;1024;1024;1824;3;0;0;0.000221519;0; 
2724;2727;2019/11/20 17:01:00;0;-1;-1;-1;-1;-1;100;0;0;0;0;0;0;0;0;0;0;0;0;0;0;1;273;98;7.09765;269.847;98.3591;0;28;1;1.06339;0.077628;-3.03354;1.08284;0.091873;-3.09375;-0.3049;-0.426532;1.58781;-2.15677;0.691502;0.163103;2;4;5;5;0;3;0;0;0;675;304;1024;1024;1024;224;1024;1024;1024;1824;3;0;0;0.000221519;0; 
2725;2728;2019/11/20 17:01:00;0;-1;-1;-1;-1;-1;100;0;0;0;0;0;0;0;0;0;0;0;0;0;0;1;274;102;7.4964;270.508;100.993;0;29;1;1.00016;0.102309;-2.85673;1.05804;0.095004;-3.02264;-0.475724;-0.334724;1.96555;-3.48565;1.52896;4.23522;2;4;5;5;0;3;0;0;0;675;304;1024;1024;1024;224;1024;1024;1024;1824;3;0;0;0.000221519;0; 
2726;2729;2019/11/20 17:01:00;0;-1;-1;-1;-1;-1;100;0;0;0;0;0;0;0;0;0;0;0;0;0;0;1;275;103;7.40854;271.335;103.157;0;30;1;1.00528;0.08676;-2.8867;1.04221;0.09253;-2.98186;-0.639314;-0.245278;2.30639;-4.67386;2.25427;7.71851;2;4;5;5;0;3;0;0;0;675;304;1024;1024;1024;224;1024;1024;1024;1824;3;0;0;0.000221519;0; 
2727;2730;2019/11/20 17:01:00;0;-1;-1;-1;-1;-1;100;0;0;0;0;0;0;0;0;0;0;0;0;0;0;1;276;107;7.1608;272.28;105.934;0;31;1;1.03308;0.034153;-2.9704;1.03947;0.075017;-2.97842;-0.83413;-0.147707;2.71855;-6.24644;3.19899;11.9791;2;4;5;5;0;3;0;0;0;675;304;1024;1024;1024;224;1024;1024;1024;1824;3;0;0;0.000221519;0; 
2728;2731;2019/11/20 17:01:00;0;-1;-1;-1;-1;-1;100;0;0;0;0;0;0;0;0;0;0;0;0;0;0;1;277;109;7.26044;273.307;108.517;0;32;1;1.01202;0.035509;-2.92166;1.03124;0.063165;-2.96139;-0.861698;-0.182714;2.64789;-6.97568;3.44271;13.5527;2;4;5;5;0;3;0;0;0;675;304;1024;1024;1024;224;1024;1024;1024;1824;3;0;0;0.000221519;0; 
2729;2732;2019/11/20 17:01:00;0;-1;-1;-1;-1;-1;100;0;0;0;0;0;0;0;0;0;0;0;0;0;0;1;278.5;112;7.26578;274.551;111.275;0;33;1;1.00096;0.019372;-2.90755;1.02216;0.050027;-2.94524;-0.792622;-0.301084;2.28471;-6.78422;2.92871;12.3447;2;4;5;5;0;3;0;0;0;675;304;1024;1024;1024;224;1024;1024;1024;1824;3;0;0;0.000221519;0; 
2730;2733;2019/11/20 17:01:00;0;-1;-1;-1;-1;-1;100;0;0;0;0;0;0;0;0;0;0;0;0;0;0;1;280;116;7.27925;275.948;114.479;0;34;1;0.988818;-0.001277;-2.88626;1.01215;0.034636;-2.92755;-0.757816;-0.409183;2.03442;-5.87889;1.8265;9.19001;2;4;5;5;0;3;0;0;0;675;304;1024;1024;1024;224;1024;1024;1024;1824;3;0;0;0.000221519;0; 
2731;2734;2019/11/20 17:01:00;0;-1;-1;-1;-1;-1;100;0;0;0;0;0;0;0;0;0;0;0;0;0;0;1;281.429;118;7.34658;277.432;117.364;0;35;1;0.970042;-0.003642;-2.85193;0.999521;0.023152;-2.90486;-0.688335;-0.532392;1.69092;-4.37624;0.306669;4.41747;2;4;5;5;0;3;0;0;0;675;304;1024;1024;1024;224;1024;1024;1024;1824;3;0;0;0.000221519;0; 
2732;2735;2019/11/20 17:01:00;0;-1;-1;-1;-1;-1;100;0;0;0;0;0;0;0;0;0;0;0;0;0;0;1;283.333;121.333;7.26114;279.126;120.441;0;36;1;0.968351;-0.033552;-2.8722;0.99017;0.006141;-2.89506;-0.620785;-0.664363;1.36111;-2.55176;-1.48928;-1.12375;2;4;5;5;0;3;0;0;0;675;304;1024;1024;1024;224;1024;1024;1024;1824;3;0;0;0.000221519;0; 
2733;2736;2019/11/20 17:01:00;0;-1;-1;-1;-1;-1;100;0;0;0;0;0;0;0;0;0;0;0;0;0;0;1;285;123;7.30382;280.894;123.123;0;37;1;0.951293;-0.037095;-2.84881;0.978507;-0.00683;-2.88119;-0.615887;-0.725409;1.20491;-0.659675;-3.20017;-6.71778;2;4;5;5;0;3;0;0;0;675;304;1024;1024;1024;224;1024;1024;1024;1824;3;0;0;0.000221519;0; 
2734;2737;2019/11/20 17:01:00;0;-1;-1;-1;-1;-1;100;0;0;0;0;0;0;0;0;0;0;0;0;0;0;1;287;127;7.20947;282.817;126.261;0;38;1;0.949883;-0.0726;-2.87002;0.96992;-0.026561;-2.87784;-0.614354;-0.793493;1.05656;0.591767;-4.35876;-10.3844;2;4;5;5;0;3;0;0;0;675;304;1024;1024;1024;224;1024;1024;1024;1824;3;0;0;0.000221519;0; 
2735;2738;2019/11/20 17:01:00;0;-1;-1;-1;-1;-1;100;0;0;0;0;0;0;0;0;0;0;0;0;0;0;1;289;131;7.38492;284.85;129.729;0;39;1;0.913787;-0.07036;-2.78615;0.95308;-0.039699;-2.85033;-0.644412;-0.834346;1.01289;0.946823;-4.74442;-11.3086;2;4;5;5;0;3;0;0;0;675;304;1024;1024;1024;224;1024;1024;1024;1824;3;0;0;0.000221519;0; 
2736;2739;2019/11/20 17:01:00;0;-1;-1;-1;-1;-1;100;0;0;0;0;0;0;0;0;0;0;0;0;0;0;1;291;134;7.4582;286.958;133.113;0;40;1;0.891412;-0.07671;-2.74713;0.934579;-0.0508;-2.81937;-0.696381;-0.841731;1.03965;0.813387;-4.57369;-10.757;2;4;5;5;0;3;0;0;0;675;304;1024;1024;1024;224;1024;1024;1024;1824;3;0;0;0.000221519;0; 
2737;2740;2019/11/20 17:01:00;0;-1;-1;-1;-1;-1;100;0;0;0;0;0;0;0;0;0;0;0;0;0;0;1;294;138;7.48962;289.437;136.753;0;41;1;0.867662;-0.09414;-2.72014;0.914504;-0.0638;-2.7896;-0.757274;-0.852226;1.08399;0.21278;-4.02122;-8.8775;2;4;5;5;0;3;0;0;0;675;304;1024;1024;1024;224;1024;1024;1024;1824;3;0;0;0.000221519;0; 
2738;2741;2019/11/20 17:01:00;0;-1;-1;-1;-1;-1;100;0;0;0;0;0;0;0;0;0;0;0;0;0;0;1;295.333;140.667;7.43478;291.648;140.15;0;42;1;0.865103;-0.11644;-2.72982;0.899684;-0.0796;-2.77167;-0.81565;-0.853658;1.14307;-0.650372;-3.16854;-6.19709;2;4;5;5;0;3;0;0;0;675;304;1024;1024;1024;224;1024;1024;1024;1824;3;0;0;0.000221519;0; 
2739;2742;2019/11/20 17:01:00;0;-1;-1;-1;-1;-1;100;0;0;0;0;0;0;0;0;0;0;0;0;0;0;1;295.333;140.667;7.43478;292.06;142.354;1;0;1;0.865103;-0.11644;-2.72982;0.899684;-0.0796;-2.77167;-0.81565;-0.853658;1.14307;-0.650372;-3.16854;-6.19709;2;4;5;5;0;3;0;0;0;675;304;1024;1024;1024;224;1024;1024;1024;1824;3;0;0;0.000221519;0; 
2740;2743;2019/11/20 17:01:01;0;-1;-1;-1;-1;-1;100;0;0;0;0;0;0;0;0;0;0;0;0;0;0;1;300;146;7.45314;295.537;145.965;0;1;1;0.831691;-0.14295;-2.70238;0.879286;-0.0986;-2.75088;-0.828954;-0.826267;1.13178;-1.1194;-2.24629;-3.96853;2;4;5;5;0;3;0;0;0;675;304;1024;1024;1024;224;1024;1024;1024;1824;3;0;0;0.000221519;0; 
2741;2744;2019/11/20 17:01:01;0;-1;-1;-1;-1;-1;100;0;0;0;0;0;0;0;0;0;0;0;0;0;0;1;303;150;7.35893;298.711;149.651;0;2;1;0.821973;-0.17907;-2.72124;0.862092;-0.12274;-2.74199;-0.866394;-0.824926;1.14399;-1.53421;-1.45535;-2.08193;2;4;5;5;0;3;0;0;0;675;304;1024;1024;1024;224;1024;1024;1024;1824;3;0;0;0.000221519;0; 
2742;2745;2019/11/20 17:01:01;0;-1;-1;-1;-1;-1;100;0;0;0;0;0;0;0;0;0;0;0;0;0;0;1;304;152;7.53361;301.146;152.765;0;3;1;0.796284;-0.1637;-2.65046;0.84235;-0.13503;-2.71453;-0.898789;-0.821205;1.15115;-1.79108;-0.828239;-0.775965;2;4;5;5;0;3;0;0;0;675;304;1024;1024;1024;224;1024;1024;1024;1824;3;0;0;0.000221519;0; 
2743;2746;2019/11/20 17:01:01;0;-1;-1;-1;-1;-1;100;0;0;0;0;0;0;0;0;0;0;0;0;0;0;1;306.571;156;7.36324;303.657;156.184;0;4;1;0.797261;-0.21158;-2.69605;0.828823;-0.158;-2.70899;-0.901209;-0.859579;1.06847;-1.77564;-0.558024;-0.366934;2;4;5;5;0;3;0;0;0;675;304;1024;1024;1024;224;1024;1024;1024;1824;3;0;0;0.000221519;0; 
2744;2747;2019/11/20 17:01:01;0;-1;-1;-1;-1;-1;100;0;0;0;0;0;0;0;0;0;0;0;0;0;0;1;309;159;7.44715;306.196;159.5;0;5;1;0.771986;-0.21489;-2.65401;0.811772;-0.17506;-2.69249;-0.892307;-0.896519;0.973431;-1.52751;-0.486397;-0.598517;2;4;5;5;0;3;0;0;0;675;304;1024;1024;1024;224;1024;1024;1024;1824;3;0;0;0.000221519;0; 
2745;2748;2019/11/20 17:01:01;0;-1;-1;-1;-1;-1;100;0;0;0;0;0;0;0;0;0;0;0;0;0;0;1;311.333;162.667;7.5;308.731;162.961;0;6;1;0.751004;-0.22659;-2.62115;0.793542;-0.19052;-2.67109;-0.898638;-0.917539;0.928277;-1.20052;-0.51046;-1.0942;2;4;5;5;0;3;0;0;0;675;304;1024;1024;1024;224;1024;1024;1024;1824;3;0;0;0.000221519;0; 
2746;2749;2019/11/20 17:01:01;0;-1;-1;-1;-1;-1;100;0;0;0;0;0;0;0;0;0;0;0;0;0;0;1;313;165;7.63155;311.055;166.103;0;7;1;0.727148;-0.21875;-2.56711;0.773624;-0.19899;-2.6399;-0.961063;-0.951351;1.0001;-1.24779;-0.8057;-1.18228;2;4;5;5;0;3;0;0;0;675;304;1024;1024;1024;224;1024;1024;1024;1824;3;0;0;0.000221519;0; 
2747;2750;2019/11/20 17:01:01;0;-1;-1;-1;-1;-1;100;0;0;0;0;0;0;0;0;0;0;0;0;0;0;1;315;168;7.48465;313.332;169.226;0;8;1;0.728071;-0.25801;-2.6059;0.759958;-0.2167;-2.6297;-0.984432;-0.945946;1.04841;-1.21996;-0.96662;-1.09097;2;4;5;5;0;3;0;0;0;675;304;1024;1024;1024;224;1024;1024;1024;1824;3;0;0;0.000221519;0; 
2748;2751;2019/11/20 17:01:01;0;-1;-1;-1;-1;-1;100;0;0;0;0;0;0;0;0;0;0;0;0;0;0;1;317;171;7.57265;315.574;172.336;0;9;1;0.706417;-0.2601;-2.56414;0.743895;-0.22972;-2.61003;-0.983758;-0.945634;1.04628;-1.07123;-1.07678;-1.07331;2;4;5;5;0;3;0;0;0;675;304;1024;1024;1024;224;1024;1024;1024;1824;3;0;0;0.000221519;0; 
2749;2752;2019/11/20 17:01:01;0;-1;-1;-1;-1;-1;100;0;0;0;0;0;0;0;0;0;0;0;0;0;0;1;319;173;7.59444;317.79;175.116;0;10;1;0.691233;-0.26735;-2.54916;0.728097;-0.24101;-2.59177;-0.992425;-0.898826;1.09578;-1.00694;-0.802773;-0.534974;2;4;5;5;0;3;0;0;0;675;304;1024;1024;1024;224;1024;1024;1024;1824;3;0;0;0.000221519;0; 
2750;2753;2019/11/20 17:01:01;0;-1;-1;-1;-1;-1;100;0;0;0;0;0;0;0;0;0;0;0;0;0;0;1;321;177;7.49487;319.984;178.294;0;11;1;0.687085;-0.30525;-2.56757;0.715793;-0.26028;-2.58451;-0.978671;-0.879539;1.08861;-0.948991;-0.413866;0.138883;2;4;5;5;0;3;0;0;0;675;304;1024;1024;1024;224;1024;1024;1024;1824;3;0;0;0.000221519;0; 
2751;2754;2019/11/20 17:01:01;0;-1;-1;-1;-1;-1;100;0;0;0;0;0;0;0;0;0;0;0;0;0;0;1;323;179;7.68943;322.161;181.123;0;12;1;0.656707;-0.28408;-2.49508;0.698067;-0.26742;-2.55768;-0.968405;-0.834755;1.10598;-0.847952;0.0822138;0.792841;2;4;5;5;0;3;0;0;0;675;304;1024;1024;1024;224;1024;1024;1024;1824;3;0;0;0.000221519;0; 
2752;2755;2019/11/20 17:01:01;0;-1;-1;-1;-1;-1;100;0;0;0;0;0;0;0;0;0;0;0;0;0;0;1;325;183;7.50453;324.324;184.335;0;13;1;0.659573;-0.33618;-2.54112;0.686519;-0.28805;-2.55271;-0.928826;-0.856433;1.0117;-0.380059;0.428308;0.522006;2;4;5;5;0;3;0;0;0;675;304;1024;1024;1024;224;1024;1024;1024;1824;3;0;0;0.000221519;0; 
2753;2756;2019/11/20 17:01:01;0;-1;-1;-1;-1;-1;100;0;0;0;0;0;0;0;0;0;0;0;0;0;0;1;326;186;7.62596;326.155;187.506;0;14;1;0.642519;-0.33172;-2.48926;0.673319;-0.30115;-2.53368;-0.903219;-0.851052;0.990397;0.0962212;0.635872;0.081568;2;4;5;5;0;3;0;0;0;675;304;1024;1024;1024;224;1024;1024;1024;1824;3;0;0;0.000221519;0; 
2754;2757;2019/11/20 17:01:01;0;-1;-1;-1;-1;-1;100;0;0;0;0;0;0;0;0;0;0;0;0;0;0;1;327;189;7.49665;327.744;190.645;0;15;1;0.646939;-0.37012;-2.52062;0.665405;-0.32184;-2.52976;-0.855322;-0.878446;0.91474;0.570541;0.649788;-0.476254;2;4;5;5;0;3;0;0;0;675;304;1024;1024;1024;224;1024;1024;1024;1824;3;0;0;0.000221519;0; 
2755;2758;2019/11/20 17:01:01;0;-1;-1;-1;-1;-1;100;0;0;0;0;0;0;0;0;0;0;0;0;0;0;1;329;192;7.75878;329.476;193.761;0;16;1;0.612204;-0.34126;-2.42426;0.649445;-0.32767;-2.49811;-0.827229;-0.873068;0.922802;1.00191;0.492719;-0.976394;2;4;5;5;0;3;0;0;0;675;304;1024;1024;1024;224;1024;1024;1024;1824;3;0;0;0.000221519;0; 
2756;2759;2019/11/20 17:01:01;0;-1;-1;-1;-1;-1;100;0;0;0;0;0;0;0;0;0;0;0;0;0;0;1;330.8;195.6;7.63117;331.247;197.05;0;17;1;0.610658;-0.38206;-2.45114;0.637809;-0.34398;-2.48402;-0.807707;-0.85804;0.954915;1.28375;0.381468;-1.11963;2;4;5;5;0;3;0;0;0;675;304;1024;1024;1024;224;1024;1024;1024;1824;3;0;0;0.000221519;0; 
2757;2760;2019/11/20 17:01:01;0;-1;-1;-1;-1;-1;100;0;0;0;0;0;0;0;0;0;0;0;0;0;0;1;332;199;7.79724;332.855;200.4;0;18;1;0.589964;-0.37144;-2.38631;0.623455;-0.35222;-2.45471;-0.782529;-0.853405;0.984094;1.5124;0.154413;-1.15843;2;4;5;5;0;3;0;0;0;675;304;1024;1024;1024;224;1024;1024;1024;1824;3;0;0;0.000221519;0; 
2758;2761;2019/11/20 17:01:01;0;-1;-1;-1;-1;-1;100;0;0;0;0;0;0;0;0;0;0;0;0;0;0;1;334;201;7.78795;334.598;203.347;0;19;1;0.577838;-0.38347;-2.38172;0.60977;-0.36159;-2.43281;-0.775954;-0.805691;1.06919;1.51782;0.295244;-0.465513;2;4;5;5;0;3;0;0;0;675;304;1024;1024;1024;224;1024;1024;1024;1824;3;0;0;0.000221519;0; 
2759;2762;2019/11/20 17:01:01;0;-1;-1;-1;-1;-1;100;0;0;0;0;0;0;0;0;0;0;0;0;0;0;1;334.5;206;7.83747;335.96;206.956;0;20;1;0.571;-0.40102;-2.3482;0.598139;-0.37342;-2.40743;-0.765745;-0.771975;1.14559;1.45959;0.492877;0.340343;2;4;5;5;0;3;0;0;0;675;304;1024;1024;1024;224;1024;1024;1024;1824;3;0;0;0.000221519;0; 
2760;2763;2019/11/20 17:01:01;0;-1;-1;-1;-1;-1;100;0;0;0;0;0;0;0;0;0;0;0;0;0;0;1;337;209;7.9471;337.685;210.409;0;21;1;0.547407;-0.39775;-2.30487;0.582919;-0.38072;-2.37666;-0.788789;-0.698269;1.29863;1.1414;1.01512;1.73696;2;4;1;7;0;6;0;0;0;675;618;1062;1227;1024;224;1024;1024;1024;1824;3;0;0;0.000221519;0; 
2761;2764;2019/11/20 17:01:01;0;-1;-1;-1;-1;-1;101;0;0;0;0;0;0;0;0;0;0;0;0;0;0;3;338.667;213.333;7.81653;339.405;214.171;0;22;1;0.545899;-0.44283;-2.32733;0.571813;-0.39935;-2.36186;-0.783233;-0.705181;1.32318;0.860503;1.2794;2.64077;4;4;5;7;0;6;0;0;0;675;618;1061;1258;1024;224;1024;1024;1024;1824;3;0;0;2.8026E-45;0; 
2762;2765;2019/11/20 17:01:01;0;-1;-1;-1;-1;-1;102;0;0;0;0;0;0;0;0;0;0;0;0;0;0;3;340;216;8.21285;341.015;217.624;0;23;1;0.511446;-0.38884;-2.20562;0.553703;-0.3962;-2.31499;-0.805749;-0.631582;1.4688;0.52412;1.67182;3.63625;4;4;1;7;0;6;0.511446;-1.43884;-2.20562;675;618;1097;1115;1024;224;1024;1024;1024;1824;3;0;0;0;0; 
2763;2766;2019/11/20 17:01:01;0;-1;-1;-1;-1;-1;103;0;0;0;0;0;0;0;0;0;0;0;0;0;0;3;343;221;8.18404;343.077;221.596;0;24;1;0.494933;-0.41842;-2.19569;0.536072;-0.40286;-2.2792;-0.832345;-0.581155;1.58203;0.11557;2.09011;4.56915;4;4;1;7;0;6;0.494933;-1.46842;-2.19569;675;618;1116;1092;1024;224;1024;1024;1024;1824;3;0;0;0;0; 
2764;2767;2019/11/20 17:01:01;0;-1;-1;-1;-1;-1;104;0;0;0;0;0;0;0;0;0;0;0;0;0;0;3;343.333;222.667;8.27984;344.615;224.88;0;25;1;0.487196;-0.41078;-2.16446;0.521409;-0.40524;-2.24478;-0.852205;-0.522952;1.69998;-0.235107;2.38297;5.26008;4;4;1;7;0;6;0.487196;-1.46078;-2.16446;675;618;1121;1044;1024;224;1024;1024;1024;1824;3;0;0;0;0; 
2765;2768;2019/11/20 17:01:01;0;-1;-1;-1;-1;-1;105;0;0;0;0;0;0;0;0;0;0;0;0;0;0;3;346;227;8.30022;346.517;228.513;0;26;1;0.46995;-0.42869;-2.14403;0.505972;-0.41228;-2.21455;-0.879321;-0.468907;1.79008;-0.594538;2.63984;5.72932;4;5;1;7;0;7;0.46995;-1.47869;-2.14403;675;618;1143;1012;1024;224;1024;1024;1024;1824;3;0;0;0;0; 
2766;2769;2019/11/20 17:01:01;0;-1;-1;-1;-1;-1;106;0;0;0;0;0;0;0;0;0;0;0;0;0;0;3;348;230;8.40825;348.469;231.974;0;27;1;0.452029;-0.42551;-2.10615;0.489789;-0.41624;-2.18203;-0.899437;-0.42319;1.85116;-0.798512;2.68222;5.64367;4;5;1;7;0;7;0.452029;-1.37551;-2.10615;675;1824;1143;1012;1024;224;1024;1024;1024;1824;3;0;0;0;0; 
2767;2770;2019/11/20 17:01:01;0;-1;-1;-1;-1;-1;107;0;0;0;0;0;0;0;0;0;0;0;0;0;0;3;351;233;8.38442;350.777;235.308;0;28;1;0.435439;-0.44398;-2.10178;0.473484;-0.42457;-2.15795;-0.932265;-0.354589;1.92483;-1.07415;3.00915;5.78843;4;5;1;7;0;7;0.435439;-1.39398;-2.10178;675;1824;1143;1012;1024;224;1024;1024;1024;1824;3;0;0;0;0; 
2768;2771;2019/11/20 17:01:01;0;-1;-1;-1;-1;-1;108;0;0;0;0;0;0;0;0;0;0;0;0;0;0;3;353;236;8.40521;353.021;238.551;0;29;1;0.422475;-0.45506;-2.08624;0.458181;-0.43372;-2.13644;-0.940752;-0.362556;1.86778;-1.18352;2.87963;5.06609;4;5;1;7;0;7;0.422475;-1.40506;-2.08624;675;1824;1143;1012;1024;224;1024;1024;1024;1824;3;0;0;0;0; 
2769;2772;2019/11/20 17:01:01;0;-1;-1;-1;-1;-1;109;0;0;0;0;0;0;0;0;0;0;0;0;0;0;3;356;240;8.45923;355.538;242.044;0;30;1;0.40206;-0.46534;-2.05923;0.441345;-0.4432;-2.11328;-0.942671;-0.3786;1.78314;-1.15061;2.53652;3.84263;4;5;1;7;0;7;0.40206;-1.41534;-2.05923;675;1824;1143;1012;1024;224;1024;1024;1024;1824;3;0;0;0;0; 
2770;2773;2019/11/20 17:01:01;0;-1;-1;-1;-1;-1;110;0;0;0;0;0;0;0;0;0;0;0;0;0;0;3;358.8;244.4;8.45763;358.186;245.847;0;31;1;0.385597;-0.48679;-2.04455;0.42462;-0.45628;-2.09266;-0.952055;-0.430949;1.67724;-1.08904;1.88926;2.21479;4;5;1;7;0;7;0.385597;-1.43679;-2.04455;675;1824;1143;1012;1024;224;1024;1024;1024;1824;3;0;0;0;0; 
2771;2774;2019/11/20 17:01:01;0;-1;-1;-1;-1;-1;111;0;0;0;0;0;0;0;0;0;0;0;0;0;0;3;363;248;8.49917;361.375;249.618;0;32;1;0.359025;-0.49701;-2.0223;0.404942;-0.4685;-2.07155;-0.974617;-0.48305;1.57731;-1.03392;1.07708;0.479315;4;5;1;7;0;8;0.359025;-1.44701;-2.0223;675;1824;1143;1012;1024;224;1024;1024;1024;1824;3;0;0;0;0; 
2772;2775;2019/11/20 17:01:01;0;-1;-1;-1;-1;-1;112;0;0;0;0;0;0;0;0;0;0;0;0;0;0;3;364.8;250.4;8.51579;364.187;252.981;0;33;1;0.347765;-0.50566;-2.01019;0.387789;-0.47965;-2.05314;-0.992027;-0.542978;1.46099;-0.990032;0.167972;-1.27021;4;5;1;7;0;8;0.347765;-1.45566;-2.01019;675;618;1143;1012;1024;224;1024;1024;1024;1824;3;0;0;0;0; 
2773;2776;2019/11/20 17:01:01;0;-1;-1;-1;-1;-1;113;0;0;0;0;0;0;0;0;0;0;0;0;0;0;3;370;252.571;8.53039;367.809;255.975;0;34;1;0.316717;-0.51353;-1.99938;0.366467;-0.48981;-2.03702;-1.0225;-0.586298;1.35947;-0.954311;-0.824365;-3.01944;4;5;1;7;0;8;0.316717;-1.46353;-1.99938;675;618;1143;1012;1024;224;1024;1024;1024;1824;3;0;0;0;0; 
2774;2777;2019/11/20 17:01:01;0;-1;-1;-1;-1;-1;114;0;0;0;0;0;0;0;0;0;0;0;0;0;0;3;374;255;8.33365;371.633;258.784;0;35;1;0.300215;-0.55995;-2.03814;0.346591;-0.51085;-2.03735;-1.05905;-0.659765;1.21131;-1.04491;-1.68129;-4.43276;4;5;1;7;0;8;0.300215;-1.50995;-2.03814;675;618;1143;1012;1024;224;1024;1024;1024;1824;3;0;0;0;0; 
2775;2778;2019/11/20 17:01:01;0;-1;-1;-1;-1;-1;115;0;0;0;0;0;0;0;0;0;0;0;0;0;0;3;380;256.571;8.29567;376.237;261.183;0;36;1;0.265457;-0.57457;-2.04199;0.322251;-0.52997;-2.03874;-1.11093;-0.742286;1.02438;-1.29877;-2.46087;-5.6892;4;5;1;7;0;8;0.265457;-1.52457;-2.04199;675;618;1143;1012;1024;224;1024;1024;1024;1824;3;0;0;0;0; 
2776;2779;2019/11/20 17:01:01;0;-1;-1;-1;-1;-1;116;0;0;0;0;0;0;0;0;0;0;0;0;0;0;3;385;257;8.53218;381.084;262.924;0;37;1;0.228823;-0.53435;-1.98393;0.294223;-0.53128;-2.0223;-1.1872;-0.744847;0.895551;-1.71813;-2.72983;-6.53459;4;5;1;7;0;8;0.228823;-1.48435;-1.98393;675;618;1143;1012;1024;224;1024;1024;1024;1824;3;0;0;0;0; 
2777;2780;2019/11/20 17:01:01;0;-1;-1;-1;-1;-1;117;0;0;0;0;0;0;0;0;0;0;0;0;0;0;3;391;257;8.4108;386.42;264.051;0;38;1;0.196487;-0.55578;-2.01256;0.264902;-0.53863;-2.01938;-1.27146;-0.726931;0.745638;-2.21608;-2.61164;-7.24137;4;5;1;7;0;9;0.196487;-1.50578;-2.01256;675;618;1143;1012;1024;224;1024;1024;1024;1824;3;0;0;0;0; 
2778;2781;2019/11/20 17:01:01;0;360.645;333.548;8.37402;360.645;333.548;0;1;1;0.378439;-1.88453;-1.75672;0.378439;-1.88453;-1.75672;0;0;0;0;0;0;5;397;257;8.31181;392.107;264.736;0;39;1;0.162765;-0.57371;-2.03653;0.234261;-0.54916;-2.02453;-1.37587;-0.713686;0.561648;-2.86221;-2.24857;-7.93566;4;5;1;7;1;17;0.162765;-1.52371;-2.03653;675;618;1024;1024;1024;224;1024;1024;1024;1824;3;0;46.439;0;0; 
2779;2782;2019/11/20 17:01:01;0;363.636;325.309;8.39663;360.917;332.799;0;2;1;0.359623;-1.83951;-1.78041;0.372794;-1.87103;-1.76383;0;0;0;0;0;0;5;404;255.5;7.72011;398.359;264.625;0;40;1;0.129943;-0.68258;-2.19825;0.202965;-0.58918;-2.07664;-1.47834;-0.824973;0.178771;-3.53734;-2.3021;-9.47561;4;5;5;7;1;18;0.162765;-1.52371;-2.03653;675;722;1098;1053;1024;224;1024;1024;1024;1824;3;0;0.0166965;0;0; 
2780;2783;2019/11/20 17:01:01;0;365.491;321.309;8.46177;361.652;330.952;0;3;1;0.345906;-1.80611;-1.78039;0.364728;-1.85155;-1.7688;0;0;0;0;0;0;5;408;255;8.11297;404.059;264.262;0;41;1;0.0990197;-0.60102;-2.09358;0.171782;-0.59273;-2.08172;-1.58497;-0.821914;-0.0698995;-4.22224;-2.02868;-10.8009;4;5;5;7;1;18;0.162765;-1.52371;-2.03653;675;576;1032;1071;1024;224;1024;1024;1024;1824;3;0;0.0166978;0;0; 
2781;2784;2019/11/20 17:01:01;0;367.273;317.309;8.4721;362.822;328.113;0;4;1;0.334977;-1.78468;-1.79189;0.355803;-1.83149;-1.77572;0;0;0;0;0;0;5;414;253.5;7.89362;409.988;263.402;0;42;1;0.0637985;-0.63638;-2.15726;0.139387;-0.60583;-2.10439;-1.6811;-0.796037;-0.304026;-4.80986;-1.43182;-11.7844;4;5;5;11;1;18;0.162765;-1.52371;-2.03653;495;549;990;1053;1024;224;1024;1024;1024;1824;3;0;0.0166965;0;0; 
2782;2785;2019/11/20 17:01:01;0;369.259;313.444;8.48844;364.355;324.619;0;5;1;0.322641;-1.76271;-1.80162;0.345854;-1.81086;-1.78349;0;0;0;0;0;0;5;419;251;7.79283;415.76;261.87;0;43;1;0.0325703;-0.64384;-2.19445;0.107342;-0.61723;-2.13141;-1.7548;-0.820778;-0.618027;-5.15214;-1.16226;-13.1138;4;5;5;11;1;18;0.0325703;-1.59384;-2.19445;495;786;1596;1201;1024;224;1024;1024;1024;1824;3;0;0.0167002;0;0; 
2783;2786;2019/11/20 17:01:01;0;371.444;309.556;8.51353;366.176;320.747;0;6;1;0.308867;-1.73892;-1.80954;0.334758;-1.78928;-1.79131;0;0;0;0;0;0;5;424;249;7.62477;421.411;260.015;0;44;1;0.000528467;-0.66829;-2.25041;0.0752978;-0.63255;-2.16711;-1.8099;-0.867443;-0.960639;-5.24107;-1.25836;-14.6808;4;5;5;11;1;18;0.000528467;-1.61829;-2.25041;495;691;1589;1239;1024;224;1024;1024;1024;1824;3;0;0.0166965;0;0; 
2784;2787;2019/11/20 17:01:01;0;373.455;305.236;8.51657;368.136;316.569;0;7;1;0.296967;-1.71765;-1.82358;0.323421;-1.76779;-1.80099;0;0;0;0;0;0;5;428.4;245.2;7.5665;426.777;257.361;0;45;1;-0.028518;-0.66031;-2.28229;0.0441531;-0.64088;-2.20166;-1.84497;-0.886674;-1.28362;-5.01757;-1.44569;-16.1759;4;5;5;11;1;18;-0.028518;-1.61031;-2.28229;495;613;1538;1207;1024;224;1024;1024;1024;1824;3;0;0.0166975;0;0; 
2785;2788;2019/11/20 17:01:01;0;376.267;300.667;8.55279;370.394;312.142;0;8;1;0.279283;-1.68863;-1.83132;0.310179;-1.74404;-1.81009;-0.62499;1.2675;-0.461735;-2.86384;4.5769;-0.361665;5;432;242;7.79477;431.677;254.326;0;46;1;-0.0507555;-0.59644;-2.22734;0.0156805;-0.62754;-2.20936;-1.85473;-0.685165;-1.30008;-4.51335;-0.309219;-15.61;4;5;5;11;1;18;-0.0507555;-1.54644;-2.22734;495;708;1298;1044;1024;224;1024;1024;1024;1824;3;0;0.0166968;0;0; 
2786;2789;2019/11/20 17:01:01;0;378.769;295.846;8.57879;372.782;307.485;0;9;1;0.263863;-1.66063;-1.84204;0.296285;-1.71902;-1.81967;-0.648261;1.28965;-0.480175;-2.37778;3.2383;-0.946325;5;436.571;238;7.8872;436.546;250.77;0;47;1;-0.079116;-0.55767;-2.21592;-0.0127584;-0.60658;-2.21133;-1.84964;-0.466386;-1.29751;-3.76474;1.23395;-14.2674;4;5;5;11;1;18;-0.079116;-1.50767;-2.21592;495;741;1268;1030;1024;224;1024;1024;1024;1824;3;0;0.0166975;0;0; 
2787;2790;2019/11/20 17:01:01;0;381.616;291.014;8.6602;375.358;302.664;0;10;1;0.244959;-1.62231;-1.84088;0.280887;-1.69001;-1.82604;-0.688066;1.33868;-0.488985;-2.0396;2.49082;-0.863564;5;441;235;7.69531;441.341;247.164;0;48;1;-0.109839;-0.57939;-2.28246;-0.0418825;-0.59842;-2.23267;-1.83352;-0.25027;-1.2907;-2.86739;2.91941;-12.4998;4;5;5;11;1;18;-0.109839;-1.52939;-2.28246;495;544;1484;1211;1024;224;1024;1024;1024;1824;3;0;0.0166965;0;0; 
2788;2791;2019/11/20 17:01:01;0;384.478;286.597;8.81012;378.077;297.843;0;11;1;0.224566;-1.57429;-1.82407;0.263991;-1.65529;-1.82545;-0.739697;1.42433;-0.460903;-1.79867;2.24837;-0.500997;5;445;233;7.72569;445.945;243.85;0;49;1;-0.135272;-0.56284;-2.28098;-0.0698994;-0.58775;-2.24716;-1.80778;-0.0324464;-1.23661;-1.93197;4.89922;-9.96971;4;5;5;11;1;18;-0.135272;-1.51284;-2.28098;495;511;1502;1232;1024;224;1024;1024;1024;1824;3;0;0.0166978;0;0; 
2789;2792;2019/11/20 17:01:01;0;387.25;282.156;8.93729;380.878;293.013;0;12;1;0.205874;-1.53166;-1.81251;0.246556;-1.6182;-1.82157;-0.795985;1.53764;-0.397357;-1.60391;2.32765;-0.0187801;5;450.667;229.333;7.97652;450.939;240.227;0;50;1;-0.166509;-0.49655;-2.22257;-0.0988822;-0.56039;-2.23978;-1.78012;0.268642;-1.03214;-1.04029;7.47559;-6.26732;4;5;5;11;1;18;-0.166509;-1.44655;-2.22257;495;654;1311;1044;1024;224;1024;1024;1024;1824;3;0;0.0166965;0;0; 
2790;2793;2019/11/20 17:01:01;0;390.508;276.921;9.04391;383.882;287.946;0;13;1;0.18545;-1.49004;-1.8079;0.228224;-1.57975;-1.81747;-0.857684;1.67336;-0.304205;-1.6758;2.94003;1.08908;5;453.667;228.333;7.69105;455.363;237.239;0;51;1;-0.192175;-0.54495;-2.30882;-0.12687;-0.55576;-2.2605;-1.75092;0.501037;-0.854196;-0.248669;10.0261;-2.04584;4;5;5;11;1;18;-0.192175;-1.49495;-2.30882;495;556;1545;1369;1024;224;1024;1024;1024;1824;3;0;0.0166975;0;0; 
2791;2794;2019/11/20 17:01:01;0;394.459;272.754;9.08692;387.239;283.01;0;14;1;0.162851;-1.46432;-1.81262;0.208612;-1.54512;-1.81601;-0.920139;1.79824;-0.206171;-2.18393;3.8831;1.67384;5;458;226;8.02018;459.796;234.294;0;52;1;-0.211281;-0.47176;-2.2225;-0.152193;-0.53056;-2.2491;-1.72082;0.687861;-0.671163;0.385465;11.4977;1.28358;4;5;5;11;1;18;-0.211281;-1.42176;-2.2225;495;638;1231;1007;1024;224;1024;1024;1024;1824;3;0;0.0166968;0;0; 
2792;2795;2019/11/20 17:01:01;0;398.467;268.233;9.17873;390.879;278.066;0;15;1;0.139409;-1.42962;-1.80875;0.187851;-1.51047;-1.81383;-0.985026;1.91161;-0.100377;-2.65496;4.81318;2.52073;5;463.333;225.333;7.69765;464.552;231.919;0;53;1;-0.254747;-0.5278;-2.31813;-0.182959;-0.52973;-2.26981;-1.71206;0.719556;-0.636179;0.780598;11.6338;3.41066;4;5;5;11;1;18;-0.254747;-1.4778;-2.31813;495;577;1566;1331;1024;224;1024;1024;1024;1824;3;0;0.0166975;0;0; 
2793;2796;2019/11/20 17:01:01;0;403.267;263.567;9.23874;394.962;273.07;0;16;1;0.112549;-1.39977;-1.81162;0.16526;-1.47726;-1.81317;-1.05268;1.99639;-0.0088512;-3.04877;5.51396;3.42947;5;469;227;7.65259;469.649;230.709;0;54;1;-0.29324;-0.54537;-2.32547;-0.216043;-0.53442;-2.28651;-1.72261;0.687271;-0.596665;0.911198;10.7236;4.81746;4;5;5;11;1;18;-0.29324;-1.49537;-2.32547;495;589;1607;1264;1024;224;1024;1024;1024;1824;3;0;0.0166965;0;0; 
2794;2797;2019/11/20 17:01:01;0;408.14;259.649;9.24934;399.397;268.257;0;17;1;0.0860961;-1.38092;-1.82181;0.141511;-1.44836;-1.81576;-1.12063;2.02405;0.0333594;-3.35023;5.70288;4.03113;5;474;229;8.13439;474.776;230.455;0;55;1;-0.306578;-0.46681;-2.18062;-0.243204;-0.51414;-2.25474;-1.72552;0.706264;-0.388251;0.875173;9.38362;6.27773;4;5;5;11;1;18;-0.306578;-1.41681;-2.18062;495;660;1190;882;1024;224;1024;1024;1024;1824;3;0;0.0166975;0;0; 
2795;2798;2019/11/20 17:01:01;0;413.088;255.053;9.24782;404.116;263.377;0;18;1;0.0593844;-1.36092;-1.8365;0.116873;-1.42213;-1.82198;-1.19016;1.99731;0.0183412;-3.58398;5.25703;4.07844;5;478;230;8.11874;479.604;230.577;0;56;1;-0.331783;-0.47456;-2.18125;-0.269778;-0.50226;-2.23269;-1.71765;0.655837;-0.204643;0.774538;7.17613;7.0706;4;5;5;11;1;18;-0.331783;-1.42456;-2.18125;495;518;1312;900;1024;224;1024;1024;1024;1824;3;0;0.0166968;0;0; 
2796;2799;2019/11/20 17:01:01;0;418.632;250.912;9.27542;409.222;258.584;0;19;1;0.0293485;-1.33869;-1.84396;0.0906157;-1.3971;-1.82858;-1.26353;1.92768;-0.033366;-3.77081;4.16963;3.52845;5;484;235;7.992;484.851;232.248;0;57;1;-0.374549;-0.52262;-2.19773;-0.301209;-0.50837;-2.22221;-1.72667;0.58271;0.0301001;0.561527;4.63177;7.7731;4;5;5;11;1;18;-0.374549;-1.47262;-2.19773;495;530;1656;1029;1024;224;1024;1024;1024;1824;3;0;0.0166975;0;0; 
2797;2800;2019/11/20 17:01:01;0;424.407;246.814;9.31634;414.684;253.87;0;20;1;-0.00174871;-1.3149;-1.8486;0.0629064;-1.37244;-1.83459;-1.33988;1.84609;-0.0941808;-3.93839;2.69281;2.56421;5;487.75;238.25;8.25258;489.682;234.485;0;58;1;-0.385423;-0.49215;-2.11693;-0.326473;-0.5035;-2.19062;-1.73185;0.457647;0.251531;0.292872;1.85988;8.34792;4;5;5;11;1;18;-0.385423;-1.44215;-2.11693;495;448;1291;703;1024;224;1024;1024;1024;1824;3;0;0.0166965;0;0; 
2798;2801;2019/11/20 17:01:01;0;430.517;242.966;9.30789;420.507;249.29;0;21;1;-0.0345463;-1.29927;-1.86225;0.0336706;-1.35049;-1.84289;-1.41953;1.74642;-0.172509;-4.09787;0.956144;1.25053;5;492.4;242.8;8.0968;494.495;237.543;0;59;1;-0.421529;-0.54277;-2.14139;-0.35499;-0.51529;-2.17585;-1.72598;0.332269;0.526046;0.120128;-0.430395;9.64918;4;5;5;11;1;18;-0.421529;-1.49277;-2.14139;495;524;1664;937;1024;224;1024;1024;1024;1824;3;0;0.0166978;0;0; 
2799;2802;2019/11/20 17:01:01;0;436.847;239.051;9.32308;426.662;244.792;0;22;1;-0.0684101;-1.28006;-1.87137;0.00304636;-1.32936;-1.85143;-1.49939;1.63839;-0.256273;-4.24231;-0.855702;-0.237567;5;497;249;8.1119;499.278;241.72;0;60;1;-0.449074;-0.57111;-2.11528;-0.383215;-0.53203;-2.15768;-1.70306;0.208906;0.829997;0.15014;-2.16821;11.4858;4;5;5;11;1;18;-0.449074;-1.52111;-2.11528;495;559;1631;791;1024;224;1024;1024;1024;1824;3;0;0.0166965;0;0; 
2800;2803;2019/11/20 17:01:02;0;444.138;236.034;9.32892;433.352;240.631;0;23;1;-0.107408;-1.26609;-1.87956;-0.0300901;-1.31038;-1.85987;-1.58479;1.53396;-0.329878;-4.39862;-2.47023;-1.59284;5;501;253;8.25269;503.847;245.999;0;61;1;-0.465626;-0.56489;-2.06515;-0.407939;-0.54189;-2.12992;-1.67957;0.0145413;0.99636;0.273548;-4.06277;12.4198;4;5;5;11;1;18;-0.465626;-1.51489;-2.06515;495;428;1105;393;1024;224;1024;1024;1024;1824;3;0;0.0166975;0;0; 
2801;2804;2019/11/20 17:01:02;0;450.75;232.786;9.28114;440.221;236.648;0;24;1;-0.143552;-1.25836;-1.89938;-0.0641286;-1.29477;-1.87172;-1.67356;1.42886;-0.396518;-4.56923;-3.75176;-2.61212;5;508;256;8.29408;509.215;250.027;0;62;1;-0.505465;-0.57206;-2.04438;-0.437197;-0.55094;-2.10426;-1.6762;-0.185626;1.11062;0.329626;-5.79738;12.7034;4;5;5;11;1;18;-0.505465;-1.52206;-2.04438;495;432;1456;615;1024;224;1024;1024;1024;1824;3;0;0.0166968;0;0; 
2802;2805;2019/11/20 17:01:02;0;458.621;230.034;9.25038;447.605;232.951;0;25;1;-0.186535;-1.25044;-1.9143;-0.100851;-1.28147;-1.8845;-1.7686;1.31898;-0.46118;-4.75816;-4.68141;-3.27541;5;513;259;8.42717;514.523;253.867;0;63;1;-0.527123;-0.56251;-2.00178;-0.464174;-0.55441;-2.07352;-1.65639;-0.29521;1.26005;0.478387;-6.98371;12.5328;4;5;5;11;1;18;-0.527123;-1.51251;-2.00178;495;446;1047;626;1024;224;1024;1024;1024;1824;3;0;0.0166975;0;0; 
2803;2806;2019/11/20 17:01:02;0;466.235;227.059;9.22716;455.283;229.398;0;26;1;-0.228231;-1.24045;-1.92846;-0.139065;-1.26917;-1.89769;-1.86757;1.20373;-0.528649;-4.96183;-5.3736;-3.69995;5;519.667;261.667;8.30072;520.317;257.457;0;64;1;-0.575276;-0.59863;-2.02297;-0.497505;-0.56768;-2.05835;-1.67672;-0.433358;1.28415;0.507188;-7.74775;11.6426;4;5;5;11;1;18;-0.575276;-1.54863;-2.02297;495;465;1617;780;1024;224;1024;1024;1024;1824;3;0;0.0166965;0;0; 
2804;2807;2019/11/20 17:01:02;0;474.125;224.917;9.17288;463.255;226.211;0;27;1;-0.27255;-1.23829;-1.94663;-0.17911;-1.2599;-1.91237;-1.97012;1.08392;-0.594619;-5.17545;-5.86935;-3.90533;5;524;263;8.03203;525.717;260.436;0;65;1;-0.621472;-0.6572;-2.08584;-0.534695;-0.59453;-2.0666;-1.72354;-0.576432;1.20671;0.314064;-8.27683;9.70328;4;5;5;11;1;18;-0.621472;-1.6072;-2.08584;495;613;1636;1243;1024;224;1024;1024;1024;1824;3;0;0.0166978;0;0; 
2805;2808;2019/11/20 17:01:02;0;482.227;223.227;9.08055;471.502;223.434;0;28;1;-0.319897;-1.2433;-1.97181;-0.221346;-1.25492;-1.9302;-2.07801;0.947549;-0.67128;-5.41551;-6.27995;-4.0002;5;529.333;264.667;7.91304;531.147;263.073;0;66;1;-0.664488;-0.68994;-2.11111;-0.573633;-0.62316;-2.07995;-1.79441;-0.709684;1.03437;-0.176291;-8.63376;6.63799;4;5;5;11;1;18;-0.664488;-1.63994;-2.11111;495;557;1648;1205;1024;224;1024;1024;1024;1824;3;0;0.0166965;0;0; 
2806;2809;2019/11/20 17:01:02;0;490.19;221.238;9.11282;479.898;220.865;0;29;1;-0.362419;-1.23001;-1.97115;-0.263668;-1.24745;-1.94249;-2.17941;0.819781;-0.732627;-5.62347;-6.61947;-4.00818;5;534;265;7.87688;536.384;265.035;0;67;1;-0.697136;-0.69919;-2.11958;-0.610684;-0.64597;-2.09184;-1.88615;-0.841351;0.772684;-0.930568;-8.59759;3.08972;4;5;5;11;1;18;-0.697136;-1.64919;-2.11958;495;508;1599;1327;1024;224;1024;1024;1024;1824;3;0;0.0166975;0;0; 
2807;2810;2019/11/20 17:01:02;0;498.308;219.949;9.04624;488.444;218.668;0;30;1;-0.409913;-1.23326;-1.98978;-0.307542;-1.24319;-1.95668;-2.27953;0.697804;-0.77877;-5.79354;-6.8906;-3.93113;5;538;265;7.95681;541.266;266.397;0;68;1;-0.715246;-0.68262;-2.09828;-0.642053;-0.65696;-2.09377;-1.94962;-0.928125;0.505483;-1.65004;-8.12314;-0.562324;4;5;5;11;1;18;-0.715246;-1.63262;-2.09828;495;408;717;876;1024;224;1024;1024;1024;1824;3;0;0.0166965;0;0; 
2808;2811;2019/11/20 17:01:02;0;507.268;219.463;8.94604;497.357;216.996;0;31;1;-0.464542;-1.24487;-2.01364;-0.354642;-1.2437;-1.97377;-2.38103;0.569505;-0.823686;-5.92136;-7.12679;-3.80606;5;541;265;7.49358;545.57;267.324;0;69;1;-0.779461;-0.78355;-2.22799;-0.683275;-0.69494;-2.13404;-2.04458;-1.11795;0.0616437;-2.53994;-8.15885;-5.12228;4;5;5;11;1;18;-0.779461;-1.73355;-2.22799;495;685;1364;1578;1024;224;1024;1024;1024;1824;3;0;0.0166978;0;0; 
2809;2812;2019/11/20 17:01:02;0;516.791;219.209;8.96913;506.703;215.778;0;32;1;-0.516386;-1.24051;-2.00928;-0.403165;-1.24274;-1.98442;-2.48309;0.447209;-0.840516;-6.01041;-7.29663;-3.52883;5;543;265;7.44063;549.135;267.936;0;70;1;-0.798437;-0.79588;-2.24385;-0.717824;-0.72522;-2.16698;-2.10642;-1.29979;-0.39673;-3.23963;-8.35474;-9.78462;4;5;5;11;1;18;-0.798437;-1.74588;-2.24385;495;573;674;1571;1024;224;1024;1024;1024;1824;3;0;0.0166965;0;0; 
2810;2813;2019/11/20 17:01:02;0;526.6;219.55;9.06258;516.449;215.08;0;33;1;-0.565134;-1.22925;-1.98747;-0.451756;-1.23869;-1.98534;-2.57845;0.353005;-0.795641;-6.03516;-7.2963;-2.91993;5;544;264;7.4948;551.846;268.002;0;71;1;-0.799331;-0.77783;-2.23149;-0.742276;-0.74101;-2.18633;-2.09266;-1.36469;-0.716105;-3.41758;-8.16015;-13.548;4;5;5;11;1;18;-0.799331;-1.72783;-2.23149;495;512;452;1224;1024;224;1024;1024;1024;1824;3;0;0.0166975;0;0; 
2811;2814;2019/11/20 17:01:02;0;536.105;220.842;9.14483;526.379;215.057;0;34;1;-0.611977;-1.22395;-1.9655;-0.499822;-1.23427;-1.97939;-2.65895;0.294266;-0.67376;-5.94062;-6.98615;-1.76186;5;544;264;7.47768;553.621;267.991;0;72;1;-0.801161;-0.78179;-2.2366;-0.759942;-0.75324;-2.20141;-1.99947;-1.33821;-0.914627;-2.86932;-7.4056;-15.9106;4;5;5;11;1;18;-0.801161;-1.73179;-2.2366;495;556;455;1193;1024;224;1024;1024;1024;1824;3;0;0.0166968;0;0; 
2812;2815;2019/11/20 17:01:02;0;546.222;223;9.22311;536.628;215.797;0;35;1;-0.661582;-1.22308;-1.94205;-0.54835;-1.23091;-1.96818;-2.73202;0.242586;-0.506859;-5.77077;-6.49626;-0.15569;5;543;262;7.46361;554.402;267.291;0;73;1;-0.795978;-0.77414;-2.24857;-0.770752;-0.75951;-2.21556;-1.83879;-1.25628;-1.04277;-1.53251;-6.10004;-16.7949;4;5;5;11;1;18;-0.795978;-1.72414;-2.24857;495;616;490;1168;1024;224;1024;1024;1024;1824;3;0;0.0166975;0;0; 
2813;2816;2019/11/20 17:01:02;0;557.333;225.5;9.401;547.412;217.198;0;36;1;-0.708108;-1.21076;-1.8976;-0.596277;-1.22487;-1.94701;-2.79205;0.21872;-0.265517;-5.50882;-5.8106;1.95586;5;542;261;7.54597;554.466;266.411;0;74;1;-0.78067;-0.74993;-2.22787;-0.773728;-0.75664;-2.21926;-1.62901;-1.15174;-1.12668;0.360583;-4.55284;-16.5937;4;5;5;11;1;18;-0.78067;-1.69993;-2.22787;495;684;510;1132;1024;224;1024;1024;1024;1824;3;0;0.0166965;0;0; 
2814;2817;2019/11/20 17:01:02;0;568.121;229.152;9.3738;558.473;219.439;0;37;1;-0.767656;-1.23014;-1.89183;-0.647691;-1.22645;-1.93045;-2.84529;0.200096;0.0136196;-5.15894;-4.9613;4.51663;5;541;260;7.48592;554.019;265.406;0;75;1;-0.780259;-0.75813;-2.24961;-0.775687;-0.75708;-2.22836;-1.34638;-0.939176;-1.05262;3.00405;-2.01791;-14.4052;4;5;5;11;1;18;-0.780259;-1.70813;-2.24961;495;722;519;1124;1024;224;1024;1024;1024;1824;3;0;0.0166978;0;0; 
2815;2818;2019/11/20 17:01:02;0;579.871;233.355;9.4405;570.029;222.461;0;38;1;-0.82441;-1.23957;-1.86557;-0.700707;-1.23039;-1.91099;-2.89517;0.169388;0.30136;-4.74067;-4.08604;7.26916;5;540;259;7.39537;553.207;264.313;0;76;1;-0.783058;-0.77354;-2.28107;-0.777898;-0.76202;-2.24417;-1.04769;-0.710435;-0.939785;6.02962;1.14239;-10.8114;4;5;5;11;1;18;-0.783058;-1.72354;-2.28107;495;719;500;1168;1024;224;1024;1024;1024;1824;3;0;0.0166965;0;0; 
2816;2819;2019/11/20 17:01:02;0;590.345;237.793;9.45019;581.531;226.118;0;39;1;-0.878933;-1.25742;-1.85006;-0.754175;-1.2385;-1.89271;-2.94457;0.10242;0.550644;-4.30621;-3.45214;9.73682;5;539;258;7.27775;552.141;263.16;0;77;1;-0.788848;-0.7958;-2.32191;-0.781183;-0.77215;-2.2675;-0.783958;-0.550631;-0.887927;8.84304;3.93575;-7.17285;4;5;5;11;1;18;-0.788848;-1.7458;-2.32191;495;712;497;1194;1024;224;1024;1024;1024;1824;3;0;0.0166975;0;0; 
2817;2820;2019/11/20 17:01:02;0;600.929;242.143;9.50958;593.015;230.201;0;40;1;-0.929043;-1.26819;-1.82526;-0.806635;-1.2474;-1.87247;-2.99176;0.0090083;0.757254;-3.91256;-3.21023;11.5557;5;538;257;7.28977;550.898;261.968;0;78;1;-0.780695;-0.78734;-2.32206;-0.781037;-0.77671;-2.28386;-0.554601;-0.424083;-0.861958;11.0748;6.01128;-4.09342;4;5;5;11;1;18;-0.780695;-1.73734;-2.32206;495;753;523;1149;1024;224;1024;1024;1024;1824;3;0;0.0166968;0;0; 
2818;2821;2019/11/20 17:01:02;0;611.31;246.345;9.46066;604.413;234.539;0;41;1;-0.988668;-1.29283;-1.82184;-0.861245;-1.26103;-1.85728;-3.04435;-0.114846;0.897151;-3.59459;-3.35326;12.5392;5;538;257;7.28977;553.969;262.656;1;0;1;-0.780695;-0.78734;-2.32206;-0.781037;-0.77671;-2.28386;-0.554601;-0.424083;-0.861958;11.0748;6.01128;-4.09342;4;5;5;11;1;18;-0.780695;-1.73734;-2.32206;495;794;545;1105;1024;224;1024;1024;1024;1824;3;0;0.0166975;0;0; 
2819;2822;2019/11/20 17:01:02;0;621.692;251.385;9.525;615.737;239.318;0;42;1;-1.03644;-1.30563;-1.79421;-0.913804;-1.27441;-1.83836;-3.0944;-0.266721;0.97209;-3.36397;-3.95018;12.4649;5;538;254;7.03883;550.877;260.003;0;1;1;-0.808527;-0.83192;-2.41718;-0.789284;-0.79327;-2.32386;-0.396181;-0.369996;-0.887806;11.582;6.63993;-1.92571;4;5;5;11;1;18;-0.808527;-1.78192;-2.41718;495;683;517;1288;1024;224;1024;1024;1024;1824;3;0;0.0166965;0;0; 
2820;2823;2019/11/20 17:01:02;0;633.267;257.333;9.47334;627.376;244.698;0;43;1;-1.10313;-1.33832;-1.78581;-0.970602;-1.29358;-1.8226;-3.14593;-0.428084;1.0139;-3.21876;-4.87825;11.4728;5;540;254;7.0768;549.849;258.431;0;2;1;-0.818307;-0.82236;-2.40421;-0.797991;-0.802;-2.34797;-0.320744;-0.377242;-0.973168;11.4265;6.63451;-0.630062;4;5;5;11;1;18;-0.818307;-1.77236;-2.40421;495;771;566;1145;1024;224;1024;1024;1024;1824;3;0;0.0166978;0;0; 
2821;2824;2019/11/20 17:01:02;0;644.2;264.533;9.27987;639.029;250.902;0;44;1;-1.18499;-1.39781;-1.80058;-1.03492;-1.32485;-1.81599;-3.22197;-0.634024;0.987633;-3.23606;-6.13474;9.62376;5;541.333;253.333;6.9735;549.628;257.171;0;3;1;-0.83998;-0.84472;-2.44259;-0.810588;-0.81482;-2.37635;-0.311888;-0.423925;-1.09038;10.3963;5.74407;-0.507271;4;5;3;11;1;18;-0.818307;-1.77236;-2.40421;495;934;604;1075;1024;224;1024;1024;1024;1824;3;0;0.0166965;0;0; 
2822;2825;2019/11/20 17:01:02;0;654.375;272.25;9.14658;650.443;257.857;0;45;1;-1.25783;-1.45252;-1.80239;-1.10179;-1.36315;-1.81191;-3.32112;-0.878133;0.915181;-3.44506;-7.5959;7.22974;5;544;253;6.78229;550.301;256.183;0;4;1;-0.883304;-0.89332;-2.51288;-0.832403;-0.83837;-2.41731;-0.373664;-0.515639;-1.24676;8.54448;4.1131;-1.35492;4;5;3;11;1;18;-0.818307;-1.77236;-2.40421;495;999;622;1063;1024;224;1024;1024;1024;1824;3;0;0.0166975;0;0; 
2823;2826;2019/11/20 17:01:02;0;663.286;280.786;8.98122;661.271;265.606;0;46;1;-1.33055;-1.51796;-1.80806;-1.17042;-1.40959;-1.81076;-3.44516;-1.17446;0.795534;-3.87735;-9.28281;4.49069;5;546;254;6.90342;551.348;255.797;0;5;1;-0.882278;-0.86687;-2.46459;-0.847365;-0.84692;-2.4315;-0.450696;-0.565256;-1.30932;6.26722;2.41781;-2.25509;4;5;3;11;1;18;-0.818307;-1.77236;-2.40421;495;1069;645;1054;1024;224;1024;1024;1024;1824;3;0;0.0166965;0;0; 
2824;2827;2019/11/20 17:01:02;0;671.333;289.917;8.92039;671.392;274.11;0;47;1;-1.3847;-1.56998;-1.79075;-1.2347;-1.45771;-1.80475;-3.55821;-1.48996;0.687055;-4.37807;-11.0601;1.85556;5;549;255;6.94228;552.971;255.83;0;6;1;-0.898929;-0.86257;-2.44663;-0.862834;-0.85161;-2.43604;-0.550355;-0.595505;-1.30637;3.77487;0.864026;-2.87397;4;5;3;11;1;18;-0.818307;-1.77236;-2.40421;495;1052;660;1064;1024;224;1024;1024;1024;1824;3;0;0.0166978;0;0; 
2825;2828;2019/11/20 17:01:02;0;678.4;299;8.78436;680.68;283.131;0;48;1;-1.44633;-1.63639;-1.78854;-1.29819;-1.51131;-1.79989;-3.66967;-1.83986;0.565839;-4.9237;-12.9171;-0.508708;5;552;256;7.09904;555.004;256.162;0;7;1;-0.90019;-0.82828;-2.38852;-0.874041;-0.84461;-2.42178;-0.668625;-0.562294;-1.1748;1.17713;-0.249374;-2.87026;4;5;5;11;1;18;-0.90019;-1.77828;-2.38852;495;973;806;1059;1024;224;1024;1024;1024;1824;3;0;0.0166965;0;0; 
2826;2829;2019/11/20 17:01:02;0;684.824;308.118;8.69296;689.153;292.526;0;49;1;-1.49845;-1.69629;-1.77698;-1.35827;-1.56681;-1.79302;-3.74964;-2.19482;0.457615;-5.36466;-14.8044;-2.5263;5;555;257;6.90861;557.334;256.71;0;8;1;-0.946696;-0.88319;-2.45017;-0.895838;-0.85619;-2.4303;-0.791851;-0.55373;-1.03361;-1.17472;-0.85429;-1.96349;4;5;3;11;1;18;-0.90019;-1.77828;-2.38852;495;1033;752;1062;1024;224;1024;1024;1024;1824;3;0;0.0166975;0;0; 
2827;2830;2019/11/20 17:01:02;0;689.176;317.294;8.57776;696.372;302.195;0;50;1;-1.54393;-1.76263;-1.76986;-1.41397;-1.62555;-1.78607;-3.76321;-2.51751;0.394039;-5.37982;-16.4028;-3.88583;5;557;258;7.32164;559.558;257.414;0;9;1;-0.906937;-0.78533;-2.30799;-0.899167;-0.83493;-2.39361;-0.828784;-0.412547;-0.689056;-2.76865;-0.467148;0.424276;4;5;5;11;1;18;-0.906937;-1.73533;-2.30799;495;1250;802;1024;1024;224;1024;1024;1024;1824;3;0;0.0166968;0;0; 
2828;2831;2019/11/20 17:01:02;0;692.824;326.118;8.50358;702.454;311.937;0;51;1;-1.57882;-1.82025;-1.75526;-1.46342;-1.68396;-1.77683;-3.70181;-2.7914;0.376504;-4.74789;-17.4808;-4.48228;5;560.667;258.667;7.12146;562.238;258.124;0;10;1;-0.958153;-0.83792;-2.37016;-0.916863;-0.83583;-2.38657;-0.834497;-0.23739;-0.290706;-3.50116;0.830676;4.0718;4;5;3;11;1;18;-0.906937;-1.73533;-2.30799;495;1805;723;1009;1024;224;1024;1024;1024;1824;3;0;0.0166975;0;0; 
2829;2832;2019/11/20 17:01:02;0;695.6;334.267;8.46999;707.435;321.501;0;52;1;-1.60146;-1.86663;-1.73436;-1.50483;-1.73876;-1.76409;-3.5563;-2.98911;0.412229;-3.29247;-17.7339;-4.21979;5;564;259;6.82771;565.141;258.73;0;11;1;-1.02376;-0.91683;-2.47072;-0.948934;-0.86013;-2.41182;-0.906231;-0.195181;-0.0958529;-3.91951;1.97601;7.28809;4;5;3;11;1;18;-0.906937;-1.73533;-2.30799;495;1805;735;1015;1024;224;1024;1024;1024;1824;3;0;0.0166965;0;0; 
2830;2833;2019/11/20 17:01:02;0;698;342.615;8.34893;711.5;330.987;0;53;1;-1.63904;-1.93441;-1.73056;-1.54509;-1.79746;-1.75403;-3.37308;-3.14998;0.44986;-1.23633;-17.2683;-3.47893;5;566.8;259.6;6.97249;568.036;259.347;0;12;1;-1.02257;-0.88157;-2.41692;-0.971024;-0.86656;-2.41335;-0.975708;-0.176793;0.0330688;-4.05002;2.8574;9.72084;4;5;3;11;1;18;-0.906937;-1.73533;-2.30799;495;1805;753;1021;1024;224;1024;1024;1024;1824;3;0;0.0166978;0;0; 
2831;2834;2019/11/20 17:01:02;0;699.6;350.267;8.25292;714.648;340.181;0;54;1;-1.66779;-1.99466;-1.72385;-1.5819;-1.85662;-1.74498;-3.15664;-3.26868;0.489168;1.30659;-16.0658;-2.39348;5;570;260;7.05449;571.052;259.907;0;13;1;-1.03334;-0.86259;-2.38719;-0.98972;-0.86537;-2.4055;-1.0473;-0.188954;0.084848;-3.94193;3.20508;10.8619;4;5;3;11;1;18;-0.906937;-1.73533;-2.30799;495;1805;772;1026;1024;224;1024;1024;1024;1824;3;0;0.0166965;0;0; 
2832;2835;2019/11/20 17:01:02;0;699.6;350.267;8.25292;721.423;343.5;1;0;1;-1.66779;-1.99466;-1.72385;-1.5819;-1.85662;-1.74498;-3.15664;-3.26868;0.489168;1.30659;-16.0658;-2.39348;5;572.667;260.667;6.71578;573.983;260.51;0;14;1;-1.1053;-0.95805;-2.50471;-1.02439;-0.89318;-2.43526;-1.14166;-0.261057;0.0310828;-3.76185;3.0916;10.7682;4;5;3;11;1;18;-0.906937;-1.73533;-2.30799;495;1805;772;1029;1024;224;1024;1024;1024;1824;3;0;0.0166965;0;0; 
2833;2836;2019/11/20 17:01:02;0;698.903;356.194;8.20482;719.52;351.71;0;1;1;-1.67333;-2.03576;-1.71304;-1.60933;-1.91036;-1.73539;-2.7532;-3.13695;0.490697;4.1941;-12.8638;-1.32287;5;576;261;6.83705;577.065;261.038;0;15;1;-1.11005;-0.92619;-2.45888;-1.05009;-0.90308;-2.44235;-1.28759;-0.428739;-0.175957;-4.08897;1.79031;8.50956;4;2;3;11;1;18;-0.906937;-1.73533;-2.30799;495;1805;1646;1076;1024;224;1024;1024;1024;1824;3;0;0.033394;0;0; 
2834;2837;2019/11/20 17:01:02;0;702.2;353.267;7.85405;719.827;355.787;0;2;1;-1.76903;-2.1115;-1.80034;-1.65724;-1.9707;-1.75488;-2.48449;-3.06338;0.401171;6.89265;-9.58642;-0.769315;5;578.667;261.333;6.89813;580.043;261.51;0;16;1;-1.11953;-0.91155;-2.4357;-1.07092;-0.90562;-2.44035;-1.38766;-0.535903;-0.320304;-4.66202;-0.117687;4.98756;4;2;3;11;1;18;-0.906937;-1.73533;-2.30799;495;1271;1647;1080;1024;224;1024;1024;1024;1824;3;0;0.0166978;0;0; 
2835;2838;2019/11/20 17:01:02;0;707.105;350.158;8.27925;721.7;357.45;0;3;1;-1.70778;-1.98778;-1.71875;-1.6724;-1.97582;-1.74404;-2.20589;-2.83688;0.352921;9.25514;-5.90752;-0.542299;5;580.667;261.333;6.44244;582.731;261.836;0;17;1;-1.21423;-1.04322;-2.60799;-1.11391;-0.9469;-2.49064;-1.49132;-0.667988;-0.506913;-5.13329;-1.95839;1.35129;4;2;3;11;1;18;-0.906937;-1.73533;-2.30799;495;1805;705;1015;1024;224;1024;1024;1024;1824;3;0;0.0166965;0;0; 
2836;2839;2019/11/20 17:01:02;0;713.538;348.974;8.3326;724.988;358.147;0;4;1;-1.73541;-1.96927;-1.71185;-1.6913;-1.97386;-1.73438;-1.9617;-2.5067;0.313416;11.0103;-1.89353;-0.663547;5;582;262;6.47617;584.996;262.268;0;18;1;-1.21819;-1.03703;-2.59142;-1.1452;-0.97394;-2.52088;-1.59021;-0.829514;-0.733477;-5.53351;-3.78116;-2.24983;4;2;3;11;1;18;-0.906937;-1.73533;-2.30799;495;1805;697;1019;1024;224;1024;1024;1024;1824;3;0;0.0166975;0;0; 
2837;2840;2019/11/20 17:01:02;0;721.814;348;8.46947;729.807;358.221;0;5;1;-1.75618;-1.93276;-1.68752;-1.71077;-1.96153;-1.72032;-1.744;-2.06553;0.303402;12.1814;2.57523;-0.899354;5;582;261;6.42836;586.528;262.245;0;19;1;-1.22725;-1.04547;-2.6152;-1.16981;-0.9954;-2.54917;-1.67318;-1.01687;-1.01373;-5.8191;-5.57434;-5.73621;4;2;3;11;1;18;-0.906937;-1.73533;-2.30799;495;1805;1654;1085;1024;224;1024;1024;1024;1824;3;0;0.0166968;0;0; 
2838;2841;2019/11/20 17:01:02;0;731.184;346.531;8.60765;736.049;357.681;0;6;1;-1.78237;-1.89478;-1.66537;-1.73225;-1.9415;-1.70384;-1.56092;-1.52983;0.322825;12.7699;7.49602;-1.10889;5;581;260;6.51833;587.21;261.893;0;20;1;-1.20264;-1.01168;-2.58354;-1.17966;-1.00029;-2.55949;-1.62385;-1.03778;-1.10422;-5.41672;-6.44583;-7.97466;4;2;3;11;1;18;-0.906937;-1.73533;-2.30799;495;1805;1654;1130;1024;224;1024;1024;1024;1824;3;0;0.0166975;0;0; 
2839;2842;2019/11/20 17:01:02;0;741.792;345.833;8.63085;743.705;356.94;0;7;1;-1.83898;-1.8864;-1.66324;-1.76427;-1.92497;-1.69166;-1.55516;-0.976249;0.368323;12.4454;13.1247;-1.15394;5;581;260;6.4977;587.598;261.622;0;21;1;-1.20646;-1.01791;-2.59175;-1.1877;-1.00557;-2.56916;-1.52376;-1.03189;-1.16887;-4.19301;-6.27572;-8.74923;4;2;3;11;1;18;-0.906937;-1.73533;-2.30799;495;807;1493;1476;1024;224;1024;1024;1024;1824;3;0;0.0166965;0;0; 
2840;2843;2019/11/20 17:01:02;0;754.448;345.015;9.10957;753.034;356.017;0;8;1;-1.81174;-1.78361;-1.57843;-1.77851;-1.88256;-1.65769;-1.41728;-0.23384;0.609031;11.7283;19.1723;0.137562;5;580;258;6.51729;587.457;260.774;0;22;1;-1.19517;-0.99951;-2.59284;-1.18994;-1.00375;-2.57627;-1.38947;-1.01095;-1.24399;-2.52303;-5.66215;-8.93754;4;2;3;11;1;18;-0.906937;-1.73533;-2.30799;495;859;1143;1665;1024;224;1024;1024;1024;1824;3;0;0.0166978;0;0; 
2841;2844;2019/11/20 17:01:02;0;768.226;344.129;9.36687;763.928;354.944;0;9;1;-1.83546;-1.73077;-1.53781;-1.79559;-1.83702;-1.62173;-1.34224;0.413884;0.85377;10.4853;24.4828;2.08228;5;578;256;6.57018;586.617;259.507;0;23;1;-1.17034;-0.97142;-2.58079;-1.18406;-0.99405;-2.57762;-1.11377;-0.794839;-1.09368;-0.00640142;-3.90377;-7.70531;4;2;3;11;1;18;-0.906937;-1.73533;-2.30799;495;759;477;1366;1024;224;1024;1024;1024;1824;3;0;0.0166965;0;0; 
2842;2845;2019/11/20 17:01:02;0;783.226;343.065;9.49464;776.342;353.71;0;10;1;-1.88968;-1.70291;-1.52036;-1.82382;-1.79679;-1.59132;-1.33443;0.955287;1.08346;8.79559;28.5119;4.32384;5;577.333;253.333;6.48101;585.701;257.727;0;24;1;-1.18131;-0.98111;-2.62821;-1.18324;-0.99017;-2.5928;-0.820145;-0.541704;-0.943359;3.07072;-1.19316;-5.46116;4;2;3;11;1;18;-0.906937;-1.73533;-2.30799;495;779;431;1172;1024;224;1024;1024;1024;1824;3;0;0.0167004;0;0; 
2843;2846;2019/11/20 17:01:02;0;799.333;340.286;9.44423;790.199;351.819;0;11;1;-1.98497;-1.70002;-1.537;-1.87217;-1.76776;-1.57502;-1.44506;1.34681;1.23021;6.4709;30.7313;6.29467;5;577;252;6.42653;584.841;256.004;0;25;1;-1.18873;-0.98903;-2.65649;-1.18489;-0.98983;-2.61191;-0.552267;-0.302773;-0.816481;6.3178;2.13522;-2.48915;4;2;3;11;1;18;-0.906937;-1.73533;-2.30799;495;943;465;1084;1024;224;1024;1024;1024;1824;3;0;0.0166965;0;0; 
2844;2847;2019/11/20 17:01:02;0;815.417;336.167;10.5009;805.085;349.032;0;12;1;-1.86175;-1.51299;-1.39369;-1.86904;-1.69133;-1.52062;-1.41321;1.80694;1.46963;4.47229;31.7611;8.35551;5;577;252;6.42653;586.636;256.028;1;0;1;-1.18873;-0.98903;-2.65649;-1.18489;-0.98983;-2.61191;-0.552267;-0.302773;-0.816481;6.3178;2.13522;-2.48915;4;2;3;11;1;18;-0.906937;-1.73533;-2.30799;495;1805;666;1019;1024;224;1024;1024;1024;1824;3;0;0.0166978;0;0; 
2845;2848;2019/11/20 17:01:02;0;815.417;336.167;10.5009;812.28;351.018;1;0;1;-1.86175;-1.51299;-1.39369;-1.86904;-1.69133;-1.52062;-1.41321;1.80694;1.46963;4.47229;31.7611;8.35551;5;576;248;6.36133;584.325;252.954;0;1;1;-1.19306;-0.98331;-2.70193;-1.18734;-0.98787;-2.63891;-0.35763;-0.139179;-0.761713;8.12402;4.35637;-0.321342;4;2;3;11;1;18;-0.906937;-1.73533;-2.30799;495;1805;670;1025;1024;224;1024;1024;1024;1824;3;0;0.0166978;0;0; 
2846;2849;2019/11/20 17:01:02;0;841.667;327;10.4843;830.812;343.739;0;1;1;-1.98978;-1.47979;-1.42122;-1.90526;-1.62787;-1.4908;-1.33045;2.10093;1.56915;3.45237;29.5874;9.12279;5;576;248;6.36133;585.943;252.844;1;0;1;-1.19306;-0.98331;-2.70193;-1.18734;-0.98787;-2.63891;-0.35763;-0.139179;-0.761713;8.12402;4.35637;-0.321342;4;2;3;11;1;18;-0.906937;-1.73533;-2.30799;495;1805;1659;1110;1024;224;1024;1024;1024;1824;3;0;0.0333943;0;0; 
2847;2850;2019/11/20 17:01:02;0;841.667;327;10.4843;838.495;345.326;1;0;1;-1.98978;-1.47979;-1.42122;-1.90526;-1.62787;-1.4908;-1.33045;2.10093;1.56915;3.45237;29.5874;9.12279;5;576;248;6.36133;587.56;252.735;2;0;1;-1.19306;-0.98331;-2.70193;-1.18734;-0.98787;-2.63891;-0.35763;-0.139179;-0.761713;8.12402;4.35637;-0.321342;4;2;3;11;1;18;-0.906937;-1.73533;-2.30799;495;1805;1652;1163;1024;224;1024;1024;1024;1824;3;0;0.0333943;0;0; 
2848;2851;2019/11/20 17:01:02;0;841.667;327;10.4843;846.178;346.913;2;0;1;-1.98978;-1.47979;-1.42122;-1.90526;-1.62787;-1.4908;-1.33045;2.10093;1.56915;3.45237;29.5874;9.12279;5;575;244;6.01442;583.245;248.499;0;1;1;-1.25357;-1.06774;-2.87703;-1.20721;-1.01183;-2.71035;-0.266496;-0.100167;-0.832827;8.22094;5.09384;0.701668;4;2;3;11;1;18;-0.906937;-1.73533;-2.30799;495;852;1581;1357;1024;224;1024;1024;1024;1824;3;0;0.0333943;0;0; 
2849;2852;2019/11/20 17:01:02;0;841.667;327;10.4843;853.861;348.5;3;0;1;-1.98978;-1.47979;-1.42122;-1.90526;-1.62787;-1.4908;-1.33045;2.10093;1.56915;3.45237;29.5874;9.12279;5;575;244;6.01442;584.613;248.216;1;0;1;-1.25357;-1.06774;-2.87703;-1.20721;-1.01183;-2.71035;-0.266496;-0.100167;-0.832827;8.22094;5.09384;0.701668;4;2;3;11;1;18;-0.906937;-1.73533;-2.30799;495;545;692;1578;1024;224;1024;1024;1024;1824;3;0;0.0333943;0;0; 
2850;2853;2019/11/20 17:01:02;0;841.667;327;10.4843;861.545;350.087;4;0;1;-1.98978;-1.47979;-1.42122;-1.90526;-1.62787;-1.4908;-1.33045;2.10093;1.56915;3.45237;29.5874;9.12279;5;577.333;243.333;6.20071;582.708;245.738;0;1;1;-1.23471;-1.00274;-2.79371;-1.21546;-1.00911;-2.73536;-0.221018;-0.0729227;-0.880806;7.7317;5.30343;1.29104;4;2;3;11;1;18;-0.906937;-1.73533;-2.30799;495;525;502;1271;1024;224;1024;1024;1024;1824;3;0;0.0333943;0;0; 
2851;2854;2019/11/20 17:01:02;0;841.667;327;10.4843;869.227;351.674;5;0;1;-1.98978;-1.47979;-1.42122;-1.90526;-1.62787;-1.4908;-1.33045;2.10093;1.56915;3.45237;29.5874;9.12279;5;579;244;6.30238;582.529;244.702;0;2;1;-1.228;-0.97555;-2.74558;-1.21922;-0.99904;-2.73842;-0.216832;-0.0556976;-0.913694;6.78772;4.95273;1.20579;4;2;3;11;1;18;-0.906937;-1.73533;-2.30799;495;583;530;1188;1024;224;1024;1024;1024;1824;3;0;0.0333943;0;0; 
2852;2855;2019/11/20 17:01:02;0;841.667;327;10.4843;876.911;353.261;6;0;1;-1.98978;-1.47979;-1.42122;-1.90526;-1.62787;-1.4908;-1.33045;2.10093;1.56915;3.45237;29.5874;9.12279;5;581;243;6.45371;583.169;243.707;0;3;1;-1.21469;-0.92409;-2.68568;-1.21786;-0.97655;-2.7226;-0.213044;-0.00080239;-0.859175;5.52701;4.26744;0.92515;4;2;3;11;1;18;-0.906937;-1.73533;-2.30799;495;621;546;1161;1024;224;1024;1024;1024;1824;3;0;0.0333943;0;0; 
2853;2856;2019/11/20 17:01:02;0;841.667;327;10.4843;884.594;354.848;7;0;1;-1.98978;-1.47979;-1.42122;-1.90526;-1.62787;-1.4908;-1.33045;2.10093;1.56915;3.45237;29.5874;9.12279;5;583;244;6.14833;584.264;243.378;0;4;1;-1.29127;-1.02379;-2.81437;-1.23988;-0.99073;-2.75013;-0.259582;-0.00263585;-0.846639;4.01737;3.27948;0.482843;4;2;3;11;1;18;-0.906937;-1.73533;-2.30799;495;641;554;1149;1024;224;1024;1024;1024;1824;3;0;0.0333943;0;0; 
2854;2857;2019/11/20 17:01:02;0;841.667;327;10.4843;892.277;356.436;8;0;1;-1.98978;-1.47979;-1.42122;-1.90526;-1.62787;-1.4908;-1.33045;2.10093;1.56915;3.45237;29.5874;9.12279;5;586;244;6.40401;585.98;243.159;0;5;1;-1.26312;-0.94499;-2.70201;-1.24685;-0.97701;-2.73569;-0.314168;0.0273385;-0.765592;2.52611;2.41092;0.279381;4;2;3;11;1;18;-0.906937;-1.73533;-2.30799;495;650;557;1144;1024;224;1024;1024;1024;1824;3;0;0.0333943;0;0; 
2855;2858;2019/11/20 17:01:02;0;841.667;327;10.4843;899.96;358.023;9;0;1;-1.98978;-1.47979;-1.42122;-1.90526;-1.62787;-1.4908;-1.33045;2.10093;1.56915;3.45237;29.5874;9.12279;5;589;245;6.39972;588.127;243.339;0;6;1;-1.28738;-0.95262;-2.69929;-1.25901;-0.96969;-2.72477;-0.365795;0.160625;-0.508718;1.17583;2.33907;1.27684;4;2;3;11;1;18;-0.906937;-1.73533;-2.30799;495;655;559;1142;1024;224;1024;1024;1024;1824;3;0;0.0333943;0;0; 
2856;2859;2019/11/20 17:01:02;0;841.667;327;10.4843;-1;-1;10;0;0;0;0;0;0;0;0;0;0;0;0;0;0;4;592;244;6.09458;590.584;243.163;0;7;1;-1.37643;-1.0412;-2.83919;-1.29424;-0.99114;-2.7591;-0.534025;0.168092;-0.400023;-0.544246;2.36574;2.68573;4;2;3;11;0;18;-0.906937;-1.73533;-2.30799;495;1805;1557;1345;1024;224;1024;1024;1024;1824;3;0;0;0;0; 
2857;2860;2019/11/20 17:01:02;0;841.667;327;10.4843;-1;-1;11;0;0;0;0;0;0;0;0;0;0;0;0;0;0;4;595;244;5.92861;593.265;243.052;0;8;1;-1.44024;-1.09695;-2.91867;-1.33804;-1.02288;-2.80697;-0.794822;0.00564916;-0.513699;-2.63429;1.66438;3.2085;4;2;3;11;0;18;-0.906937;-1.73533;-2.30799;495;1805;1557;1348;1024;224;1024;1024;1024;1824;3;0;0;0;0; 
2858;2861;2019/11/20 17:01:02;0;841.667;327;10.4843;-1;-1;12;0;0;0;0;0;0;0;0;0;0;0;0;0;0;4;597;244;6.3655;595.788;242.987;0;9;1;-1.35709;-0.95646;-2.71835;-1.34375;-1.00296;-2.78039;-0.979551;-0.102025;-0.538931;-4.64101;0.594478;3.20374;4;2;3;16;0;18;-0.906937;-1.73533;-2.30799;495;1805;1557;1353;1024;224;1024;1024;1024;1824;3;0;0;0;0; 
2859;2862;2019/11/20 17:01:02;0;841.667;327;10.4843;-1;-1;13;0;0;0;0;0;0;0;0;0;0;0;0;0;0;4;599;243;6.08111;598.195;242.637;0;10;1;-1.43699;-1.03892;-2.85024;-1.37172;-1.01375;-2.80134;-1.11413;-0.153122;-0.527827;-6.19658;-0.244159;3.19517;4;2;3;13;0;18;0.419543;-1.5225;-1.72789;495;1805;493;884;1024;224;1024;1024;1024;1824;3;0;0;0;0; 
2860;2863;2019/11/20 17:01:03;0;841.667;327;10.4843;-1;-1;14;0;0;0;0;0;0;0;0;0;0;0;0;0;0;4;601.333;242.667;6.14373;600.623;242.293;0;11;1;-1.44131;-1.01644;-2.82276;-1.3926;-1.01455;-2.80777;-1.2504;-0.241785;-0.604463;-7.45606;-1.22103;2.56044;4;2;3;13;0;18;0.419543;-1.5225;-1.72789;495;1805;472;903;1024;224;1024;1024;1024;1824;3;0;0;0;0; 
2861;2864;2019/11/20 17:01:03;0;841.667;327;10.4843;-1;-1;15;0;0;0;0;0;0;0;0;0;0;0;0;0;0;4;604;243;6.32443;603.171;242.165;0;12;1;-1.4212;-0.9624;-2.74058;-1.40118;-0.99891;-2.78761;-1.31787;-0.261719;-0.613571;-8.27498;-2.41891;1.11762;4;2;3;13;0;18;0.419543;-1.5225;-1.72789;495;1293;424;941;1024;224;1024;1024;1024;1824;3;0;0;0;0; 
2862;2865;2019/11/20 17:01:03;0;841.667;327;10.4843;-1;-1;16;0;0;0;0;0;0;0;0;0;0;0;0;0;0;4;606;243.5;6.14543;605.591;242.247;0;13;1;-1.47885;-1.02142;-2.81806;-1.42448;-1.00566;-2.79674;-1.31074;-0.214985;-0.518455;-8.06617;-2.98086;0.19771;4;2;3;13;0;18;0.419543;-1.5225;-1.72789;495;943;398;1024;1024;224;1024;1024;1024;1824;3;0;0;0;0; 
2863;2866;2019/11/20 17:01:03;0;841.667;327;10.4843;-1;-1;17;0;0;0;0;0;0;0;0;0;0;0;0;0;0;4;609;243;6.4107;608.235;242.163;0;14;1;-1.44103;-0.93666;-2.7037;-1.42945;-0.98496;-2.76883;-1.15141;0.0224275;-0.1588;-6.26344;-1.72152;1.53563;4;2;3;13;0;18;0.419543;-1.5225;-1.72789;495;829;398;1154;1024;224;1024;1024;1024;1824;3;0;0;0;0; 
2864;2867;2019/11/20 17:01:03;0;841.667;327;10.4843;-1;-1;18;0;0;0;0;0;0;0;0;0;0;0;0;0;0;4;609;243;6.4107;609.839;241.848;1;0;1;-1.44103;-0.93666;-2.7037;-1.42945;-0.98496;-2.76883;-1.15141;0.0224275;-0.1588;-6.26344;-1.72152;1.53563;4;2;3;13;0;18;0.419543;-1.5225;-1.72789;495;788;440;1297;1024;224;1024;1024;1024;1824;3;0;0;0;0; 
2865;2868;2019/11/20 17:01:03;0;600;176;5.30155;600;176;0;1;1;-1.65771;-1.76688;-3.63527;-1.65771;-1.76688;-3.63527;0;0;0;0;0;0;5;609;243;6.4107;611.444;241.534;2;0;1;-1.44103;-0.93666;-2.7037;-1.42945;-0.98496;-2.76883;-1.15141;0.0224275;-0.1588;-6.26344;-1.72152;1.53563;4;2;3;13;1;18;0.419543;-1.5225;-1.72789;495;1805;740;969;1024;224;1024;1024;1024;1824;3;0;0.317245;0;0; 
2866;2869;2019/11/20 17:01:03;0;602;176;5.33971;600.182;176;0;2;1;-1.66457;-1.75426;-3.60929;-1.65977;-1.76309;-3.62748;0;0;0;0;0;0;5;616;244.571;6.02162;615.08;242.574;0;1;1;-1.59222;-1.06919;-2.87084;-1.47828;-1.01023;-2.79944;-1.09368;-0.00832543;-0.152328;-4.09983;-0.752328;2.07907;4;2;3;13;1;18;0.419543;-1.5225;-1.72789;495;1805;728;966;1024;224;1024;1024;1024;1824;3;0;0.0166975;0;0; 
2867;2870;2019/11/20 17:01:03;0;602;176;5.33971;600.182;176;1;0;1;-1.66457;-1.75426;-3.60929;-1.65977;-1.76309;-3.62748;0;0;0;0;0;0;5;618;246;6.45653;617.88;243.618;0;2;1;-1.50044;-0.94219;-2.67106;-1.48493;-0.98982;-2.76092;-0.995201;0.0666559;0.0296403;-2.10375;0.206733;2.9168;4;2;3;13;1;18;0.419543;-1.5225;-1.72789;495;1805;716;960;1024;224;1024;1024;1024;1824;3;0;0.0166975;0;0; 
2868;2871;2019/11/20 17:01:03;0;604;177;5.00525;601.048;176.227;0;1;1;-1.79577;-1.87961;-3.84469;-1.70057;-1.79805;-3.69264;0;0;0;0;0;0;5;620.667;245.333;6.34532;620.59;244.015;0;3;1;-1.54773;-0.97107;-2.72091;-1.50377;-0.98419;-2.74892;-0.930022;0.130902;0.194004;-0.302866;1.24006;4.14111;4;2;3;13;1;18;0.419543;-1.5225;-1.72789;495;1805;716;960;1024;224;1024;1024;1024;1824;3;0;0.0333943;0;0; 
2869;2872;2019/11/20 17:01:03;0;604;177;5.00525;601.05;176.227;1;0;1;-1.79577;-1.87961;-3.84469;-1.70057;-1.79805;-3.69264;0;0;0;0;0;0;5;620.667;245.333;6.34532;622.37;243.839;1;0;1;-1.54773;-0.97107;-2.72091;-1.50377;-0.98419;-2.74892;-0.930022;0.130902;0.194004;-0.302866;1.24006;4.14111;4;2;3;13;1;18;0.419543;-1.5225;-1.72789;495;1805;699;950;1024;224;1024;1024;1024;1824;3;0;0.0333943;0;0; 
2870;2873;2019/11/20 17:01:03;0;604;177;5.00525;601.053;176.228;2;0;1;-1.79577;-1.87961;-3.84469;-1.70057;-1.79805;-3.69264;0;0;0;0;0;0;5;627;247;6.31122;625.997;244.924;0;1;1;-1.60623;-0.99221;-2.72797;-1.53451;-0.9866;-2.74264;-0.912909;0.111304;0.23612;0.896195;1.73695;4.74637;4;2;3;13;1;18;0.419543;-1.5225;-1.72789;495;1429;624;925;1024;224;1024;1024;1024;1824;3;0;0.0333943;0;0; 
2871;2874;2019/11/20 17:01:03;0;604;177;5.00525;601.055;176.229;3;0;1;-1.79577;-1.87961;-3.84469;-1.70057;-1.79805;-3.69264;0;0;0;0;0;0;5;630;248;6.39727;629.289;245.904;0;2;1;-1.60805;-0.97244;-2.68675;-1.55657;-0.98235;-2.72587;-0.899346;0.128825;0.330332;1.63277;1.95733;5.10713;4;2;3;13;1;18;0.419543;-1.5225;-1.72789;495;1143;611;916;1024;224;1024;1024;1024;1824;3;0;0.0333943;0;0; 
2872;2875;2019/11/20 17:01:03;0;604;177;5.00525;601.058;176.229;4;0;1;-1.79577;-1.87961;-3.84469;-1.70057;-1.79805;-3.69264;0;0;0;0;0;0;5;633;248;6.48451;632.464;246.538;0;3;1;-1.60953;-0.94658;-2.6506;-1.57246;-0.97162;-2.70329;-0.920275;0.112807;0.372664;1.59489;1.41497;4.47893;4;2;3;13;1;18;0.419543;-1.5225;-1.72789;495;1052;602;909;1024;224;1024;1024;1024;1824;3;0;0.0333943;0;0; 
2873;2876;2019/11/20 17:01:03;0;604;177;5.00525;601.06;176.23;5;0;1;-1.79577;-1.87961;-3.84469;-1.70057;-1.79805;-3.69264;0;0;0;0;0;0;5;636;248.571;5.69362;634.437;246.493;1;0;1;-1.60953;-0.94658;-2.6506;-1.57246;-0.97162;-2.70329;-0.920275;0.112807;0.372664;1.59489;1.41497;4.47893;4;2;3;13;1;18;0.419543;-1.5225;-1.72789;495;1012;597;905;1024;224;1024;1024;1024;1824;3;0;0.0333943;0;0; 
2874;2877;2019/11/20 17:01:03;0;604;177;5.00525;601.063;176.231;6;0;1;-1.79577;-1.87961;-3.84469;-1.70057;-1.79805;-3.69264;0;0;0;0;0;0;5;636;248.571;5.69362;636.409;246.447;2;0;1;-1.60953;-0.94658;-2.6506;-1.57246;-0.97162;-2.70329;-0.920275;0.112807;0.372664;1.59489;1.41497;4.47893;4;2;3;13;1;18;0.419543;-1.5225;-1.72789;495;993;594;903;1024;224;1024;1024;1024;1824;3;0;0.0333943;0;0; 
2875;2878;2019/11/20 17:01:03;0;604;177;5.00525;601.065;176.231;7;0;1;-1.79577;-1.87961;-3.84469;-1.70057;-1.79805;-3.69264;0;0;0;0;0;0;5;636;248.571;5.69362;638.381;246.402;3;0;1;-1.60953;-0.94658;-2.6506;-1.57246;-0.97162;-2.70329;-0.920275;0.112807;0.372664;1.59489;1.41497;4.47893;4;2;3;13;1;18;0.419543;-1.5225;-1.72789;495;984;593;902;1024;224;1024;1024;1024;1824;3;0;0.0333943;0;0; 
2876;2879;2019/11/20 17:01:03;0;611;180;4.96286;606.407;178.257;0;1;1;-1.88157;-1.92028;-3.86002;-1.75487;-1.83472;-3.74285;0;0;0;0;0;0;5;643;249;6.45151;642.691;247.671;0;1;1;-1.6952;-0.96259;-2.65967;-1.60928;-0.96891;-2.6902;-0.865996;0.166669;0.485277;1.50238;1.2682;4.21482;4;2;3;13;1;18;0.419543;-1.5225;-1.72789;495;1303;582;939;1024;224;1024;1024;1024;1824;3;0;0.133577;0;0; 
2877;2880;2019/11/20 17:01:03;0;610;180;5.28873;607.914;178.98;0;2;1;-1.75619;-1.80196;-3.62219;-1.75526;-1.82489;-3.70665;0;0;0;0;0;0;5;643;249;6.45151;644.76;247.68;1;0;1;-1.6952;-0.96259;-2.65967;-1.60928;-0.96891;-2.6902;-0.865996;0.166669;0.485277;1.50238;1.2682;4.21482;4;2;3;13;1;18;0.419543;-1.5225;-1.72789;495;654;462;862;1024;224;1024;1024;1024;1824;3;0;0.0166965;0;0; 
2878;2881;2019/11/20 17:01:03;0;610;180;5.28873;608.009;179.018;1;0;1;-1.75619;-1.80196;-3.62219;-1.75526;-1.82489;-3.70665;0;0;0;0;0;0;5;643;249;6.45151;646.829;247.689;2;0;1;-1.6952;-0.96259;-2.65967;-1.60928;-0.96891;-2.6902;-0.865996;0.166669;0.485277;1.50238;1.2682;4.21482;4;2;3;13;1;18;0.419543;-1.5225;-1.72789;495;795;533;892;1024;224;1024;1024;1024;1824;3;0;0.0166965;0;0; 
2879;2882;2019/11/20 17:01:03;0;610;180;5.28873;608.104;179.057;2;0;1;-1.75619;-1.80196;-3.62219;-1.75526;-1.82489;-3.70665;0;0;0;0;0;0;5;643;249;6.45151;648.898;247.698;3;0;1;-1.6952;-0.96259;-2.65967;-1.60928;-0.96891;-2.6902;-0.865996;0.166669;0.485277;1.50238;1.2682;4.21482;4;2;3;13;1;18;0.419543;-1.5225;-1.72789;495;876;560;902;1024;224;1024;1024;1024;1824;3;0;0.0166965;0;0; 
2880;2883;2019/11/20 17:01:03;0;610;180;5.28873;608.199;179.095;3;0;1;-1.75619;-1.80196;-3.62219;-1.75526;-1.82489;-3.70665;0;0;0;0;0;0;5;643;249;6.45151;650.967;247.707;4;0;1;-1.6952;-0.96259;-2.65967;-1.60928;-0.96891;-2.6902;-0.865996;0.166669;0.485277;1.50238;1.2682;4.21482;4;2;3;13;1;18;0.419543;-1.5225;-1.72789;495;915;572;906;1024;224;1024;1024;1024;1824;3;0;0.0166965;0;0; 
2881;2884;2019/11/20 17:01:03;0;608;178;4.98434;608.198;178.603;0;1;1;-1.84339;-1.89567;-3.85501;-1.7817;-1.84612;-3.75116;0;0;0;0;0;0;5;643;249;6.45151;653.036;247.716;5;0;1;-1.6952;-0.96259;-2.65967;-1.60928;-0.96891;-2.6902;-0.865996;0.166669;0.485277;1.50238;1.2682;4.21482;4;2;3;13;1;18;0.419543;-1.5225;-1.72789;495;1458;629;922;1024;224;1024;1024;1024;1824;3;0;0.0667886;0;0; 
2882;2885;2019/11/20 17:01:03;0;607;178;4.69845;608.291;178.63;1;0;1;-1.84339;-1.89567;-3.85501;-1.7817;-1.84612;-3.75116;0;0;0;0;0;0;5;643;249;6.45151;655.105;247.725;6;0;1;-1.6952;-0.96259;-2.65967;-1.60928;-0.96891;-2.6902;-0.865996;0.166669;0.485277;1.50238;1.2682;4.21482;4;2;3;13;1;18;0.419543;-1.5225;-1.72789;495;1159;614;914;1024;224;1024;1024;1024;1824;3;0;0.0667886;0;0; 
2883;2886;2019/11/20 17:01:03;0;606;178;4.88683;607.39;178.383;0;1;1;-1.85973;-1.93349;-3.93193;-1.80511;-1.87233;-3.80539;0;0;0;0;0;0;5;643;249;6.45151;657.174;247.734;7;0;1;-1.6952;-0.96259;-2.65967;-1.60928;-0.96891;-2.6902;-0.865996;0.166669;0.485277;1.50238;1.2682;4.21482;4;2;3;13;1;18;0.419543;-1.5225;-1.72789;495;1208;637;913;1024;224;1024;1024;1024;1824;3;0;0.033394;0;0; 
2884;2887;2019/11/20 17:01:03;0;606;178;4.88683;607.457;178.402;1;0;1;-1.85973;-1.93349;-3.93193;-1.80511;-1.87233;-3.80539;0;0;0;0;0;0;5;643;249;6.45151;659.244;247.743;8;0;1;-1.6952;-0.96259;-2.65967;-1.60928;-0.96891;-2.6902;-0.865996;0.166669;0.485277;1.50238;1.2682;4.21482;4;2;3;13;1;18;0.419543;-1.5225;-1.72789;495;1089;619;908;1024;224;1024;1024;1024;1824;3;0;0.033394;0;0; 
2885;2888;2019/11/20 17:01:03;0;606;178;4.88683;607.525;178.421;2;0;1;-1.85973;-1.93349;-3.93193;-1.80511;-1.87233;-3.80539;0;0;0;0;0;0;5;643;249;6.45151;661.313;247.752;9;0;1;-1.6952;-0.96259;-2.65967;-1.60928;-0.96891;-2.6902;-0.865996;0.166669;0.485277;1.50238;1.2682;4.21482;4;2;3;13;1;18;0.419543;-1.5225;-1.72789;495;1041;609;904;1024;224;1024;1024;1024;1824;3;0;0.033394;0;0; 
2886;2889;2019/11/20 17:01:03;0;634.812;142.75;10.4637;620.348;161.766;0;1;1;-1.0061;-0.765848;-1.93386;-1.0061;-0.765848;-1.93386;0;0;0;0;0;0;5;661.333;250.667;6.25387;663.397;249.95;0;1;1;-1.89522;-1.03388;-2.73601;-1.69506;-0.9884;-2.70395;-0.784546;0.101786;0.363007;1.16703;0.805215;2.94922;4;2;3;13;1;18;0.419543;-1.5225;-1.72789;495;1805;1553;1389;1024;224;1024;1024;1024;1824;3;0;0.050092;0;0; 
2887;2890;2019/11/20 17:01:03;0;621.161;140.258;10.2915;621.101;153.094;0;2;1;-0.956674;-0.768806;-1.97323;-0.991275;-0.766735;-1.94567;0;0;0;0;0;0;5;664;250;6.08594;665.76;250.062;0;2;1;-1.96941;-1.08417;-2.81468;-1.77737;-1.01713;-2.73716;-0.815692;0.0195419;0.232626;0.844373;0.342719;1.81823;4;2;3;13;1;18;0.419543;-1.5225;-1.72789;495;1805;1561;1378;1024;224;1024;1024;1024;1824;3;0;0.0166965;0;0; 
2888;2891;2019/11/20 17:01:03;0;606.69;137.655;9.48512;616.601;147.065;0;3;1;-0.961782;-0.822992;-2.14893;-0.982427;-0.783612;-2.00665;0;0;0;0;0;0;5;664;250;6.08594;667.841;250.15;1;0;1;-1.96941;-1.08417;-2.81468;-1.77737;-1.01713;-2.73716;-0.815692;0.0195419;0.232626;0.844373;0.342719;1.81823;4;2;3;13;1;18;0.419543;-1.5225;-1.72789;495;1364;1595;1331;1024;224;1024;1024;1024;1824;3;0;0.0166975;0;0; 
2889;2892;2019/11/20 17:01:03;0;592.789;133.944;11.2648;609.127;141.889;0;4;1;-0.748187;-0.679558;-1.81897;-0.912155;-0.752396;-1.95034;0;0;0;0;0;0;5;664;250;6.08594;669.921;250.238;2;0;1;-1.96941;-1.08417;-2.81468;-1.77737;-1.01713;-2.73716;-0.815692;0.0195419;0.232626;0.844373;0.342719;1.81823;4;2;3;13;1;18;0.419543;-1.5225;-1.72789;495;1805;1588;1322;1024;224;1024;1024;1024;1824;3;0;0.0166968;0;0; 
2890;2893;2019/11/20 17:01:03;0;576.683;131.951;10.5393;598.838;137.687;0;5;1;-0.723349;-0.718643;-1.94966;-0.855513;-0.74227;-1.95014;0;0;0;0;0;0;5;664;250;6.08594;672.002;250.327;3;0;1;-1.96941;-1.08417;-2.81468;-1.77737;-1.01713;-2.73716;-0.815692;0.0195419;0.232626;0.844373;0.342719;1.81823;4;2;3;13;1;18;0.419543;-1.5225;-1.72789;495;874;1648;1178;1024;224;1024;1024;1024;1824;3;0;0.0166975;0;0; 
2891;2894;2019/11/20 17:01:03;0;562.298;129.234;10.887;587.01;133.875;0;6;1;-0.634236;-0.685528;-1.89461;-0.78913;-0.725247;-1.93348;0;0;0;0;0;0;5;664;250;6.08594;674.082;250.415;4;0;1;-1.96941;-1.08417;-2.81468;-1.77737;-1.01713;-2.73716;-0.815692;0.0195419;0.232626;0.844373;0.342719;1.81823;4;2;3;13;1;18;0.419543;-1.5225;-1.72789;495;854;1644;1189;1024;224;1024;1024;1024;1824;3;0;0.0166968;0;0; 
2892;2895;2019/11/20 17:01:03;0;546.667;125.917;11.3464;573.619;130.131;0;7;1;-0.539737;-0.645872;-1.82638;-0.714312;-0.701435;-1.90135;0;0;0;0;0;0;5;677;249;5.68238;676.162;250.503;5;0;1;-1.96941;-1.08417;-2.81468;-1.77737;-1.01713;-2.73716;-0.815692;0.0195419;0.232626;0.844373;0.342719;1.81823;4;2;3;13;1;18;0.419543;-1.5225;-1.72789;495;883;1637;1209;1024;224;1024;1024;1024;1824;3;0;0.0166975;0;0; 
2893;2896;2019/11/20 17:01:03;0;530.45;120.75;11.2642;558.877;125.851;0;8;1;-0.471752;-0.631911;-1.85298;-0.641544;-0.680578;-1.88684;3.49093;0.860004;0.587259;25.9805;9.11499;12.9235;5;677;249;5.68238;678.242;250.591;6;0;1;-1.96941;-1.08417;-2.81468;-1.77737;-1.01713;-2.73716;-0.815692;0.0195419;0.232626;0.844373;0.342719;1.81823;4;2;3;13;1;18;0.419543;-1.5225;-1.72789;495;784;1662;1077;1024;224;1024;1024;1024;1824;3;0;0.0166965;0;0; 
2894;2897;2019/11/20 17:01:03;0;517.151;113.939;11.3927;544.057;120.662;0;9;1;-0.408118;-0.600447;-1.84939;-0.571516;-0.656538;-1.8756;3.7352;1.02337;0.875574;28.3861;13.5906;25.8307;5;677;249;5.68238;680.323;250.68;7;0;1;-1.96941;-1.08417;-2.81468;-1.77737;-1.01713;-2.73716;-0.815692;0.0195419;0.232626;0.844373;0.342719;1.81823;4;2;3;13;1;18;0.419543;-1.5225;-1.72789;495;788;1667;1054;1024;224;1024;1024;1024;1824;3;0;0.0166978;0;0; 
2895;2898;2019/11/20 17:01:03;0;503.49;107.569;11.3535;529.071;114.952;0;10;1;-0.349414;-0.579675;-1.87202;-0.504886;-0.633479;-1.87453;3.86723;1.08882;0.82805;15.6682;5.03697;5.34045;5;677;249;5.68238;682.403;250.768;8;0;1;-1.96941;-1.08417;-2.81468;-1.77737;-1.01713;-2.73716;-0.815692;0.0195419;0.232626;0.844373;0.342719;1.81823;4;2;3;13;1;18;0.419543;-1.5225;-1.72789;495;758;1665;958;1024;224;1024;1024;1024;1824;3;0;0.0166965;0;0; 
2896;2899;2019/11/20 17:01:03;0;489.402;101.835;11.2847;513.841;109.065;0;11;1;-0.289176;-0.562524;-1.89814;-0.440173;-0.612193;-1.88161;3.97867;1.17265;0.770432;11.7424;5.28291;6.23129;5;677;249;5.68238;684.484;250.856;9;0;1;-1.96941;-1.08417;-2.81468;-1.77737;-1.01713;-2.73716;-0.815692;0.0195419;0.232626;0.844373;0.342719;1.81823;4;2;3;13;1;18;0.419543;-1.5225;-1.72789;495;742;1655;896;1024;224;1024;1024;1024;1824;3;0;0.0166975;0;0; 
