rs_id;elapsed;imLx_insect;imLy_insect;disparity_insect;size_insect;score_insect;motion_sum_insect;imLx_pred_insect;imLy_pred_insect;n_frames_lost_insect;n_frames_tracking_insect;foundL_insect;pos_valid_insect;posX_insect;posY_insect;posZ_insect;sposX_insect;sposY_insect;sposZ_insect;vel_valid_insect;svelX_insect;svelY_insect;svelZ_insect;acc_valid_insect;saccX_insect;saccY_insect;saccZ_insect;radius_insect;fp;hunt_id;light_level;
303603;3378.321941;460;0;19.4968;2;0;20;-1;-1;0;1;1;1;-0.194351;-0.204499;-2.37906;-0.194351;-0.204499;-2.37906;0;0;0;0;0;0;0;0;0.00486202;fp_not_a_fp;-1;0.205431;
303604;3378.333069;458;0;19.5695;2.82843;0.0589466;54;460;-1.93888e-05;0;2;1;1;-0.183942;-0.203677;-2.37027;-0.189146;-0.204088;-2.37466;1;0.119313;0.00941589;0.100759;0;0;0;0;0.00685042;fp_not_a_fp;-1;0.205462;
303605;3378.344196;456;0;19.6052;2.82843;0.0589466;159;457.744;-2.59969e-06;0;3;1;1;-0.173937;-0.203244;-2.36599;-0.184076;-0.203807;-2.37177;1;0.268092;0.0170721;0.178558;0;13.371;0.688073;6.99199;0.00683795;fp_not_a_fp;-1;0.205453;
303606;3378.355323;454;2;19.5089;2.82843;0.0744796;96;455.414;-3.40501e-05;0;4;1;1;-0.165002;-0.212253;-2.37229;-0.179308;-0.205918;-2.3719;1;0.397803;-0.0852108;0.115736;0;12.5142;-4.25212;0.673034;0.00687168;fp_not_a_fp;-1;0.205491;
303607;3378.366451;452;4;19.4483;2.82843;0.0904747;52;453.101;2.25531;0;5;1;1;-0.155693;-0.220946;-2.3743;-0.169643;-0.21003;-2.37071;1;0.507364;-0.216252;0.0519693;0;11.6246;-6.75995;-1.46139;0.00689312;fp_not_a_fp;-1;0.205475;
303608;3378.377578;450;6;19.5643;2.82843;0.0765677;154;450.835;4.58011;0;6;1;1;-0.145005;-0.227619;-2.35486;-0.159909;-0.216015;-2.36686;1;0.610452;-0.319319;0.241824;0;11.0346;-7.38566;3.16959;0.00685225;fp_not_a_fp;-1;0.205463;
303609;3378.388705;448;8;19.4907;4.47214;0.0490717;86;448.611;6.89966;0;7;1;1;-0.13575;-0.236492;-2.35837;-0.150362;-0.224327;-2.36496;1;0.681278;-0.422902;0.249145;1;9.28319;-9.88501;1.58609;0.0108753;fp_not_a_fp;-1;0.205457;
303610;3378.399833;446;10;19.3834;2.82843;0.0460823;61;446.329;9.3111;0;8;1;1;-0.126645;-0.245859;-2.36602;-0.140773;-0.232729;-2.36339;1;0.728016;-0.519128;0.132808;1;7.41886;-9.74876;0.383949;0.00691618;fp_not_a_fp;-1;0.205457;
303611;3378.410960;444;10;19.4487;2.82843;0.0751324;138;444.238;11.5143;0;9;1;1;-0.116472;-0.244971;-2.35812;-0.130968;-0.238735;-2.35934;1;0.771087;-0.482502;0.158352;1;5.92522;-5.98194;2.39043;0.00689297;fp_not_a_fp;-1;0.205416;
303612;3378.422087;442;12;19.4597;2.82843;0.0427924;115;442.161;11.3827;0;10;1;1;-0.106589;-0.252858;-2.35139;-0.121364;-0.245045;-2.35847;1;0.803831;-0.49624;0.225772;1;4.34476;-3.9749;-0.360424;0.00688907;fp_not_a_fp;-1;0.205427;
303613;3378.433215;440;14;19.342;2.82843;0.0417465;44;440.111;13.4036;0;11;1;1;-0.0973598;-0.262472;-2.36028;-0.111766;-0.25154;-2.35895;1;0.820616;-0.548816;0.122949;1;3.13052;-2.82874;-2.83493;0.00693099;fp_not_a_fp;-1;0.205422;
303614;3378.444342;438;16;19.2743;2;0.0682722;149;438.09;15.4778;0;12;1;1;-0.0877898;-0.271498;-2.36314;-0.102053;-0.25795;-2.35823;1;0.832586;-0.604009;0.0320458;1;2.34943;-1.90699;-2.26372;0.00491817;fp_not_a_fp;-1;0.205486;
303615;3378.455469;436;16;19.2234;2.82843;0.0597043;96;436.074;17.5705;0;13;1;1;-0.0781601;-0.272154;-2.36944;-0.0924745;-0.264746;-2.36106;1;0.841722;-0.557289;-0.0818104;1;1.58699;-1.6802;-5.39575;0.00697376;fp_not_a_fp;-1;0.205443;
303616;3378.466597;432;18;19.3549;2.82843;0.0787808;54;434.065;17.4073;0;14;1;1;-0.0579631;-0.278311;-2.34796;-0.0803181;-0.271109;-2.3602;1;0.969638;-0.537479;0.127721;1;3.72504;-0.926494;-2.2032;0.00692637;fp_not_a_fp;-1;0.205438;
303617;3378.477723;432;20;19.2293;2.82843;0.0735988;141;429.754;19.4239;0;15;1;1;-0.0582654;-0.288315;-2.3578;-0.0705446;-0.27757;-2.35959;1;0.895357;-0.575413;0.0851781;1;1.67897;-0.597645;-0.849061;0.00697162;fp_not_a_fp;-1;0.205455;
303618;3378.488850;430;22;19.1595;0;0.140027;63;429.959;21.4904;0;16;1;1;-0.048506;-0.297517;-2.36092;-0.0607236;-0.284074;-2.35903;1;0.862329;-0.623177;0.0210631;1;0.667991;-0.430713;-0.247182;0;fp_not_a_fp;-1;0.205463;
303619;3378.499978;426;24;19.4527;2;0.112498;17;428.054;23.5786;0;17;1;1;-0.028208;-0.301;-2.31999;-0.0482356;-0.291286;-2.34667;1;0.97135;-0.603357;0.460966;1;2.91197;-1.03513;12.1938;0.00487307;fp_not_a_fp;-1;0.205447;
303620;3378.511105;424;24;19.2787;2.82843;0.0810652;64;423.764;25.7303;0;18;1;1;-0.0186288;-0.303653;-2.34097;-0.038402;-0.297621;-2.34492;1;1.00232;-0.548617;0.343486;1;0.733973;-0.250316;4.84691;0.00695376;fp_not_a_fp;-1;0.205427;
303621;3378.522232;422;24;19.1964;2.82843;0.0753747;107;421.737;25.5148;0;19;1;1;-0.00883265;-0.30489;-2.35104;-0.0260438;-0.301765;-2.34323;1;0.999562;-0.470203;0.135677;1;2.34107;2.36383;1.13376;0.00698354;fp_not_a_fp;-1;0.205466;
303622;3378.533360;420;26;19.232;2.82843;0.0510174;31;419.731;25.2021;0;20;1;1;0.00111762;-0.312449;-2.34125;-0.0136379;-0.305498;-2.33831;1;0.984981;-0.464458;0.144733;1;2.75555;3.56603;2.77774;0.00697065;fp_not_a_fp;-1;0.205471;
303623;3378.544487;418;28;19.0051;2.82843;0.0515679;128;417.756;27.1779;0;21;1;1;0.0111835;-0.324396;-2.36367;-0.00379005;-0.311347;-2.34923;1;0.968704;-0.539794;-0.127042;1;-0.0594006;1.42816;-13.2112;0.00705384;fp_not_a_fp;-1;0.205485;
303624;3378.555614;416;28;19.1364;2.82843;0.0656632;91;415.863;29.2526;0;22;1;1;0.0210136;-0.322106;-2.3475;0.00612055;-0.31596;-2.35087;1;0.951106;-0.475829;-0.0377278;1;-1.15056;1.63545;-8.56491;0.00700544;fp_not_a_fp;-1;0.205446;
303625;3378.566741;414;30;19.0903;4.47214;0.102761;48;413.901;29.1399;0;23;1;1;0.0310721;-0.331066;-2.34768;0.0160967;-0.322504;-2.35003;1;0.93782;-0.491412;0.00193668;1;-1.38718;-0.476477;-3.00471;0.0111033;fp_not_a_fp;-1;0.205457;
303626;3378.577869;412;32;19.0194;2.82843;0.0354272;133;411.941;31.2254;0;24;1;1;0.041233;-0.340513;-2.35092;0.0261256;-0.329521;-2.35244;1;0.929177;-0.543456;-0.0191119;1;-1.25379;-1.77475;-3.68103;0.00704856;fp_not_a_fp;-1;0.205437;
303627;3378.588996;410;32;19.1152;2.82843;0.0566346;75;409.973;33.3534;0;25;1;1;0.050944;-0.338742;-2.33917;0.0360657;-0.333107;-2.34632;1;0.918407;-0.475337;0.109301;1;-1.13007;1.44833;5.31019;0.00701321;fp_not_a_fp;-1;0.20543;
303628;3378.600123;408;34;19.0536;2.82843;0.0367848;34;407.975;33.2135;0;26;1;1;0.0611359;-0.348035;-2.34124;0.0460963;-0.339589;-2.34475;1;0.913643;-0.493089;0.124738;1;-0.841689;-0.387696;3.65029;0.00703591;fp_not_a_fp;-1;0.205399;
303629;3378.611251;406;36;19.0981;2.82843;0.0288213;100;405.991;35.2786;0;27;1;1;0.070997;-0.355403;-2.3303;0.0560775;-0.345673;-2.34041;1;0.908169;-0.521978;0.240659;1;-0.666174;-0.686579;5.3634;0.00701951;fp_not_a_fp;-1;0.205447;
303630;3378.622378;404;36;19.0668;2.82843;0.0561596;60;403.992;37.4019;0;28;1;1;0.0810564;-0.355921;-2.33416;0.0660333;-0.349525;-2.33622;1;0.905384;-0.47328;0.213609;1;-0.534561;1.57678;5.22851;0.00703101;fp_not_a_fp;-1;0.205418;
303631;3378.633505;402;38;19.0805;5.65685;0.103625;53;401.998;37.2398;0;29;1;1;0.0910114;-0.363853;-2.327;0.0760502;-0.355803;-2.33317;1;0.902867;-0.483713;0.257255;1;-0.34914;-0.188108;3.32398;0.014052;fp_not_a_fp;-1;0.205431;
303632;3378.644633;402;40;18.966;2.82843;0.0840238;164;399.999;39.302;0;30;1;1;0.0916381;-0.374349;-2.33547;0.0836757;-0.362381;-2.33173;1;0.793849;-0.546631;0.145339;1;-2.69132;-1.20277;0.462842;0.00706841;fp_not_a_fp;-1;0.205479;
303633;3378.655760;400;42;19.016;2.82843;0.041577;30;400.299;41.4067;0;31;1;1;0.101444;-0.381577;-2.32381;0.0912874;-0.368925;-2.33011;1;0.759942;-0.585766;0.214225;1;-3.33015;-1.43305;-0.593707;0.0070498;fp_not_a_fp;-1;0.205472;
303634;3378.666887;400;44;19.0665;4.47214;0.0977805;28;398.377;43.5308;0;32;1;1;0.101252;-0.388823;-2.31212;0.0963364;-0.37715;-2.3246;1;0.646803;-0.610287;0.349386;1;-5.80956;-3.07814;3.05084;0.0111172;fp_not_a_fp;-1;0.205464;
303635;3378.678015;398;46;19.132;2.82843;0.0487196;159;398.645;45.6766;1;0;1;1;0.10808;-0.395794;-2.30805;0.100604;-0.385136;-2.31986;1;0.595809;-0.62248;0.407333;1;-6.89861;-3.11765;3.37201;-1;fp_not_a_fp;-1;0.205489;
303636;3378.689142;398;48;19.053;2.82843;0.0713575;21;397.413;47.4064;0;1;1;1;0.111428;-0.405557;-2.30271;0.105551;-0.392938;-2.31167;1;0.537116;-0.660038;0.440539;1;-5.76807;-2.54794;6.63235;0.00703613;fp_not_a_fp;-1;0.205447;
303637;3378.700270;396;50;18.9303;2.82843;0.0498143;28;396.884;49.8328;0;2;1;1;0.122242;-0.416436;-2.31209;0.110751;-0.401653;-2.30874;1;0.568313;-0.716072;0.29052;1;-4.30532;-2.92761;1.71408;0.00708172;fp_not_a_fp;-1;0.205465;
303638;3378.711398;396;52;19.1912;2.82843;0.0595833;222;394.828;51.8825;0;3;1;1;0.120657;-0.418978;-2.27516;0.115602;-0.409191;-2.2995;1;0.490549;-0.677028;0.614783;1;-3.51038;-1.4995;5.96218;0.00698546;fp_not_a_fp;-1;0.205476;
303639;3378.722525;396;54;19.2042;2.82843;0.05567;65;394.935;53.9501;0;4;1;1;0.120652;-0.42689;-2.26811;0.118745;-0.416965;-2.28952;1;0.395779;-0.665233;0.75114;1;-4.49397;-0.960591;7.7239;0.00698073;fp_not_a_fp;-1;0.205491;
303640;3378.733652;396;56;18.9114;2.82843;0.0483453;36;395.143;55.9835;0;5;1;1;0.122598;-0.441824;-2.29765;0.121537;-0.426032;-2.28825;1;0.328436;-0.746689;0.373143;1;-4.68832;-1.94688;-1.51475;0.00708882;fp_not_a_fp;-1;0.205472;
303641;3378.744781;396;58;19.346;2.82843;0.0407621;210;395.36;57.9608;0;6;1;1;0.119919;-0.440035;-2.24057;0.120957;-0.431932;-2.27037;1;0.228016;-0.664608;0.823547;1;-7.64525;1.15606;11.9743;0.00692957;fp_not_a_fp;-1;0.205526;
303642;3378.755908;396;60;19.2204;2.82843;0.0342333;66;395.546;60.0175;0;7;1;1;0.120779;-0.4511;-2.24971;0.120987;-0.439962;-2.26401;1;0.167289;-0.67275;0.799837;1;-7.26255;0.0959572;4.15675;0.00697485;fp_not_a_fp;-1;0.205485;
303643;3378.767035;398;62;19.2044;2;0.130637;42;395.689;62.0079;0;8;1;1;0.111084;-0.459734;-2.24604;0.118595;-0.448173;-2.25849;1;0.00971897;-0.689278;0.730169;1;-8.67354;-0.540381;-0.472022;0.00493605;fp_not_a_fp;-1;0.205443;
303644;3378.778163;398;64;19.1343;2.82843;0.00629408;236;398.076;64.0068;0;9;1;1;0.111568;-0.469646;-2.24875;0.115838;-0.455129;-2.24627;1;-0.0510907;-0.721806;0.577131;1;-8.52665;0.558958;4.58253;0.00700624;fp_not_a_fp;-1;0.205468;
303645;3378.789291;398;66;19.3484;2.82843;0.0114217;69;398.225;66.0002;0;10;1;1;0.110409;-0.472583;-2.2184;0.11346;-0.463266;-2.24073;1;-0.0829904;-0.67685;0.788174;1;-6.98734;-0.274995;-0.794531;0.0069287;fp_not_a_fp;-1;0.205441;
303646;3378.800418;400;70;19.3189;0;0.208803;46;398.26;68.0211;0;11;1;1;0.100917;-0.489665;-2.21081;0.108495;-0.472907;-2.231;1;-0.194402;-0.767741;0.861852;1;-8.1261;-2.13415;1.39351;0;fp_not_a_fp;-1;0.20541;
303647;3378.811546;400;72;19.2925;2;0.048903;195;400.53;72.3077;0;12;1;1;0.10113;-0.498493;-2.20836;0.106006;-0.482597;-2.22158;1;-0.213196;-0.808565;0.810526;1;-5.00816;-2.67996;1.80569;0.00491351;fp_not_a_fp;-1;0.205476;
303648;3378.822674;402;72;19.1927;2;0.0931128;125;400.54;74.3844;0;13;1;1;0.0917787;-0.50115;-2.2198;0.101059;-0.490473;-2.21434;1;-0.300965;-0.752758;0.554719;1;-5.61395;-0.695394;-0.503458;0.00493908;fp_not_a_fp;-1;0.205462;
303649;3378.833801;402;76;19.209;4.47214;0.154474;49;402.76;74.068;0;14;1;1;0.0918534;-0.517112;-2.20691;0.0964198;-0.501605;-2.21147;1;-0.297993;-0.81666;0.526001;1;-4.83048;-3.14113;-5.89016;0.0110347;fp_not_a_fp;-1;0.205431;
303650;3378.844929;404;78;19.2615;2.82843;0.0600229;111;402.754;78.2189;0;15;1;1;0.0818365;-0.523937;-2.19537;0.0916498;-0.510173;-2.20761;1;-0.373569;-0.81713;0.579396;1;-4.02521;-1.10961;-6.34596;0.00695995;fp_not_a_fp;-1;0.205437;
303651;3378.856056;404;80;19.3429;4.47214;0.105405;159;404.912;80.2269;0;16;1;1;0.0815679;-0.52987;-2.18066;0.0867592;-0.518017;-2.20069;1;-0.360231;-0.781101;0.696088;1;-3.30332;0.616995;-2.57117;0.0109583;fp_not_a_fp;-1;0.205459;
303652;3378.867184;406;82;19.3086;2.82843;0.0482373;56;404.864;82.2097;0;17;1;1;0.0719704;-0.539028;-2.17903;0.0818071;-0.527487;-2.19049;1;-0.418787;-0.771555;0.67428;1;-2.64701;-0.422337;2.68607;0.00694298;fp_not_a_fp;-1;0.205443;
303653;3378.878312;408;84;19.2487;2.82843;0.0454284;109;406.988;84.2017;0;18;1;1;0.0624216;-0.548947;-2.18028;0.0744492;-0.535445;-2.18383;1;-0.499018;-0.782892;0.564899;1;-4.51621;0.758672;0.873996;0.0069646;fp_not_a_fp;-1;0.205472;
303654;3378.889439;408;86;19.3467;2.82843;0.0475854;231;409.197;86.1348;0;19;1;1;0.062181;-0.5543;-2.16377;0.0695353;-0.543036;-2.17593;1;-0.471282;-0.749085;0.636924;1;-2.19522;1.52877;1.29264;0.00692929;fp_not_a_fp;-1;0.205504;
303655;3378.900567;410;88;19.4059;2.82843;0.0369548;101;409.105;88.1033;0;20;1;1;0.0522976;-0.560783;-2.15168;0.0622177;-0.550764;-2.16869;1;-0.513001;-0.713878;0.724034;1;-3.43219;1.51034;0.628046;0.00690815;fp_not_a_fp;-1;0.205451;
303656;3378.911695;412;92;19.2721;2;0.11026;80;411.216;90.0801;0;21;1;1;0.0429758;-0.581075;-2.15561;0.0549691;-0.561276;-2.16283;1;-0.571651;-0.840856;0.622609;1;-3.43418;-1.55669;-1.16049;0.00491871;fp_not_a_fp;-1;0.205461;
303657;3378.922822;414;92;19.3062;2.82843;0.074924;290;413.351;94.3299;0;22;1;1;0.0330801;-0.580112;-2.15176;0.0476337;-0.569067;-2.1557;1;-0.636411;-0.775032;0.545426;1;-3.08678;0.176911;-0.437337;0.00694383;fp_not_a_fp;-1;0.205441;
303658;3378.933949;416;94;19.4136;2.82843;0.0251348;87;415.495;94.113;0;23;1;1;0.0232073;-0.585074;-2.13437;0.0378903;-0.576761;-2.14836;1;-0.695171;-0.705856;0.643254;1;-5.0301;0.971585;0.142412;0.00690542;fp_not_a_fp;-1;0.205477;
303659;3378.945078;418;98;19.4691;2;0.123339;128;417.659;96.0188;0;24;1;1;0.0135543;-0.599639;-2.11739;0.0282044;-0.586475;-2.13978;1;-0.741426;-0.754176;0.796243;1;-5.13189;-0.904939;1.6222;0.00486895;fp_not_a_fp;-1;0.205443;
303660;3378.956205;418;98;19.4718;2.82843;5.81129e-05;296;419.773;100.269;0;25;1;1;0.0135524;-0.599557;-2.1171;0.0208486;-0.591095;-2.13016;1;-0.665993;-0.677007;0.761231;1;-2.11952;3.6814;3.11406;0.0068848;fp_not_a_fp;-1;0.205457;
303661;3378.967332;422;102;19.4987;0;0.224548;115;419.561;100.017;0;26;1;1;-0.00576151;-0.615;-2.10326;0.0111382;-0.599817;-2.11803;1;-0.771265;-0.735783;0.808359;1;-3.02971;0.881939;5.90705;0;fp_not_a_fp;-1;0.205447;
303662;3378.978461;424;104;19.7563;2;0.0322499;96;423.823;104.237;0;27;1;1;-0.0152082;-0.615009;-2.07044;0.00153429;-0.607301;-2.10205;1;-0.82467;-0.666337;1.10085;1;-2.90927;0.887836;10.2799;0.00479817;fp_not_a_fp;-1;0.205459;
303663;3378.989588;426;104;19.5726;2;0.0854644;344;425.982;106.33;0;28;1;1;-0.025037;-0.620843;-2.08983;-0.00811353;-0.612602;-2.09516;1;-0.854221;-0.61951;0.859084;1;-2.53408;3.02543;1.41117;0.0048432;fp_not_a_fp;-1;0.205454;
303664;3379.000715;428;106;19.5445;2.82843;0.0317142;137;428.022;105.97;0;29;1;1;-0.034698;-0.629852;-2.08739;-0.0201761;-0.620176;-2.08773;1;-0.868217;-0.62441;0.677583;1;-4.54332;1.18155;-1.87996;0.00685917;fp_not_a_fp;-1;0.205462;
303665;3379.011842;430;110;19.558;2;0.0841662;120;430.072;107.866;0;30;1;1;-0.0442174;-0.645576;-2.0751;-0.0297901;-0.62782;-2.08069;1;-0.872382;-0.727041;0.656993;1;-2.2717;0.196195;-3.40142;0.00484682;fp_not_a_fp;-1;0.205444;
303666;3379.022971;432;110;19.5184;4.47214;0.1568;349;432.053;112.097;0;31;1;1;-0.0540203;-0.64695;-2.07928;-0.0394931;-0.635805;-2.0829;1;-0.875188;-0.692468;0.516842;1;-1.13499;-0.587231;-13.1207;0.0108598;fp_not_a_fp;-1;0.205494;
303667;3379.034098;434;112;19.5023;2.82843;0.0254383;153;434.03;111.885;0;32;1;1;-0.0637107;-0.655617;-2.07553;-0.0491615;-0.644499;-2.07933;1;-0.875797;-0.689209;0.435921;1;-0.484762;-1.56609;-9.50697;0.00687404;fp_not_a_fp;-1;0.20546;
303668;3379.045225;436;114;19.4877;2.82843;0.0268494;95;436.017;113.844;0;33;1;1;-0.0734112;-0.664246;-2.07162;-0.0588398;-0.653098;-2.07538;1;-0.875537;-0.698867;0.391755;1;-0.164465;-1.67299;-6.42148;0.00687917;fp_not_a_fp;-1;0.205455;
303669;3379.056354;438;116;19.5229;2.82843;0.026784;352;438.007;115.845;0;34;1;1;-0.0829145;-0.671174;-2.06243;-0.0685141;-0.659497;-2.07221;1;-0.872679;-0.693121;0.428849;1;-0.00666082;0.762002;-5.12555;0.00686676;fp_not_a_fp;-1;0.205485;
303670;3379.067481;440;118;19.4388;2.82843;0.0228025;105;440.006;117.837;0;35;1;1;-0.0929508;-0.68224;-2.06588;-0.0782468;-0.66832;-2.06887;1;-0.875232;-0.729186;0.349916;1;-0.000986844;-0.824968;-3.75049;0.0068965;fp_not_a_fp;-1;0.205478;
303671;3379.078608;444;120;19.4813;2.82843;0.0846077;152;441.994;119.876;0;36;1;1;-0.112135;-0.688955;-2.05586;-0.090353;-0.676654;-2.06395;1;-0.984558;-0.728047;0.387534;1;-2.44353;-0.872612;-1.08724;0.00688143;fp_not_a_fp;-1;0.205461;
303672;3379.089736;446;120;19.5833;2.82843;0.0685088;378;446.282;121.914;0;37;1;1;-0.121232;-0.685427;-2.04511;-0.102308;-0.681949;-2.05732;1;-1.00842;-0.594283;0.476905;1;-2.98548;2.34946;1.91282;0.00684557;fp_not_a_fp;-1;0.205493;
303673;3379.100864;448;122;19.5277;4.47214;0.0732793;102;448.378;121.663;0;38;1;1;-0.131211;-0.695504;-2.04548;-0.114382;-0.688031;-2.05308;1;-1.00405;-0.578708;0.448696;1;-2.95137;2.5703;0.445728;0.0108547;fp_not_a_fp;-1;0.205467;
303674;3379.111991;452;124;19.649;2;0.107546;223;450.357;123.593;0;39;1;1;-0.149623;-0.699345;-2.02739;-0.12855;-0.692308;-2.04346;1;-1.08523;-0.542487;0.587164;1;-4.71796;4.19439;5.33016;0.00482437;fp_not_a_fp;-1;0.205454;
303675;3379.123119;454;124;19.6269;2.82843;0.0663802;196;454.613;125.63;0;40;1;1;-0.159451;-0.700195;-2.02964;-0.140379;-0.695118;-2.0369;1;-1.093;-0.468074;0.543768;1;-2.43645;5.84052;3.5101;0.0068304;fp_not_a_fp;-1;0.205475;
303676;3379.134247;458;126;19.5582;2.82843;0.0614143;193;456.599;125.399;0;41;1;1;-0.179323;-0.710828;-2.03128;-0.154902;-0.701468;-2.03345;1;-1.18459;-0.499494;0.437633;1;-3.95793;2.12954;-0.882203;0.0068544;fp_not_a_fp;-1;0.205456;
303677;3379.145374;460;126;19.7854;4.47214;0.107018;268;460.796;127.408;0;42;1;1;-0.186845;-0.702726;-2.00791;-0.16881;-0.703274;-2.02406;1;-1.15757;-0.355895;0.605837;1;-3.44926;5.0059;3.53068;0.0107133;fp_not_a_fp;-1;0.205482;
303678;3379.156502;464;128;19.825;4;0.0785615;143;462.814;127.218;0;43;1;1;-0.205524;-0.709385;-1.99849;-0.182786;-0.705784;-2.01683;1;-1.21284;-0.327486;0.706063;1;-2.86703;4.83032;2.67124;0.0095631;fp_not_a_fp;-1;0.205465;
303679;3379.167629;464;128;19.5528;2;0.0573768;300;466.972;129.238;0;44;1;1;-0.208385;-0.71926;-2.02631;-0.195019;-0.71055;-2.016;1;-1.11378;-0.387171;0.338523;1;-0.466665;1.81762;-4.61153;0.0048481;fp_not_a_fp;-1;0.205476;
303680;3379.178757;468;128;19.6357;4.47214;0.105577;132;466.579;129.068;0;45;1;1;-0.226814;-0.716346;-2.01767;-0.206892;-0.71193;-2.01259;1;-1.14204;-0.329045;0.242534;1;0.956104;3.82947;-4.38361;0.0107949;fp_not_a_fp;-1;0.205461;
303681;3379.189885;470;128;19.6546;2.82843;0.0520736;205;470.625;128.842;0;46;1;1;-0.236242;-0.715719;-2.01568;-0.219241;-0.715178;-2.01454;1;-1.1161;-0.255865;0.194649;1;0.931747;2.24717;-9.23845;0.00682074;fp_not_a_fp;-1;0.20544;
303682;3379.201012;470;128;19.5757;2.82843;0.0182164;374;472.56;128.639;0;47;1;1;-0.237195;-0.718605;-2.02381;-0.227159;-0.717483;-2.02087;1;-0.973944;-0.22607;0.0568621;1;5.3674;2.27838;-14.5857;0.00684823;fp_not_a_fp;-1;0.205532;
303683;3379.212140;474;128;19.7063;2.82843;0.0824383;115;472.132;128.44;0;48;1;1;-0.254863;-0.713965;-2.01031;-0.238778;-0.716159;-2.01687;1;-0.993501;-0.131736;0.147392;1;2.70237;5.73879;-4.2941;0.00680287;fp_not_a_fp;-1;0.205482;
303684;3379.223268;476;128;19.9196;2.82843;0.0255834;366;476.277;128.305;0;49;1;1;-0.261651;-0.706381;-1.98875;-0.247488;-0.713668;-2.00964;1;-0.952667;0.0109833;0.41322;1;4.25455;7.63911;3.83448;0.00673001;fp_not_a_fp;-1;0.205466;
303685;3379.234395;476;128;20.0152;2.82843;0.0150773;138;478.292;128.212;0;50;1;1;-0.260402;-0.703008;-1.97925;-0.253528;-0.71049;-2.00053;1;-0.799955;0.107229;0.579237;1;7.10286;8.15747;8.6401;0.00669786;fp_not_a_fp;-1;0.205428;
303686;3379.245522;478;128;20.069;2.82843;0.0200259;234;477.974;128.146;0;51;1;1;-0.269151;-0.701185;-1.9739;-0.261517;-0.706135;-1.98805;1;-0.735097;0.154223;0.635217;1;5.36612;8.54387;12.9935;0.0066799;fp_not_a_fp;-1;0.205459;
303687;3379.256651;478;130;19.6895;2;0.124299;296;479.885;128.099;0;52;1;1;-0.274263;-0.722692;-2.00658;-0.266367;-0.708316;-1.98712;1;-0.673129;-0.0925386;0.202831;1;7.19762;0.880939;1.24603;0.00481443;fp_not_a_fp;-1;0.205448;
303688;3379.267778;480;128;20.0142;2.82843;0.087031;127;479.503;130.354;0;53;1;1;-0.27936;-0.703165;-1.97927;-0.270794;-0.707512;-1.98475;1;-0.620084;0.0411276;0.311345;1;7.47204;0.677814;-2.2879;0.00669818;fp_not_a_fp;-1;0.205486;
303689;3379.278906;480;130;19.9328;2.82843;0.0669799;431;481.448;128.129;0;54;1;1;-0.280427;-0.713935;-1.98205;-0.2758;-0.710244;-1.98545;1;-0.53131;-0.0323344;0.284537;1;6.03555;-3.135;-6.62008;0.00672557;fp_not_a_fp;-1;0.205535;
303690;3379.290034;482;130;20.2024;2;0.0742533;94;481.224;130.306;0;55;1;1;-0.286069;-0.704466;-1.95556;-0.28003;-0.711065;-1.98086;1;-0.491516;0.049959;0.540843;1;5.47238;-2.34207;-2.11977;0.0046922;fp_not_a_fp;-1;0.205439;
303691;3379.301161;482;130;20.3506;2.82843;0.00754325;69;483.252;130.344;0;56;1;1;-0.283986;-0.699337;-1.94132;-0.28246;-0.705226;-1.96455;1;-0.388498;0.136397;0.741015;1;6.3948;5.14347;12.0911;0.00658749;fp_not_a_fp;-1;0.205433;
303692;3379.312288;482;130;20.3621;2.82843;0.00754325;397;483.107;130.285;0;57;1;1;-0.283825;-0.698942;-1.94022;-0.283577;-0.70417;-1.95479;1;-0.294533;0.159249;0.741785;1;7.31418;2.65375;9.67038;0.00658377;fp_not_a_fp;-1;0.205486;
303693;3379.323416;482;130;20.4163;2.82843;0.00754325;101;482.868;130.255;0;58;1;1;-0.283072;-0.697086;-1.93507;-0.284238;-0.699958;-1.94304;1;-0.209494;0.169654;0.706544;1;7.23015;4.53797;9.48097;0.00656629;fp_not_a_fp;-1;0.205412;
303694;3379.334544;482;132;20.4815;2.82843;0.0696143;63;482.66;130.178;0;59;1;1;-0.282099;-0.702552;-1.92375;-0.283245;-0.699479;-1.93509;1;-0.13648;0.0896519;0.731591;1;7.97652;0.891816;4.28568;0.00654538;fp_not_a_fp;-1;0.20546;
303695;3379.345671;484;134;20.4243;4;0.120923;153;482.458;132.419;0;60;1;1;-0.292099;-0.712285;-1.92392;-0.285274;-0.702716;-1.93074;1;-0.203527;-0.0664125;0.646668;1;4.15562;-4.55659;-2.11966;0.00928248;fp_not_a_fp;-1;0.20546;
303696;3379.356800;482;134;20.3414;2.82843;0.0646632;328;484.606;134.752;0;61;1;1;-0.283971;-0.715131;-1.93181;-0.28531;-0.706764;-1.92864;1;-0.112108;-0.155056;0.438672;1;4.09818;-7.06137;-6.80959;0.00659046;fp_not_a_fp;-1;0.205498;
303697;3379.367927;484;134;20.4697;2;0.103613;75;482.295;134.787;0;62;1;1;-0.291452;-0.710707;-1.91966;-0.287405;-0.710169;-1.92479;1;-0.145788;-0.121203;0.43604;1;1.43104;-6.53454;-6.07702;0.00463096;fp_not_a_fp;-1;0.20546;
303698;3379.379054;484;136;20.6045;2.82843;0.0465292;90;484.423;134.707;0;63;1;1;-0.289473;-0.713696;-1.90197;-0.289249;-0.712955;-1.91934;1;-0.118432;-0.126008;0.582125;1;0.40527;-4.8451;-3.35769;0.00650631;fp_not_a_fp;-1;0.205427;
303699;3379.390182;484;138;20.5202;2.82843;0.0415612;348;484.423;136.845;0;64;1;1;-0.290592;-0.724301;-1.90464;-0.288872;-0.715959;-1.91452;1;-0.104842;-0.233477;0.537636;1;2.21693;-3.75308;-2.44914;0.00653306;fp_not_a_fp;-1;0.205448;
303700;3379.401310;484;138;20.5346;2.82843;0.0021632;150;484.334;139.046;0;65;1;1;-0.290388;-0.723792;-1.9033;-0.290476;-0.718124;-1.90739;1;-0.0835131;-0.242277;0.466012;1;0.642414;-1.95943;0.614299;0.00652847;fp_not_a_fp;-1;0.205438;
303701;3379.412437;486;142;20.5834;4;0.152177;158;484.288;138.996;0;66;1;1;-0.298767;-0.737428;-1.88848;-0.292305;-0.724804;-1.8996;1;-0.160093;-0.371321;0.546898;1;-0.321478;-5.61936;2.49079;0.00921073;fp_not_a_fp;-1;0.205461;
303702;3379.423565;486;142;20.6386;4.47214;0.0500614;375;486.49;143.429;0;67;1;1;-0.297969;-0.735458;-1.88344;-0.294429;-0.730245;-1.89496;1;-0.162175;-0.354714;0.56838;1;-0.982857;-5.13831;-0.308701;0.0102704;fp_not_a_fp;-1;0.205494;
303703;3379.434693;486;144;20.6703;2.82843;0.0377562;147;486.511;143.394;0;68;1;1;-0.297441;-0.741945;-1.87543;-0.296141;-0.734656;-1.88766;1;-0.136295;-0.376963;0.596485;1;-0.706713;-3.22386;1.32219;0.00648561;fp_not_a_fp;-1;0.205467;
303704;3379.445820;488;146;20.7524;2.82843;0.065655;160;486.455;145.46;0;69;1;1;-0.305328;-0.746651;-1.86288;-0.299876;-0.740371;-1.87756;1;-0.198623;-0.39202;0.675948;1;-2.58622;-3.36442;4.71666;0.00645994;fp_not_a_fp;-1;0.205437;
303705;3379.456947;488;148;20.7133;2;0.0805541;367;488.666;147.596;0;70;1;1;-0.305834;-0.755662;-1.8613;-0.301643;-0.744929;-1.87076;1;-0.204851;-0.451531;0.640675;1;-1.00555;-1.80213;2.10683;0.00457649;fp_not_a_fp;-1;0.205491;
303706;3379.468076;490;148;20.7292;2;0.112963;162;488.632;149.667;0;71;1;1;-0.314745;-0.75514;-1.85983;-0.305837;-0.749849;-1.86486;1;-0.283428;-0.412553;0.561218;1;-2.72403;-1.29958;-0.160747;0.00457298;fp_not_a_fp;-1;0.205484;
303707;3379.479203;492;150;20.7385;2.82843;0.043206;312;490.828;149.484;0;72;1;1;-0.323674;-0.76245;-1.85386;-0.312395;-0.754976;-1.85947;1;-0.38211;-0.427616;0.525218;1;-5.5226;-1.13813;-1.60102;0.00646427;fp_not_a_fp;-1;0.205471;
303708;3379.490330;490;152;20.8288;2.82843;0.0956165;358;493.091;151.476;0;73;1;1;-0.313098;-0.766642;-1.84079;-0.314338;-0.759974;-1.85394;1;-0.252921;-0.427348;0.593217;1;-1.21982;-0.793817;-1.85857;0.00643623;fp_not_a_fp;-1;0.205473;
303709;3379.501459;492;154;20.7087;2;0.0905755;234;490.742;153.546;0;74;1;1;-0.323998;-0.778748;-1.84632;-0.318879;-0.765745;-1.8502;1;-0.292206;-0.511492;0.482209;1;-1.96245;-1.34711;-3.55995;0.00457749;fp_not_a_fp;-1;0.205458;
303710;3379.512586;494;156;20.5682;2;0.0857457;296;492.787;155.622;0;75;1;1;-0.335358;-0.791783;-1.85376;-0.324032;-0.774906;-1.84868;1;-0.401388;-0.630432;0.289534;1;-2.65019;-4.89496;-6.10378;0.00460878;fp_not_a_fp;-1;0.20548;
303711;3379.523713;494;156;20.8873;2.82843;0.00222231;390;494.953;157.722;0;76;1;1;-0.330235;-0.779686;-1.82544;-0.325672;-0.779215;-1.84158;1;-0.336579;-0.460506;0.497634;1;1.02306;-0.738632;-0.619368;0.00641823;fp_not_a_fp;-1;0.205453;
303712;3379.534842;496;158;20.6878;2;0.0740552;174;494.886;157.543;0;77;1;1;-0.342511;-0.79487;-1.83789;-0.333025;-0.786272;-1.84085;1;-0.407576;-0.505575;0.377457;1;-3.47435;-1.75715;-4.84688;0.00458213;fp_not_a_fp;-1;0.205497;
303713;3379.545969;498;158;20.8915;2.82843;0.0777205;251;497.048;159.502;0;78;1;1;-0.348247;-0.787181;-1.81994;-0.339088;-0.78838;-1.83426;1;-0.450682;-0.371576;0.485433;1;-3.56026;3.14373;0.0728762;0.00641695;fp_not_a_fp;-1;0.205437;
303714;3379.557096;500;160;21.0366;2;0.0566445;412;499.254;159.282;0;79;1;1;-0.354788;-0.789292;-1.80232;-0.343945;-0.787757;-1.8214;1;-0.485985;-0.293005;0.670045;1;-1.90044;7.58124;8.54944;0.00450616;fp_not_a_fp;-1;0.205474;
303715;3379.568225;502;160;21.0986;2;0.0649086;184;501.444;161.289;0;80;1;1;-0.362729;-0.787027;-1.79698;-0.352069;-0.789592;-1.81428;1;-0.529609;-0.197201;0.72211;1;-4.33658;5.91559;5.04352;0.00449289;fp_not_a_fp;-1;0.205431;
303716;3379.579352;504;162;21.0701;4.47214;0.109631;185;503.63;161.125;0;81;1;1;-0.372149;-0.795621;-1.79436;-0.359478;-0.78978;-1.8034;1;-0.58806;-0.230974;0.681547;1;-4.05489;6.16927;6.83194;0.01006;fp_not_a_fp;-1;0.205471;
303717;3379.590479;504;162;21.2803;2.82843;0.0115518;398;505.754;163.172;0;82;1;1;-0.368473;-0.787762;-1.77664;-0.364535;-0.789925;-1.79258;1;-0.495071;-0.125385;0.781021;1;-0.997247;5.531;6.64092;0.00629967;fp_not_a_fp;-1;0.20541;
303718;3379.601608;506;164;21.3302;2.82843;0.045028;153;505.563;163.051;0;83;1;1;-0.37643;-0.793356;-1.76749;-0.369945;-0.790941;-1.78387;1;-0.484699;-0.129868;0.827373;1;0.0289283;3.66499;3.5345;0.00628495;fp_not_a_fp;-1;0.205464;
303719;3379.612735;508;166;21.2568;2.82843;0.0418715;138;507.542;165.126;0;84;1;1;-0.386579;-0.803557;-1.76858;-0.375908;-0.795074;-1.77677;1;-0.534923;-0.232086;0.728482;1;-0.11944;-0.783767;0.143075;0.00630664;fp_not_a_fp;-1;0.205414;
303720;3379.623862;510;166;21.265;2.82843;0.0512062;389;509.587;167.297;0;85;1;1;-0.395345;-0.803304;-1.76786;-0.381707;-0.796995;-1.77014;1;-0.587936;-0.241827;0.60296;1;0.00271702;-0.243827;-1.76579;0.00630421;fp_not_a_fp;-1;0.205457;
303721;3379.634990;512;168;21.3185;2.82843;0.0325148;202;511.662;167.169;0;86;1;1;-0.403177;-0.80873;-1.75843;-0.390383;-0.802236;-1.76559;1;-0.624628;-0.2772;0.582244;1;-2.91073;-3.41074;-4.46607;0.00628839;fp_not_a_fp;-1;0.205427;
303722;3379.646118;514;170;20.8857;2;0.0640578;136;513.771;169.259;0;87;1;1;-0.42054;-0.833086;-1.78978;-0.40141;-0.812169;-1.77116;1;-0.759143;-0.535646;0.140115;1;-6.1659;-9.11651;-15.4406;0.00453872;fp_not_a_fp;-1;0.205458;
303723;3379.657245;516;170;21.2786;2.82843;0.048525;304;515.801;171.358;0;88;1;1;-0.421684;-0.817759;-1.75669;-0.410187;-0.815719;-1.76819;1;-0.731013;-0.398436;0.318832;1;-4.40549;-3.73725;-9.20357;0.00630018;fp_not_a_fp;-1;0.205415;
303724;3379.668374;518;170;21.3853;2.82843;0.043339;239;517.887;171.23;0;89;1;1;-0.428444;-0.813735;-1.74788;-0.418461;-0.818327;-1.76319;1;-0.703634;-0.244788;0.452946;1;-2.59935;-0.0666831;-3.37049;0.00626876;fp_not_a_fp;-1;0.205464;
303725;3379.679501;520;172;21.3773;2.82843;0.0303698;103;519.937;171.015;0;90;1;1;-0.437405;-0.82146;-1.74356;-0.427018;-0.82151;-1.75947;1;-0.705287;-0.238627;0.500177;1;-1.81221;0.866379;-1.84392;0.00627112;fp_not_a_fp;-1;0.205439;
303726;3379.690628;522;174;21.4536;2;0.0754797;303;521.963;173.052;0;91;1;1;-0.444618;-0.825933;-1.73239;-0.433038;-0.819722;-1.74513;1;-0.698698;-0.256922;0.583845;1;1.35799;6.26183;9.96916;0.00441858;fp_not_a_fp;-1;0.205441;
303727;3379.701756;524;174;21.4477;2.82843;0.0449311;190;523.992;175.196;0;92;1;1;-0.45358;-0.826217;-1.73283;-0.441012;-0.821836;-1.73917;1;-0.709571;-0.234961;0.538941;1;0.481691;3.67245;4.94506;0.00625051;fp_not_a_fp;-1;0.205444;
303728;3379.712883;526;176;21.4036;2.82843;0.0352392;206;526;175.098;0;93;1;1;-0.463303;-0.83533;-1.73143;-0.449726;-0.827235;-1.73505;1;-0.735017;-0.300377;0.467759;1;-0.705077;-1.24901;0.332863;0.00626338;fp_not_a_fp;-1;0.205424;
303729;3379.724010;528;176;21.4458;2.82843;0.0445499;338;527.999;177.205;0;94;1;1;-0.471232;-0.833745;-1.72798;-0.458183;-0.830306;-1.73116;1;-0.742677;-0.270929;0.418124;1;-0.840058;-0.725782;-1.8435;0.00625108;fp_not_a_fp;-1;0.205413;
303730;3379.735138;530;178;21.3095;2;0.0642708;140;530.005;177.065;0;95;1;1;-0.483074;-0.846521;-1.73404;-0.467797;-0.835453;-1.73157;1;-0.786846;-0.370648;0.274867;1;-1.98038;-2.55498;-6.94165;0.00444846;fp_not_a_fp;-1;0.205441;
303731;3379.746265;532;178;21.3204;2.82843;0.0479411;216;531.99;179.118;0;96;1;1;-0.491719;-0.846146;-1.73311;-0.477332;-0.840435;-1.73164;1;-0.803835;-0.360273;0.191215;1;-2.11781;-2.81525;-7.81233;0.00628785;fp_not_a_fp;-1;0.205431;
303732;3379.757392;534;178;21.4693;2.82843;0.043519;299;533.989;179;0;97;1;1;-0.497139;-0.840334;-1.72106;-0.485791;-0.841686;-1.72905;1;-0.770458;-0.243415;0.270473;1;-0.796193;1.28001;-4.43229;0.00624424;fp_not_a_fp;-1;0.205467;
303733;3379.768520;538;180;21.3938;2.82843;0.0790936;236;536.005;178.798;0;98;1;1;-0.516547;-0.850769;-1.72211;-0.49712;-0.845942;-1.72758;1;-0.880844;-0.283682;0.25664;1;-3.10395;-0.286252;-3.62787;0.00626625;fp_not_a_fp;-1;0.20545;
303734;3379.779647;540;180;21.4633;4.47214;0.0922406;334;540.285;180.895;0;99;1;1;-0.523709;-0.848073;-1.7165;-0.507279;-0.84633;-1.7232;1;-0.896201;-0.233229;0.282509;1;-2.45672;3.08755;0.171711;0.00987571;fp_not_a_fp;-1;0.205442;
303735;3379.790775;542;180;21.5261;2.82843;0.0261349;135;542.377;180.793;0;100;1;1;-0.530987;-0.845654;-1.71145;-0.517095;-0.846207;-1.71778;1;-0.87167;-0.154904;0.31503;1;-1.52387;4.61421;2.78185;0.00622777;fp_not_a_fp;-1;0.205419;
303736;3379.801902;544;180;21.4941;2.82843;0.0230654;345;544.372;180.65;0;101;1;1;-0.540597;-0.846968;-1.71396;-0.52796;-0.847866;-1.71601;1;-0.860502;-0.11784;0.259552;1;-2.02288;2.8214;-0.245252;0.00623698;fp_not_a_fp;-1;0.205456;
303737;3379.813030;546;180;21.5029;2.82843;0.0218729;102;546.316;180.506;0;102;1;1;-0.549192;-0.846678;-1.71322;-0.536121;-0.846843;-1.71378;1;-0.844659;-0.0841713;0.21199;1;0.812975;4.48248;-1.00309;0.00623447;fp_not_a_fp;-1;0.205421;
303738;3379.824157;548;180;21.5295;4.47214;0.0656758;326;548.223;180.351;0;103;1;1;-0.557321;-0.845691;-1.71107;-0.544524;-0.846247;-1.71242;1;-0.823551;-0.0481988;0.189954;1;1.63227;4.15714;-2.07943;0.00984531;fp_not_a_fp;-1;0.205436;
303739;3379.835285;548;180;21.7485;2.82843;0.0104146;123;550.159;180.242;0;104;1;1;-0.551707;-0.837173;-1.69384;-0.549704;-0.844127;-1.70802;1;-0.645444;0.070444;0.354148;1;5.08239;5.06274;0.878609;0.00616408;fp_not_a_fp;-1;0.205439;
303740;3379.846412;550;180;21.7468;2.82843;0.0174629;204;549.844;180.168;0;105;1;1;-0.56047;-0.837297;-1.69394;-0.554672;-0.841709;-1.70301;1;-0.589954;0.109072;0.375691;1;6.07818;5.09791;2.609;0.00616456;fp_not_a_fp;-1;0.205474;
303741;3379.857539;550;180;21.7827;2.82843;0.0137306;126;551.728;180.115;0;106;1;1;-0.559545;-0.835915;-1.69114;-0.557261;-0.839019;-1.69749;1;-0.481167;0.126967;0.368731;1;8.16643;4.74352;3.52123;0.00615439;fp_not_a_fp;-1;0.205417;
303742;3379.868667;550;180;21.9576;2.82843;0.0137306;105;551.428;180.078;0;107;1;1;-0.555088;-0.829257;-1.67767;-0.556702;-0.83491;-1.68914;1;-0.323752;0.194481;0.473212;1;11.2286;5.45205;6.36356;0.00610537;fp_not_a_fp;-1;0.205443;
303743;3379.879794;550;180;21.8637;2.82843;0.0137306;375;551.098;180.054;0;108;1;1;-0.557473;-0.83282;-1.68488;-0.558144;-0.833822;-1.6869;1;-0.244743;0.156734;0.373402;1;9.00248;1.93858;0.432349;0.00613159;fp_not_a_fp;-1;0.205427;
303744;3379.890921;550;180;22.077;2;0.0560952;89;550.812;180.036;0;109;1;1;-0.552085;-0.824771;-1.66859;-0.556047;-0.83069;-1.68057;1;-0.119113;0.213409;0.471192;1;10.5784;2.34408;2.14546;0.00429378;fp_not_a_fp;-1;0.205452;
303745;3379.902048;550;180;21.986;2;0.0463322;437;550.566;180.025;0;110;1;1;-0.55437;-0.828185;-1.6755;-0.554754;-0.828758;-1.67666;1;-0.0781984;0.170474;0.372326;1;9.05347;0.977364;0.0805333;0.00431154;fp_not_a_fp;-1;0.20544;
303746;3379.913176;550;178;22.1626;2;0.105337;164;550.387;180.017;0;111;1;1;-0.550021;-0.814485;-1.66692;-0.553487;-0.825065;-1.67397;1;-0.00145991;0.288007;0.382307;1;7.24105;2.10104;-2.04248;0.00427724;fp_not_a_fp;-1;0.205414;
303747;3379.924303;548;180;22.2409;2;0.127608;109;550.267;177.718;0;112;1;1;-0.539494;-0.81864;-1.65634;-0.548992;-0.82152;-1.66684;1;0.151108;0.252215;0.458982;1;8.89375;2.14497;1.92276;0.00426216;fp_not_a_fp;-1;0.205404;
303748;3379.935431;548;180;22.2411;4;0.0502359;433;547.889;179.925;0;113;1;1;-0.53949;-0.818634;-1.65633;-0.545844;-0.819986;-1.66377;1;0.194936;0.205331;0.432282;1;7.05581;-0.18177;-0.87423;0.00852426;fp_not_a_fp;-1;0.205422;
303749;3379.946559;546;180;22.1779;2;0.085752;160;547.749;180.018;0;114;1;1;-0.532479;-0.820911;-1.66108;-0.540371;-0.818168;-1.66017;1;0.268543;0.133657;0.311591;1;7.79017;-0.827293;-1.36433;0.00427423;fp_not_a_fp;-1;0.205452;
303750;3379.957686;544;180;22.4161;4.47214;0.114097;246;545.433;180.054;0;115;1;1;-0.518363;-0.812133;-1.64347;-0.532456;-0.81758;-1.6543;1;0.426526;0.187615;0.423905;1;9.61574;-2.25539;0.934944;0.0094559;fp_not_a_fp;-1;0.205455;
303751;3379.968813;544;180;22.4798;4.47214;0.0619567;377;543.077;180.095;0;116;1;1;-0.516893;-0.80983;-1.63881;-0.526806;-0.815377;-1.64992;1;0.45426;0.21238;0.469669;1;6.81099;-0.894802;0.240428;0.00942911;fp_not_a_fp;-1;0.20545;
303752;3379.979941;544;180;22.5199;2.82843;0.00139256;129;543.082;180.068;0;117;1;1;-0.515973;-0.808389;-1.63589;-0.520927;-0.812816;-1.64481;1;0.418323;0.212044;0.4621;1;5.01893;0.151003;0.67024;0.00595292;fp_not_a_fp;-1;0.205438;
303753;3379.991068;542;182;22.5199;4;0.10918;321;543.201;180.048;0;118;1;1;-0.50749;-0.815326;-1.63124;-0.514679;-0.81142;-1.63735;1;0.447357;0.105348;0.453383;1;4.01762;-0.635981;3.18581;0.00841872;fp_not_a_fp;-1;0.205408;
303754;3380.002195;542;180;22.5825;4.47214;0.10786;365;541.092;182.326;0;119;1;1;-0.506148;-0.806095;-1.63139;-0.511626;-0.80991;-1.63433;1;0.417678;0.153633;0.390162;1;-0.198736;-0.76346;-0.758127;0.00938619;fp_not_a_fp;-1;0.20547;
303755;3380.013323;538;182;22.5719;2.82843;0.122568;126;541.196;180.105;0;120;1;1;-0.489522;-0.813339;-1.62755;-0.504783;-0.810787;-1.63152;1;0.542697;0.0709578;0.35831;1;1.98676;-3.17721;-2.5019;0.00593918;fp_not_a_fp;-1;0.205439;
303756;3380.024450;536;182;22.6183;2.82843;0.043594;413;536.761;182.294;0;121;1;1;-0.480136;-0.811615;-1.62424;-0.495824;-0.811593;-1.6286;1;0.632746;0.0475009;0.337337;1;4.81733;-3.69668;-2.80306;0.00592702;fp_not_a_fp;-1;0.205469;
303757;3380.035577;536;182;22.6472;2.82843;0.0225832;340;534.451;182.333;0;122;1;1;-0.479525;-0.810582;-1.62218;-0.488832;-0.810408;-1.62634;1;0.596257;0.0435868;0.309335;1;3.34518;-1.38745;-3.23638;0.00591947;fp_not_a_fp;-1;0.20543;
303758;3380.046705;532;184;22.6017;4.47214;0.122377;170;534.553;182.274;0;123;1;1;-0.463648;-0.81907;-1.62084;-0.478208;-0.813651;-1.6237;1;0.687096;-0.0608714;0.273656;1;6.05274;-4.819;-2.61746;0.00937827;fp_not_a_fp;-1;0.205445;
303759;3380.057832;532;184;22.7884;4.47214;0.0297756;424;530.206;184.535;0;124;1;1;-0.45985;-0.81236;-1.60756;-0.470789;-0.813407;-1.6187;1;0.68054;-0.0193544;0.376226;1;3.09682;-2.02885;0.402693;0.00930143;fp_not_a_fp;-1;0.205437;
303760;3380.068959;530;186;22.7492;4;0.0501583;343;530.342;184.547;0;125;1;1;-0.452244;-0.820625;-1.60572;-0.463817;-0.815659;-1.61407;1;0.678211;-0.0944759;0.391704;1;1.02128;-3.18961;1.22164;0.00833384;fp_not_a_fp;-1;0.205432;
303761;3380.080087;526;186;22.4769;2.82843;0.105655;203;528.36;186.769;0;126;1;1;-0.440853;-0.830456;-1.62524;-0.454149;-0.820627;-1.61484;1;0.721316;-0.226151;0.124389;1;2.80951;-6.05987;-4.15469;0.00596431;fp_not_a_fp;-1;0.205423;
303762;3380.091215;524;186;22.8214;2.82843;0.0506678;443;524.026;186.751;0;127;1;1;-0.425891;-0.817866;-1.60074;-0.444709;-0.820327;-1.60981;1;0.818633;-0.107412;0.278864;1;2.95523;-1.04542;0.117494;0.00587427;fp_not_a_fp;-1;0.205445;
303763;3380.102342;522;186;22.7768;2.82843;0.0474679;361;521.877;186.631;0;128;1;1;-0.418402;-0.819416;-1.60392;-0.434347;-0.822091;-1.6089;1;0.840277;-0.0624059;0.270753;1;3.58884;-0.967042;-2.36933;0.00588578;fp_not_a_fp;-1;0.205436;
303764;3380.113470;520;188;22.8226;4.47214;0.0774135;242;519.815;186.495;0;129;1;1;-0.409191;-0.824615;-1.5961;-0.423584;-0.823088;-1.6065;1;0.847618;-0.0954381;0.322418;1;3.80608;-0.02134;-1.55638;0.00928749;fp_not_a_fp;-1;0.205417;
303765;3380.124597;518;188;23.0245;2.82843;0.0433109;479;517.805;188.634;0;130;1;1;-0.397368;-0.81733;-1.58214;-0.412713;-0.819807;-1.59573;1;0.878066;-0.0134003;0.462715;1;3.52177;4.78008;7.60127;0.00582245;fp_not_a_fp;-1;0.205442;
303766;3380.135724;516;188;22.9565;4.47214;0.0514849;247;515.835;188.616;0;131;1;1;-0.390287;-0.819698;-1.58686;-0.403812;-0.820265;-1.59226;1;0.859824;-0.00493297;0.407542;1;0.925445;2.30257;2.89099;0.00923329;fp_not_a_fp;-1;0.205412;
303767;3380.146852;512;190;23.2115;4.47214;0.0952696;288;513.883;188.525;0;132;1;1;-0.369601;-0.817369;-1.56495;-0.391612;-0.819753;-1.58251;1;0.979716;0.0258835;0.58394;1;3.13257;1.98368;7.03611;0.00913187;fp_not_a_fp;-1;0.205454;
303768;3380.157979;510;190;23.0626;2.82843;0.0592646;518;509.593;190.721;0;133;1;1;-0.363768;-0.822596;-1.57509;-0.380256;-0.819248;-1.57726;1;0.971163;-0.024599;0.466073;1;2.77551;1.59153;3.2272;0.00581286;fp_not_a_fp;-1;0.205441;
303769;3380.169106;508;190;22.9997;2.82843;0.0538629;176;507.551;190.668;0;134;1;1;-0.35652;-0.824792;-1.57943;-0.370044;-0.821114;-1.57658;1;0.926842;-0.067499;0.308142;1;1.09563;-1.21553;-3.47328;0.00582873;fp_not_a_fp;-1;0.205457;
303770;3380.180234;504;192;23.1352;2.82843;0.0877264;296;505.594;190.56;0;135;1;1;-0.337979;-0.826659;-1.56569;-0.356967;-0.822854;-1.57129;1;1.00283;-0.0980163;0.361163;1;3.21257;-2.09138;-1.04248;0.00579459;fp_not_a_fp;-1;0.205474;
303771;3380.191361;504;192;23.0431;4;0.0231666;488;501.356;192.738;0;136;1;1;-0.33933;-0.829965;-1.57195;-0.349399;-0.826003;-1.57304;1;0.890825;-0.136021;0.265236;1;-1.99726;-3.63755;-7.16058;0.00822757;fp_not_a_fp;-1;0.205424;
303772;3380.202488;500;192;23.1426;2.82843;0.0766073;170;501.68;192.68;0;137;1;1;-0.321487;-0.826289;-1.56526;-0.338829;-0.826926;-1.57058;1;0.935457;-0.0922433;0.268468;1;-0.802316;-1.51972;-4.43974;0.00579275;fp_not_a_fp;-1;0.205439;
303773;3380.213617;498;194;23.204;2;0.110301;357;497.549;192.573;0;138;1;1;-0.312403;-0.830835;-1.5566;-0.3278;-0.828437;-1.56487;1;0.938703;-0.114484;0.334809;1;0.266387;-1.05551;0.598939;0.00408525;fp_not_a_fp;-1;0.205425;
303774;3380.224743;496;192;23.1837;2.82843;0.10479;373;495.549;194.745;0;139;1;1;-0.304562;-0.82472;-1.56255;-0.319446;-0.827952;-1.56409;1;0.910193;-0.0389771;0.251248;1;-2.08127;1.3266;-2.46971;0.00578248;fp_not_a_fp;-1;0.205408;
303775;3380.235871;492;194;23.0876;2.82843;0.082796;164;493.643;192.398;0;140;1;1;-0.289344;-0.834865;-1.56455;-0.306949;-0.829177;-1.56224;1;0.956767;-0.119092;0.161766;1;1.48154;0.380475;-2.3249;0.00580655;fp_not_a_fp;-1;0.205445;
303776;3380.246999;492;194;23.2769;4.47214;0.041777;453;489.417;194.491;0;141;1;1;-0.286991;-0.828076;-1.55183;-0.298325;-0.829624;-1.55888;1;0.880946;-0.0591967;0.249978;1;-1.2246;0.742474;-0.415812;0.0091063;fp_not_a_fp;-1;0.205484;
303777;3380.258126;490;194;23.2347;2;0.0728466;299;489.694;194.471;0;142;1;1;-0.279352;-0.829526;-1.55468;-0.290062;-0.829297;-1.5584;1;0.824811;-0.0435142;0.221872;1;-2.55875;1.59446;-2.53767;0.00407984;fp_not_a_fp;-1;0.205459;
303778;3380.269253;486;196;23.2501;4.47214;0.122867;229;487.86;194.368;0;143;1;1;-0.262796;-0.835644;-1.54918;-0.27962;-0.832027;-1.55506;1;0.886185;-0.101607;0.245014;1;-0.539272;-1.40724;-0.140243;0.0091168;fp_not_a_fp;-1;0.205456;
303779;3380.280381;484;196;23.3652;2.82843;0.0308741;466;483.654;196.6;0;144;1;1;-0.253387;-0.831474;-1.54158;-0.270631;-0.83118;-1.54931;1;0.90636;-0.0648628;0.310418;1;-1.13243;1.21824;3.33955;0.00573755;fp_not_a_fp;-1;0.205437;
303780;3380.291508;482;198;23.4074;4.47214;0.0863553;212;481.632;196.59;0;145;1;1;-0.244769;-0.836648;-1.53432;-0.260076;-0.833323;-1.54494;1;0.897885;-0.100713;0.38105;1;0.380526;-0.932803;2.94473;0.00905553;fp_not_a_fp;-1;0.205436;
303781;3380.302635;480;198;23.7158;4.47214;0.062894;324;479.637;198.8;0;146;1;1;-0.233592;-0.825718;-1.5144;-0.248636;-0.832371;-1.53487;1;0.907979;0.0226132;0.58994;1;1.86855;1.48578;8.26964;0.00893778;fp_not_a_fp;-1;0.205435;
303782;3380.313763;480;198;23.6308;4.47214;0.0369563;510;477.651;198.795;0;147;1;1;-0.234432;-0.828687;-1.51985;-0.241545;-0.830632;-1.52754;1;0.786709;0.0366636;0.538603;1;-2.23474;3.10662;6.59639;0.00896991;fp_not_a_fp;-1;0.205423;
303783;3380.324890;476;200;23.5473;2.82843;0.0934419;174;478.045;198.652;0;148;1;1;-0.219099;-0.838206;-1.52082;-0.232973;-0.832315;-1.52235;1;0.812014;-0.0713268;0.43756;1;-2.11947;-0.145135;2.85684;0.0056932;fp_not_a_fp;-1;0.20541;
303784;3380.336017;474;200;23.6581;4.47214;0.0509702;489;473.91;200.799;0;149;1;1;-0.21006;-0.834231;-1.51374;-0.224296;-0.83171;-1.5172;1;0.822516;-0.0612842;0.421211;1;-1.69311;0.885956;0.90262;0.00895957;fp_not_a_fp;-1;0.205486;
303785;3380.347145;472;200;23.6447;2.82843;0.0548695;423;471.855;200.728;0;150;1;1;-0.20216;-0.834651;-1.51463;-0.216438;-0.833944;-1.51726;1;0.812491;-0.0541326;0.350523;1;-2.14512;-1.7243;-5.37899;0.00566974;fp_not_a_fp;-1;0.20542;
303786;3380.358273;470;202;23.6878;4.47214;0.0624242;208;469.858;200.603;0;151;1;1;-0.193727;-0.839727;-1.50745;-0.206262;-0.836704;-1.51416;1;0.801374;-0.102456;0.358898;1;0.329505;-3.12558;-4.03752;0.00894833;fp_not_a_fp;-1;0.205468;
303787;3380.369400;468;202;23.8479;4.47214;0.0441018;581;467.839;202.766;0;152;1;1;-0.184477;-0.834038;-1.49736;-0.197606;-0.835662;-1.50829;1;0.800601;-0.0441401;0.432215;1;-0.256387;0.61089;-0.120112;0.00888825;fp_not_a_fp;-1;0.205404;
303788;3380.380527;466;202;23.8437;2.82843;0.0620562;393;465.868;202.707;0;153;1;1;-0.176559;-0.834134;-1.49766;-0.189231;-0.835637;-1.50427;1;0.788934;-0.0155183;0.40395;1;-0.754478;1.02833;-0.387838;0.00562242;fp_not_a_fp;-1;0.205454;
303789;3380.391655;462;204;23.7939;2.82843;0.104336;186;463.902;202.59;0;154;1;1;-0.160931;-0.842393;-1.49642;-0.178924;-0.837573;-1.49972;1;0.86261;-0.0963729;0.354934;1;1.12594;-0.948828;0.0991522;0.00563419;fp_not_a_fp;-1;0.205473;
303790;3380.402782;460;204;24.0364;4.47214;0.0435688;501;459.641;204.755;0;155;1;1;-0.15142;-0.833844;-1.48136;-0.168347;-0.836102;-1.4932;1;0.892056;-0.0194969;0.462066;1;2.03727;1.86404;2.31802;0.00881857;fp_not_a_fp;-1;0.205446;
303791;3380.413909;460;204;24.1152;4.47214;0.0198352;385;457.552;204.702;0;156;1;1;-0.150925;-0.831117;-1.47651;-0.159959;-0.835372;-1.48799;1;0.796117;0.0460159;0.502929;1;-0.100838;2.02574;1.58889;0.00878973;fp_not_a_fp;-1;0.205455;
303792;3380.425037;456;206;24.118;4.47214;0.0842352;282;457.865;204.589;0;157;1;1;-0.135125;-0.837445;-1.47203;-0.1496;-0.8362;-1.48158;1;0.83602;-0.00531124;0.507091;1;1.05773;0.229581;2.31742;0.00878869;fp_not_a_fp;-1;0.20545;
303793;3380.436164;456;206;24.2619;4.47214;0.0198352;518;453.716;206.759;0;158;1;1;-0.134324;-0.832481;-1.4633;-0.142949;-0.833722;-1.4733;1;0.755059;0.0310667;0.54417;1;-2.4165;2.86339;4.2517;0.00873659;fp_not_a_fp;-1;0.205434;
303794;3380.447291;452;206;24.2459;2.82843;0.0986289;324;454.003;206.702;0;159;1;1;-0.118775;-0.83293;-1.46434;-0.134787;-0.833493;-1.46904;1;0.803536;0.0369848;0.478227;1;-1.98893;1.26911;0.363094;0.00552915;fp_not_a_fp;-1;0.205456;
303795;3380.458419;450;208;24.4237;4.47214;0.0587954;388;449.831;206.586;0;160;1;1;-0.110088;-0.833261;-1.44938;-0.124578;-0.834029;-1.46226;1;0.820651;0.0309254;0.56139;1;0.551075;-0.338918;1.31335;0.00867871;fp_not_a_fp;-1;0.205456;
303796;3380.469547;450;210;24.4814;2;0.135872;521;447.733;208.761;0;161;1;1;-0.109768;-0.837727;-1.44165;-0.118239;-0.834099;-1.45467;1;0.72671;-0.0267182;0.612778;1;-2.45597;-0.480931;2.37441;0.00387209;fp_not_a_fp;-1;0.205447;
303797;3380.480673;446;210;24.5351;4.47214;0.0858723;231;448.05;210.996;0;162;1;1;-0.0940739;-0.835793;-1.43856;-0.108176;-0.834927;-1.44848;1;0.775107;-0.0249622;0.591285;1;0.450454;-1.25881;1.05842;0.0086393;fp_not_a_fp;-1;0.205436;
303798;3380.491802;444;212;24.6515;2.82843;0.0622643;573;443.842;210.964;0;163;1;1;-0.0858798;-0.838183;-1.42751;-0.0999524;-0.836241;-1.43928;1;0.790162;-0.0484531;0.633566;1;-0.300473;-1.91951;3.48985;0.00543818;fp_not_a_fp;-1;0.205444;
303799;3380.502928;444;212;24.686;4.47214;0.02256;422;441.799;213.125;0;164;1;1;-0.0857597;-0.837011;-1.42552;-0.0938704;-0.837178;-1.43331;1;0.696974;-0.0385479;0.593104;1;-2.77873;-1.56083;0.712411;0.00858649;fp_not_a_fp;-1;0.205485;
303800;3380.514056;442;214;24.8868;4.47214;0.0435779;285;442.1;213.012;0;165;1;1;-0.0773908;-0.836532;-1.4098;-0.0857761;-0.83688;-1.42535;1;0.665495;-0.0240423;0.680906;1;-1.37537;0.0601741;1.53054;0.0085172;fp_not_a_fp;-1;0.205456;
303801;3380.525184;442;214;25.035;4.47214;0.0172064;683;440.16;215.106;0;166;1;1;-0.076933;-0.831583;-1.40146;-0.0814908;-0.835827;-1.41607;1;0.57285;0.041748;0.725946;1;-4.54413;1.49876;3.02532;0.0084668;fp_not_a_fp;-1;0.205426;
303802;3380.536311;438;214;25.1647;2.82843;0.110845;199;440.484;215.004;0;167;1;1;-0.0614689;-0.827198;-1.3943;-0.0753881;-0.833081;-1.40777;1;0.638759;0.113878;0.734065;1;-3.40156;3.64707;2.25786;0.00532726;fp_not_a_fp;-1;0.205453;
303803;3380.547438;436;216;25.3777;2.82843;0.0667158;668;436.247;214.802;0;168;1;1;-0.053425;-0.826412;-1.37847;-0.0673044;-0.830431;-1.39601;1;0.67673;0.138167;0.825241;1;-0.454702;3.97023;5.21545;0.00528257;fp_not_a_fp;-1;0.20544;
303804;3380.558566;436;216;25.3454;2.82843;0.0288864;484;434.07;216.919;0;169;1;1;-0.0534929;-0.827464;-1.38022;-0.0613299;-0.828164;-1.38861;1;0.605325;0.118526;0.737554;1;-1.35162;3.20308;1.2728;0.0052893;fp_not_a_fp;-1;0.205453;
303805;3380.569693;434;218;25.4859;2;0.102763;292;434.291;216.808;0;170;1;1;-0.0457017;-0.829029;-1.3685;-0.0535221;-0.827526;-1.38037;1;0.587919;0.0773496;0.741652;1;0.338669;0.799886;0.35299;0.00371947;fp_not_a_fp;-1;0.205503;
303806;3380.580820;432;218;25.8133;4.47214;0.0638674;839;432.294;218.961;0;171;1;1;-0.0377777;-0.818468;-1.35117;-0.0475993;-0.825343;-1.36959;1;0.59657;0.171534;0.847337;1;-0.94776;1.29542;2.54512;0.0082115;fp_not_a_fp;-1;0.205433;
303807;3380.591948;432;218;25.7506;2.82843;0.0288864;361;430.267;218.907;0;172;1;1;-0.0378696;-0.82046;-1.35446;-0.0437105;-0.823855;-1.36359;1;0.522999;0.165744;0.745241;1;-3.4537;0.619659;-1.79703;0.00520606;fp_not_a_fp;-1;0.205452;
303808;3380.603075;430;218;25.9861;4.47214;0.0576989;650;430.529;218.729;0;173;1;1;-0.030231;-0.81298;-1.34222;-0.037895;-0.820234;-1.35409;1;0.513448;0.227951;0.748288;1;-2.06412;2.45857;0.241407;0.00815692;fp_not_a_fp;-1;0.205474;
303809;3380.614202;430;218;25.9524;4.47214;0.0281326;549;428.512;218.569;0;174;1;1;-0.0302702;-0.814033;-1.34396;-0.0340371;-0.816485;-1.34795;1;0.443561;0.212512;0.634174;1;-3.24321;3.03684;-2.4145;0.00816748;fp_not_a_fp;-1;0.205435;
303810;3380.625330;428;220;26.1935;4.47214;0.0735146;312;428.741;218.393;0;175;1;1;-0.0226978;-0.812503;-1.32759;-0.0302672;-0.814994;-1.34206;1;0.444899;0.196561;0.693796;1;-3.40752;0.562363;-3.44956;0.0080923;fp_not_a_fp;-1;0.205441;
303811;3380.636458;428;220;26.3727;4.47214;0.0281326;915;426.72;220.571;0;176;1;1;-0.0225436;-0.806984;-1.31857;-0.0264357;-0.811625;-1.33309;1;0.390472;0.228167;0.733321;1;-2.97753;1.40253;-0.267898;0.00803733;fp_not_a_fp;-1;0.205421;
303812;3380.647585;426;220;26.5417;2.82843;0.05482;320;426.876;220.571;0;177;1;1;-0.0152572;-0.801799;-1.3102;-0.0226922;-0.80883;-1.32508;1;0.4017;0.271563;0.752025;1;-2.51069;0.97989;0.0838949;0.00505089;fp_not_a_fp;-1;0.205441;
303813;3380.658713;424;220;26.8301;4.47214;0.0525011;755;424.815;220.499;0;178;1;1;-0.00802721;-0.793136;-1.29615;-0.0171315;-0.803605;-1.31313;1;0.437974;0.35415;0.824884;1;-0.125574;3.18215;4.28458;0.00790032;fp_not_a_fp;-1;0.205456;
303814;3380.669840;424;220;26.8797;2.82843;0.0344265;462;422.634;220.409;0;179;1;1;-0.00801238;-0.791671;-1.29376;-0.0134601;-0.798397;-1.30467;1;0.397271;0.359909;0.777236;1;-1.07012;3.66992;1.87458;0.00498737;fp_not_a_fp;-1;0.205442;
303815;3380.680967;424;220;27.0247;2.82843;0.0344265;351;422.776;220.285;0;180;1;1;-0.00796939;-0.787423;-1.28682;-0.00981655;-0.793507;-1.29673;1;0.330271;0.365074;0.737978;1;-1.35265;3.07585;0.104531;0.00496061;fp_not_a_fp;-1;0.205471;
303816;3380.692095;424;220;27.1547;6.32456;0.061886;992;422.987;220.198;0;181;1;1;-0.00793124;-0.783654;-1.28066;-0.00798505;-0.788971;-1.28935;1;0.260893;0.363842;0.698221;1;-3.16352;2.07315;-1.20889;0.0110392;fp_not_a_fp;-1;0.205464;
303817;3380.703222;424;220;27.3105;2.82843;0.0428901;415;423.235;220.137;0;182;1;1;-0.007886;-0.779184;-1.27335;-0.00794975;-0.785483;-1.28365;1;0.199462;0.368164;0.676469;1;-5.35864;0.314883;-3.33443;0.00490871;fp_not_a_fp;-1;0.205453;
303818;3380.714349;424;220;27.545;4.47214;0.0139353;1010;423.467;220.094;0;183;1;1;-0.00781886;-0.77255;-1.26251;-0.00790137;-0.780703;-1.27583;1;0.149403;0.399036;0.705468;1;-5.56887;0.879093;-1.61235;0.00769526;fp_not_a_fp;-1;0.205427;
303819;3380.725477;424;220;27.6615;2.82843;0.0428901;449;423.629;220.065;0;184;1;1;-0.00778594;-0.769297;-1.25719;-0.00785551;-0.776171;-1.26843;1;0.110037;0.398186;0.688408;1;-4.9479;0.743952;-1.11358;0.00484642;fp_not_a_fp;-1;0.205436;
303820;3380.736604;426;220;27.9379;2.82843;0.0871006;690;423.745;220.044;0;185;1;1;-0.0144948;-0.761729;-1.24473;-0.00949639;-0.77069;-1.25945;1;0.00282631;0.4338;0.73648;1;-5.79813;1.57183;0.859669;0.00479847;fp_not_a_fp;-1;0.205452;
303821;3380.747731;426;220;28.0511;6.32456;0.0663635;1068;426.125;220.03;0;186;1;1;-0.0144363;-0.758655;-1.2397;-0.011134;-0.765558;-1.25103;1;-0.04117;0.428422;0.719984;1;-5.40644;1.35389;0.977765;0.0106864;fp_not_a_fp;-1;0.20544;
303822;3380.758860;428;220;28.2028;2.82843;0.0777171;521;426.264;220.021;0;187;1;1;-0.0210808;-0.754619;-1.23301;-0.0144494;-0.761075;-1.24366;1;-0.13026;0.417817;0.698071;1;-6.28317;0.422014;-0.166081;0.00475341;fp_not_a_fp;-1;0.205433;
303823;3380.769987;430;220;28.3987;4.47214;0.052171;967;428.589;220.014;0;188;1;1;-0.0276111;-0.749456;-1.22447;-0.0194057;-0.756115;-1.23548;1;-0.225322;0.419324;0.69781;1;-7.5346;0.474972;0.211314;0.00746394;fp_not_a_fp;-1;0.205417;
303824;3380.781114;430;220;28.4406;4.47214;0.0184829;662;430.948;220.009;0;189;1;1;-0.0275704;-0.748352;-1.22267;-0.0226746;-0.75277;-1.22996;1;-0.235401;0.379118;0.629376;1;-5.35222;-1.22853;-2.4063;0.00745295;fp_not_a_fp;-1;0.205442;
303825;3380.792241;432;220;28.5076;2.82843;0.0682927;472;430.935;220.006;0;190;1;1;-0.0341558;-0.746635;-1.21977;-0.0276045;-0.749765;-1.22498;1;-0.285029;0.333827;0.554101;1;-5.47875;-2.12527;-3.72692;0.00470258;fp_not_a_fp;-1;0.20542;
303826;3380.803369;434;222;28.7234;6.32456;0.107851;966;433.109;220.004;0;191;1;1;-0.0404484;-0.746547;-1.20689;-0.0324464;-0.747748;-1.21845;1;-0.34131;0.273535;0.599862;1;-4.7417;-3.24155;-2.20657;0.0104363;fp_not_a_fp;-1;0.205434;
303827;3380.814496;434;222;28.9895;5.65685;0.0422647;977;435.307;222.301;0;192;1;1;-0.0400772;-0.739696;-1.19582;-0.0355629;-0.745308;-1.21129;1;-0.316779;0.292269;0.669232;1;-2.05471;-2.85449;-0.642103;0.00924882;fp_not_a_fp;-1;0.205429;
303828;3380.825623;436;222;29.0834;2.82843;0.071521;387;435.193;222.384;0;193;1;1;-0.0464663;-0.737349;-1.19193;-0.0402869;-0.742557;-1.2036;1;-0.339475;0.289638;0.657134;1;-2.3382;-2.01029;0.62361;0.00460948;fp_not_a_fp;-1;0.205442;
303829;3380.836751;440;224;29.1663;4;0.0774271;767;437.291;222.37;0;194;1;1;-0.0592842;-0.740735;-1.18486;-0.046569;-0.741082;-1.19487;1;-0.452473;0.212794;0.649283;1;-3.76172;-2.71907;2.13848;0.00650026;fp_not_a_fp;-1;0.205456;
303830;3380.847878;438;224;29.2154;6.32456;0.0943197;1120;441.728;224.615;0;195;1;1;-0.0526953;-0.739447;-1.1829;-0.0496307;-0.739307;-1.18888;1;-0.36593;0.168653;0.585743;1;-0.552931;-2.35626;-0.317158;0.0102605;fp_not_a_fp;-1;0.205464;
303831;3380.859005;440;226;29.3475;4.47214;0.0375683;507;439.348;224.601;0;196;1;1;-0.0588681;-0.741524;-1.17395;-0.0543285;-0.739764;-1.18341;1;-0.35425;0.10509;0.587393;1;-0.841663;-4.20532;-1.8387;0.00722264;fp_not_a_fp;-1;0.20545;
303832;3380.870134;442;228;29.4983;4.47214;0.0322162;972;441.323;226.816;0;197;1;1;-0.0649443;-0.743111;-1.16434;-0.058948;-0.741205;-1.17651;1;-0.373883;0.0472283;0.623312;1;-0.772799;-5.44608;-0.759954;0.00718571;fp_not_a_fp;-1;0.205451;
303833;3380.881261;442;228;29.5001;6.32456;0.0398595;1102;443.407;229.096;0;198;1;1;-0.0649403;-0.743065;-1.16426;-0.060362;-0.741787;-1.17136;1;-0.334262;0.0178244;0.559485;1;2.65594;-4.38037;-2.0176;0.0101615;fp_not_a_fp;-1;0.205445;
303834;3380.892388;444;230;29.657;2.82843;0.0915622;479;443.191;229.034;0;199;1;1;-0.0709399;-0.744484;-1.15451;-0.0649231;-0.743046;-1.16426;1;-0.344026;-0.0128629;0.573489;1;0.492151;-4.07812;-0.275376;0.00452033;fp_not_a_fp;-1;0.205439;
303835;3380.903516;444;230;29.7195;7.2111;0.0551127;1318;445.282;231.176;0;200;1;1;-0.0707905;-0.742916;-1.15208;-0.0679037;-0.743394;-1.1588;1;-0.302469;-0.00594088;0.533983;1;1.16335;-2.49448;-1.19997;0.0115003;fp_not_a_fp;-1;0.205435;
303836;3380.914643;446;232;29.8745;4.47214;0.0431181;688;445.12;231.049;0;201;1;1;-0.0767202;-0.744373;-1.14254;-0.0708477;-0.743709;-1.15335;1;-0.314686;-0.0190148;0.558906;1;1.32994;-1.48833;-1.44697;0.00709522;fp_not_a_fp;-1;0.205456;
303837;3380.925770;446;234;30.0602;5.65685;0.0510392;955;447.176;233.128;0;202;1;1;-0.0761974;-0.74501;-1.13197;-0.073662;-0.744196;-1.14528;1;-0.273604;-0.0292993;0.619129;1;1.36279;-1.05878;1.34014;0.00891939;fp_not_a_fp;-1;0.205453;
303838;3380.936898;446;234;30.1479;5.65685;0.018967;778;447.051;235.315;0;203;1;1;-0.0759758;-0.742843;-1.12868;-0.074921;-0.743786;-1.13882;1;-0.219187;-0.00497779;0.602779;1;2.80467;0.177098;0.658188;0.00889344;fp_not_a_fp;-1;0.20544;
303839;3380.948025;444;234;30.3243;4.47214;0.060484;927;446.832;235.189;0;204;1;1;-0.0692819;-0.738481;-1.12214;-0.0745438;-0.742677;-1.13133;1;-0.0920073;0.0557196;0.594116;1;4.72851;1.38533;1.35107;0.00698997;fp_not_a_fp;-1;0.205405;
303840;3380.959152;444;234;30.4183;2.82843;0.0736096;973;444.341;234.989;0;205;1;1;-0.0690679;-0.736199;-1.11867;-0.0726307;-0.740633;-1.12536;1;-0.0252597;0.0998437;0.554487;1;6.50264;2.67042;-0.0992128;0.00440719;fp_not_a_fp;-1;0.205431;
303841;3380.970281;442;234;30.4342;6.32456;0.0781469;1130;444.064;234.747;0;206;1;1;-0.0628025;-0.735774;-1.11811;-0.069282;-0.738325;-1.1219;1;0.0773605;0.110217;0.473785;1;7.88501;3.13454;-3.26533;0.00984961;fp_not_a_fp;-1;0.205451;
303842;3380.981408;442;234;30.5164;4.47214;0.0145465;938;441.646;234.518;0;207;1;1;-0.0626334;-0.733794;-1.1151;-0.0659464;-0.736062;-1.11851;1;0.11184;0.12315;0.414505;1;7.43721;2.87872;-4.22992;0.00694598;fp_not_a_fp;-1;0.205439;
303843;3380.992535;440;234;30.5616;5.65685;0.0490216;1069;441.521;234.358;0;208;1;1;-0.0563375;-0.732668;-1.11348;-0.0627103;-0.734609;-1.11634;1;0.183996;0.12569;0.355741;1;6.20094;1.57203;-5.35555;0.00877306;fp_not_a_fp;-1;0.205413;
303844;3381.003663;438;232;30.5988;4.47214;0.0684365;847;439.27;234.246;0;209;1;1;-0.0501211;-0.726592;-1.1156;-0.0579736;-0.732207;-1.11557;1;0.261599;0.18035;0.261732;1;6.44468;1.80865;-6.57716;0.00692726;fp_not_a_fp;-1;0.20547;
303845;3381.014790;436;230;30.6356;5.65685;0.0586606;1250;436.969;231.876;0;210;1;1;-0.0439205;-0.720543;-1.11774;-0.0532531;-0.728399;-1.11548;1;0.33138;0.249278;0.164992;1;5.7071;3.12427;-6.9377;0.00875187;fp_not_a_fp;-1;0.205442;
303846;3381.025917;432;230;30.662;4.47214;0.0728474;842;434.719;229.45;0;211;1;1;-0.0315167;-0.719842;-1.11683;-0.0454739;-0.724911;-1.11591;1;0.460135;0.254004;0.114407;1;7.8252;2.93986;-6.74231;0.00691298;fp_not_a_fp;-1;0.205449;
303847;3381.037045;434;228;30.7139;5.65685;0.0781978;1095;430.2;229.346;0;212;1;1;-0.0376837;-0.71354;-1.11836;-0.0408105;-0.720129;-1.11713;1;0.383968;0.295791;0.0614214;1;4.49289;3.82158;-6.61236;0.00872954;fp_not_a_fp;-1;0.205414;
303848;3381.048172;432;228;30.6775;4.47214;0.0357783;979;432.539;227.095;0;213;1;1;-0.0315486;-0.714348;-1.11971;-0.0361674;-0.717068;-1.11816;1;0.373844;0.266072;0.016158;1;2.52202;1.92589;-5.51738;0.0069095;fp_not_a_fp;-1;0.205432;
303849;3381.059299;428;228;30.6555;4.47214;0.07026;820;430.609;227.142;0;214;1;1;-0.0192027;-0.714781;-1.12057;-0.0299879;-0.715628;-1.11887;1;0.463496;0.21489;-0.014427;1;2.96845;-0.772703;-4.03099;0.00691445;fp_not_a_fp;-1;0.205431;
303850;3381.070428;428;226;30.6837;5.65685;0.0630521;1242;426.273;227.304;0;215;1;1;-0.0192328;-0.708994;-1.12298;-0.026917;-0.712916;-1.1204;1;0.441081;0.232654;-0.0528997;1;-0.427903;-0.479796;-3.7588;0.00873814;fp_not_a_fp;-1;0.205466;
303851;3381.081554;424;224;30.711;6.32456;0.0838954;797;426.418;225.17;0;216;1;1;-0.00691729;-0.70316;-1.12548;-0.0192253;-0.710321;-1.12218;1;0.516737;0.2772;-0.0906741;1;2.98307;-0.417696;-3.41717;0.00976085;fp_not_a_fp;-1;0.205435;
303852;3381.092682;422;224;30.6833;2.82843;0.0944479;866;422.072;222.965;0;217;1;1;-0.000744839;-0.703755;-1.12652;-0.0115244;-0.707673;-1.12389;1;0.552846;0.25343;-0.106672;1;4.02185;-0.284015;-2.75963;0.00436913;fp_not_a_fp;-1;0.205471;
303853;3381.103810;422;222;30.6299;4.47214;0.0579952;1114;419.923;223.014;0;218;1;1;-0.000794031;-0.699841;-1.13193;-0.00692224;-0.703938;-1.12673;1;0.496689;0.256142;-0.161698;1;0.745963;0.926836;-3.30869;0.00692023;fp_not_a_fp;-1;0.205436;
303854;3381.114937;418;222;30.5529;4.47214;0.0640874;907;420.193;220.875;0;219;1;1;0.0116141;-0.701527;-1.13484;0.000789493;-0.702071;-1.12969;1;0.552362;0.205272;-0.197156;1;2.50035;-0.61517;-3.24103;0.00693768;fp_not_a_fp;-1;0.205435;
303855;3381.126064;416;220;30.5232;2.82843;0.0876018;1008;415.967;220.995;0;220;1;1;0.0177884;-0.697013;-1.13944;0.00696593;-0.700534;-1.13318;1;0.575692;0.209808;-0.239316;1;1.32466;-1.51411;-3.33952;0.00439205;fp_not_a_fp;-1;0.205465;
303856;3381.137192;414;220;30.5166;4.47214;0.0269067;841;413.912;218.92;0;221;1;1;0.0240047;-0.697123;-1.13971;0.0131533;-0.698876;-1.13648;1;0.583155;0.183659;-0.229332;1;0.681038;-1.56754;-2.75579;0.00694593;fp_not_a_fp;-1;0.205437;
303857;3381.148319;412;218;30.4962;4.47214;0.0251584;900;411.902;219.026;0;222;1;1;0.0301892;-0.692387;-1.14396;0.0208991;-0.697013;-1.13949;1;0.582751;0.203715;-0.244702;1;1.93356;-1.17786;-1.86488;0.00695057;fp_not_a_fp;-1;0.205416;
303858;3381.159446;410;216;30.4982;5.65685;0.0507133;1024;409.88;216.941;0;223;1;1;0.0363554;-0.687142;-1.14738;0.0270845;-0.693416;-1.14262;1;0.578937;0.246149;-0.259024;1;0.59705;0.918476;-1.39001;0.0087913;fp_not_a_fp;-1;0.205436;
303859;3381.170574;406;216;30.4475;6.32456;0.0896277;903;407.918;214.755;0;224;1;1;0.048869;-0.688206;-1.14934;0.0348546;-0.691215;-1.1451;1;0.646951;0.22009;-0.254421;1;1.60089;0.231104;-0.339383;0.00984532;fp_not_a_fp;-1;0.20542;
303860;3381.181701;404;214;30.4539;4.47214;0.0274394;892;403.664;214.87;0;225;1;1;0.0550357;-0.682851;-1.15259;0.0426123;-0.687647;-1.14832;1;0.663228;0.242627;-0.257353;1;1.79892;1.32492;-0.629556;0.00696022;fp_not_a_fp;-1;0.205487;
303861;3381.192828;402;214;30.4567;4.47214;0.0326277;837;401.6;212.775;0;226;1;1;0.0612553;-0.682749;-1.15252;0.0503789;-0.685237;-1.15046;1;0.656656;0.222167;-0.22484;1;1.66036;0.414609;0.446252;0.00695959;fp_not_a_fp;-1;0.205406;
303862;3381.203957;400;214;30.463;4.47214;0.025679;860;399.625;212.923;0;227;1;1;0.0674661;-0.682568;-1.15231;0.0581566;-0.684094;-1.15169;1;0.641371;0.187443;-0.180314;1;1.40266;-1.3189;1.76832;0.00695816;fp_not_a_fp;-1;0.205449;
303863;3381.215084;398;212;30.4644;4.47214;0.0300318;986;397.684;213.153;0;228;1;1;0.0736378;-0.677329;-1.15575;0.0643488;-0.681374;-1.15329;1;0.623992;0.209247;-0.178343;1;-0.515795;-0.243557;1.7092;0.00695782;fp_not_a_fp;-1;0.205438;
303864;3381.226211;396;212;30.4588;4.47214;0.0247648;669;395.78;211.07;0;229;1;1;0.0798757;-0.677415;-1.15599;0.0705588;-0.680015;-1.15414;1;0.608726;0.190583;-0.157553;1;-1.2245;-1.16926;2.24218;0.00695911;fp_not_a_fp;-1;0.20546;
303865;3381.237338;392;212;30.4363;4.47214;0.048086;767;393.849;211.186;0;230;1;1;0.0923924;-0.677835;-1.1569;0.078343;-0.678787;-1.15523;1;0.668251;0.153743;-0.139269;1;0.260532;-1.53725;1.92249;0.00696425;fp_not_a_fp;-1;0.20544;
303866;3381.248466;390;210;30.4617;4.47214;0.0387352;1059;389.613;211.338;0;231;1;1;0.0984908;-0.672062;-1.15943;0.0860992;-0.67616;-1.15701;1;0.677516;0.185075;-0.142958;1;0.812076;-0.0532498;0.839312;0.00695845;fp_not_a_fp;-1;0.205464;
303867;3381.259593;388;210;30.3954;4.47214;0.0282166;750;387.562;209.199;0;232;1;1;0.104943;-0.673489;-1.16198;0.0939255;-0.6752;-1.15857;1;0.66889;0.158061;-0.155563;1;1.00872;-1.15008;0.511815;0.00697364;fp_not_a_fp;-1;0.205424;
303868;3381.270720;384;210;30.4197;2.82843;0.102567;748;385.604;209.277;0;233;1;1;0.117323;-0.67287;-1.16111;0.103287;-0.674064;-1.15985;1;0.721923;0.13384;-0.130877;1;2.54324;-1.27492;0.599349;0.00440699;fp_not_a_fp;-1;0.205442;
303869;3381.281848;382;210;30.4307;5.65685;0.0479909;1056;381.383;209.4;0;234;1;1;0.123511;-0.672586;-1.16071;0.111067;-0.672752;-1.16081;1;0.72268;0.110004;-0.0994807;1;1.22286;-0.982728;0.893872;0.00881078;fp_not_a_fp;-1;0.205422;
303870;3381.292975;380;210;30.2553;4.47214;0.0177124;741;379.401;209.527;0;235;1;1;0.130493;-0.676446;-1.16747;0.119068;-0.673848;-1.16282;1;0.710854;0.0418725;-0.151286;1;0.749012;-3.21738;-0.187193;0.00700593;fp_not_a_fp;-1;0.205474;
303871;3381.304103;378;210;30.2669;5.65685;0.0435291;811;377.503;209.674;0;236;1;1;0.136707;-0.676146;-1.16705;0.127009;-0.674512;-1.16409;1;0.686523;0.0118169;-0.148566;1;0.396152;-3.28572;0.157137;0.00885847;fp_not_a_fp;-1;0.205465;
303872;3381.315231;376;208;30.2678;5.65685;0.0664295;932;375.603;209.775;0;237;1;1;0.142918;-0.670886;-1.17053;0.133407;-0.674016;-1.16644;1;0.660091;0.0581855;-0.168421;1;-1.38916;-1.69983;-0.843565;0.00885822;fp_not_a_fp;-1;0.205442;
303873;3381.326358;370;210;30.2755;4.47214;0.10116;809;373.728;207.561;0;238;1;1;0.161716;-0.675793;-1.16683;0.142958;-0.674818;-1.16797;1;0.780455;0.0136722;-0.112644;1;1.29816;-2.16446;-0.29571;0.00700124;fp_not_a_fp;-1;0.205429;
303874;3381.337485;370;210;30.2529;5.65685;0.0240714;735;367.246;209.813;0;239;1;1;0.161837;-0.676299;-1.1677;0.150794;-0.674781;-1.16803;1;0.732037;-0.0122684;-0.0852397;1;0.476016;-1.21653;1.48398;0.00886259;fp_not_a_fp;-1;0.205461;
303875;3381.348613;368;210;30.1389;5.65685;0.0333513;771;367.428;209.941;0;240;1;1;0.168739;-0.678817;-1.17214;0.158802;-0.675449;-1.1693;1;0.697773;-0.0502817;-0.11398;1;0.25291;-1.39526;0.777172;0.0088961;fp_not_a_fp;-1;0.205477;
303876;3381.359740;364;210;30.1941;4.47214;0.0455879;840;365.587;210.002;0;241;1;1;0.180988;-0.677494;-1.17005;0.16832;-0.677101;-1.16918;1;0.735019;-0.0444158;-0.087355;1;1.68353;-2.30516;1.82143;0.00702011;fp_not_a_fp;-1;0.205442;
303877;3381.370867;362;210;30.2509;5.65685;0.0308302;790;361.414;210.058;0;242;1;1;0.186915;-0.676182;-1.16788;0.17462;-0.677198;-1.16944;1;0.724604;-0.0212895;-0.0403476;1;-1.25479;-0.785456;1.62438;0.00886316;fp_not_a_fp;-1;0.205399;
303878;3381.381995;358;210;30.2817;4.47214;0.0461997;700;359.476;210.043;0;243;1;1;0.199246;-0.675413;-1.16675;0.183972;-0.676976;-1.16921;1;0.769214;-0.00019661;-0.00275291;1;0.835255;0.271247;1.85325;0.0069998;fp_not_a_fp;-1;0.205462;
303879;3381.393122;356;210;30.3348;5.65685;0.0273824;886;355.25;210.031;0;244;1;1;0.205147;-0.674191;-1.16473;0.193074;-0.67582;-1.16735;1;0.757179;0.022554;0.0362299;1;1.33462;1.6364;3.37477;0.00883863;fp_not_a_fp;-1;0.205433;
303880;3381.404250;354;210;30.3347;4.47214;0.034657;750;353.246;210.022;0;245;1;1;0.211397;-0.674153;-1.16476;0.200677;-0.674985;-1.16603;1;0.727272;0.0295166;0.0473719;1;-0.174114;1.66104;3.02691;0.00698757;fp_not_a_fp;-1;0.205434;
303881;3381.415378;352;210;30.2236;4.47214;0.0321229;895;351.374;210.015;0;246;1;1;0.218448;-0.676592;-1.16908;0.20856;-0.675087;-1.16633;1;0.702961;0.000668357;-0.00348321;1;-0.486297;0.493349;0.828269;0.00701328;fp_not_a_fp;-1;0.205425;
303882;3381.426505;348;212;30.264;2.82843;0.125637;744;349.518;210.011;0;247;1;1;0.230732;-0.680808;-1.16407;0.216431;-0.676436;-1.16566;1;0.744074;-0.0596638;0.0332713;1;-0.564786;-1.33606;0.809465;0.00442965;fp_not_a_fp;-1;0.205457;
303883;3381.437632;346;212;30.2659;2.82843;0.0796138;713;345.378;212.294;0;248;1;1;0.236982;-0.680726;-1.16403;0.22439;-0.678069;-1.16549;1;0.737799;-0.0760487;0.0447225;1;-0.435344;-2.21534;0.190907;0.00442938;fp_not_a_fp;-1;0.20542;
303884;3381.448760;344;214;30.2669;5.65685;0.0642018;1108;343.401;212.373;0;249;1;1;0.243286;-0.685863;-1.16053;0.232362;-0.680997;-1.16443;1;0.713358;-0.132005;0.0839042;1;-0.312519;-3.62886;0.820809;0.00885846;fp_not_a_fp;-1;0.205438;
303885;3381.459887;342;214;30.1748;4.47214;0.0217254;625;341.488;214.645;0;250;1;1;0.250312;-0.687917;-1.1641;0.240328;-0.683828;-1.16318;1;0.692804;-0.161839;0.0484572;1;-0.228134;-3.65105;1.16692;0.00702461;fp_not_a_fp;-1;0.205453;
303886;3381.471014;340;216;30.225;4.47214;0.0311289;618;339.597;214.673;0;251;1;1;0.256217;-0.691942;-1.1587;0.2467;-0.686612;-1.16184;1;0.663632;-0.199659;0.0895649;1;-1.80729;-3.14525;1.26472;0.00701294;fp_not_a_fp;-1;0.205469;
303887;3381.482142;338;216;30.2077;5.65685;0.0482093;1035;337.719;216.854;0;252;1;1;0.262639;-0.692297;-1.15938;0.253114;-0.689505;-1.16068;1;0.640541;-0.193891;0.087233;1;-2.18506;-2.64753;0.95505;0.00887582;fp_not_a_fp;-1;0.205437;
303888;3381.493269;336;218;30.1956;5.65685;0.0542479;1100;335.809;216.82;0;253;1;1;0.269072;-0.697747;-1.15638;0.25956;-0.692476;-1.15964;1;0.623029;-0.229247;0.109622;1;-2.02942;-2.18479;0.577838;0.00887938;fp_not_a_fp;-1;0.205436;
303889;3381.504396;332;220;30.2323;4.47214;0.0501534;882;333.872;218.955;0;254;1;1;0.281335;-0.702026;-1.15153;0.267316;-0.696003;-1.1565;1;0.676908;-0.263669;0.160431;1;-0.357054;-2.28791;2.51585;0.00701124;fp_not_a_fp;-1;0.205422;
303890;3381.515524;332;224;30.1865;5.65685;0.109327;763;329.624;221.177;0;255;1;1;0.28186;-0.713521;-1.14628;0.273727;-0.701397;-1.15339;1;0.618848;-0.376026;0.221151;1;-1.00597;-3.96234;2.95633;0.00888209;fp_not_a_fp;-1;0.205419;
303891;3381.526652;328;224;30.1803;4.47214;0.0576605;923;329.862;225.657;0;256;1;1;0.294481;-0.713587;-1.14657;0.281687;-0.70672;-1.15019;1;0.660594;-0.375249;0.214721;1;0.45069;-4.07445;2.86425;0.00702332;fp_not_a_fp;-1;0.205449;
303892;3381.537779;328;226;30.0559;7.2111;0.0986354;1333;325.691;225.645;0;257;1;1;0.295749;-0.721778;-1.1478;0.288356;-0.712728;-1.14805;1;0.60812;-0.420961;0.170566;1;-0.334824;-4.30715;1.36918;0.0113716;fp_not_a_fp;-1;0.205443;
303893;3381.548907;326;230;30.0463;7.2111;0.092889;1380;325.956;227.676;0;258;1;1;0.302251;-0.732445;-1.14116;0.293585;-0.720333;-1.14545;1;0.583392;-0.508429;0.206667;1;-2.10093;-5.49875;1.03859;0.0113753;fp_not_a_fp;-1;0.205419;
303894;3381.560034;324;232;30.0992;2.82843;0.0822255;692;324.101;232.015;0;259;1;1;0.308067;-0.736348;-1.13567;0.300137;-0.726039;-1.1428;1;0.565432;-0.524458;0.258136;1;-1.20008;-3.33474;0.830883;0.00445393;fp_not_a_fp;-1;0.205414;
303895;3381.571161;322;236;30.1032;4.47214;0.0612358;679;322.114;234.125;0;260;1;1;0.314421;-0.746667;-1.12853;0.305122;-0.734309;-1.13829;1;0.558727;-0.582475;0.328382;1;-2.28867;-4.65572;2.55362;0.00704132;fp_not_a_fp;-1;0.205414;
303896;3381.582289;322;238;30.0712;7.2111;0.0823243;1507;320.138;238.471;0;261;1;1;0.314804;-0.752694;-1.12621;0.309886;-0.742039;-1.13289;1;0.489077;-0.601245;0.342061;1;-2.67442;-4.05033;3.85297;0.0113658;fp_not_a_fp;-1;0.205471;
303897;3381.593416;320;242;29.9758;7.2111;0.0655726;1091;320.386;240.551;0;262;1;1;0.322228;-0.765552;-1.12278;0.31488;-0.750315;-1.1283;1;0.48302;-0.679704;0.343485;1;-2.25496;-3.84813;3.07396;0.011402;fp_not_a_fp;-1;0.205409;
303898;3381.604543;320;244;29.9348;5.65685;0.0368055;912;318.445;244.759;0;263;1;1;0.322719;-0.771859;-1.12078;0.318543;-0.759193;-1.12457;1;0.424529;-0.69773;0.323094;1;-3.16564;-3.89299;1.45944;0.00895675;fp_not_a_fp;-1;0.205401;
303899;3381.615671;320;250;29.8756;5.65685;0.0758388;1040;318.699;246.745;0;264;1;1;0.323506;-0.789195;-1.11239;0.320814;-0.769825;-1.12054;1;0.355226;-0.814888;0.369612;1;-4.57189;-5.2215;0.926204;0.00897449;fp_not_a_fp;-1;0.205405;
303900;3381.626798;318;254;29.9264;5.65685;0.0302097;1232;319.003;253.174;0;265;1;1;0.329389;-0.798333;-1.10347;0.324461;-0.781235;-1.11486;1;0.348719;-0.864115;0.443992;1;-3.15338;-5.90585;2.29008;0.00895926;fp_not_a_fp;-1;0.205461;
303901;3381.637926;318;256;29.8612;6.32456;0.0508144;1317;316.969;257.495;0;266;1;1;0.330158;-0.805348;-1.10234;0.326443;-0.791184;-1.10975;1;0.310362;-0.854656;0.431029;1;-3.87908;-3.93053;1.96682;0.0100386;fp_not_a_fp;-1;0.205428;
303902;3381.649054;318;260;29.812;4.47214;0.0581062;667;317.119;259.396;0;267;1;1;0.330801;-0.817237;-1.09707;0.328463;-0.802528;-1.10382;1;0.262294;-0.878003;0.431096;1;-3.64476;-4.05003;2.42646;0.00711008;fp_not_a_fp;-1;0.205427;
303903;3381.660181;320;266;29.7471;5.65685;0.0840794;1123;317.294;263.458;0;268;1;1;0.325297;-0.834935;-1.08878;0.328911;-0.813963;-1.09792;1;0.145886;-0.978539;0.471171;1;-4.7033;-3.67685;2.28183;0.00901327;fp_not_a_fp;-1;0.20545;
303904;3381.671308;322;268;29.6711;7.2111;0.0960345;1148;319.741;269.796;0;269;1;1;0.319791;-0.842421;-1.08798;0.326512;-0.824985;-1.09405;1;0.0160505;-0.981083;0.436787;1;-7.47415;-2.62798;-0.161855;0.0115191;fp_not_a_fp;-1;0.205445;
303905;3381.682435;324;274;29.7332;5.65685;0.0692889;547;322.273;271.667;0;270;1;1;0.312895;-0.856585;-1.07502;0.322196;-0.837794;-1.08722;1;-0.118704;-1.01936;0.515438;1;-9.64008;-3.70053;1.89654;0.00901748;fp_not_a_fp;-1;0.205436;
303906;3381.693563;326;276;29.6386;4.47214;0.0899015;1091;324.744;277.98;0;271;1;1;0.307547;-0.864671;-1.07486;0.316383;-0.849653;-1.08166;1;-0.220555;-0.997842;0.484047;1;-10.8483;-2.69259;1.18983;0.00715168;fp_not_a_fp;-1;0.205441;
303907;3381.704690;326;278;29.5856;4.47214;0.0773965;753;327.126;279.811;0;272;1;1;0.308147;-0.87154;-1.07322;0.312095;-0.858804;-1.07777;1;-0.227629;-0.94042;0.428197;1;-8.39183;0.856393;-0.965415;0.00716451;fp_not_a_fp;-1;0.205416;
303908;3381.715817;330;284;29.5935;4.47214;0.113383;511;327.109;281.444;0;273;1;1;0.295401;-0.887345;-1.06216;0.305997;-0.870035;-1.07132;1;-0.347636;-0.977907;0.477233;1;-8.17109;0.0712864;0.908836;0.00716259;fp_not_a_fp;-1;0.205474;
303909;3381.726945;332;286;29.5808;5.65685;0.0452404;987;331.498;287.679;0;274;1;1;0.289169;-0.89309;-1.05902;0.300066;-0.879161;-1.06731;1;-0.424322;-0.934514;0.472641;1;-6.86615;1.90619;-0.961462;0.00906395;fp_not_a_fp;-1;0.205423;
303910;3381.738072;334;290;29.5207;6.32456;0.0323319;685;333.721;289.498;0;275;1;1;0.283435;-0.905613;-1.05399;0.294038;-0.889397;-1.0621;1;-0.467621;-0.940937;0.468126;1;-5.55088;1.27842;-0.357688;0.0101544;fp_not_a_fp;-1;0.205424;
303911;3381.749199;338;296;29.5071;5.65685;0.0764709;588;335.845;293.509;0;276;1;1;0.270864;-0.922117;-1.04368;0.284717;-0.902041;-1.05471;1;-0.569963;-1.01277;0.524756;1;-7.69134;-1.62554;2.16949;0.00908657;fp_not_a_fp;-1;0.205434;
303912;3381.760327;340;298;29.5411;5.65685;0.0479226;1112;340.231;299.891;0;277;1;1;0.264185;-0.926425;-1.03887;0.276913;-0.911811;-1.04889;1;-0.616123;-0.962655;0.536311;1;-6.03209;0.342517;1.32735;0.00907611;fp_not_a_fp;-1;0.205426;
303913;3381.771454;344;300;29.4979;4.47214;0.0798987;610;342.333;301.751;0;278;1;1;0.251768;-0.933201;-1.03675;0.267563;-0.921839;-1.04332;1;-0.69895;-0.896831;0.49693;1;-6.17021;0.846541;0.545729;0.00718582;fp_not_a_fp;-1;0.205398;
303914;3381.782581;348;304;29.451;4.47214;0.0572093;791;346.612;303.462;0;279;1;1;0.239394;-0.94546;-1.03118;0.256553;-0.931801;-1.03762;1;-0.785871;-0.895762;0.481229;1;-7.15028;1.01488;0.294397;0.00719727;fp_not_a_fp;-1;0.20541;
303915;3381.793709;350;306;29.4849;5.65685;0.0502161;1118;350.931;307.405;0;280;1;1;0.232738;-0.94975;-1.02638;0.247021;-0.938709;-1.03329;1;-0.797846;-0.83024;0.468374;1;-5.11991;4.10073;-1.26674;0.0090934;fp_not_a_fp;-1;0.20548;
303916;3381.804836;354;310;29.4957;4.47214;0.0477391;364;352.918;309.145;0;281;1;1;0.219898;-0.96016;-1.01878;0.235949;-0.947143;-1.02827;1;-0.848216;-0.816592;0.490369;1;-5.21453;3.28156;-1.03218;0.00718634;fp_not_a_fp;-1;0.205479;
303917;3381.815963;358;312;29.4566;4.47214;0.050861;783;357.08;313.176;0;282;1;1;0.207367;-0.966861;-1.01649;0.224849;-0.955558;-1.02321;1;-0.904478;-0.78361;0.463163;1;-4.61773;2.54371;-0.75865;0.00719588;fp_not_a_fp;-1;0.205448;
303918;3381.827091;360;314;29.4048;4.47214;0.053923;1033;361.259;315.035;0;283;1;1;0.201335;-0.973958;-1.01466;0.215335;-0.962682;-1.01908;1;-0.881505;-0.75138;0.413831;1;-2.1487;3.24378;-1.51417;0.00720856;fp_not_a_fp;-1;0.205414;
303919;3381.838218;364;318;29.4503;2.82843;0.105556;360;363.135;316.808;0;284;1;1;0.188249;-0.983225;-1.00586;0.204212;-0.971051;-1.01395;1;-0.909589;-0.748452;0.441534;1;-2.51066;1.83755;-0.602944;0.00455205;fp_not_a_fp;-1;0.205421;
303920;3381.849345;368;320;29.4755;2.82843;0.0932058;770;367.232;320.902;0;285;1;1;0.175274;-0.987807;-1.00136;0.193056;-0.977963;-1.00959;1;-0.953908;-0.704293;0.448258;1;-2.37472;2.52303;-0.946034;0.00454816;fp_not_a_fp;-1;0.20544;
303921;3381.860473;372;322;29.4402;5.65685;0.0519904;608;371.37;322.796;0;286;1;1;0.162655;-0.994424;-0.998919;0.181878;-0.984853;-1.0052;1;-0.99519;-0.672053;0.421841;1;-2.03805;2.50631;-0.928277;0.00910724;fp_not_a_fp;-1;0.20542;
303922;3381.871600;376;324;29.4159;4.47214;0.0188242;317;375.502;324.646;0;287;1;1;0.149949;-1.00068;-0.996095;0.169032;-0.991533;-1.00056;1;-1.03096;-0.644695;0.389492;1;-3.3579;2.39691;-0.54679;0.00720583;fp_not_a_fp;-1;0.205438;
303923;3381.882727;378;326;29.4809;2.82843;0.0927076;794;379.649;326.5;0;288;1;1;0.143238;-1.00385;-0.990289;0.157779;-0.99669;-0.996665;1;-0.991177;-0.587564;0.393;1;-1.83303;3.61469;-1.09042;0.00454733;fp_not_a_fp;-1;0.2054;
303924;3381.893855;382;326;29.4428;4.47214;0.0630792;419;381.477;328.35;0;289;1;1;0.130545;-1.00523;-0.991512;0.146597;-1.00105;-0.994203;1;-0.993799;-0.504819;0.330299;1;-0.896207;4.48152;-2.65011;0.00719924;fp_not_a_fp;-1;0.20545;
303925;3381.904982;386;330;29.3534;5.65685;0.0842706;267;385.464;327.951;0;290;1;1;0.118125;-1.0191;-0.987277;0.135464;-1.00722;-0.991293;1;-1.01049;-0.565227;0.310801;1;-0.343817;2.39998;-2.49469;0.00913415;fp_not_a_fp;-1;0.205423;
303926;3381.916109;390;330;29.4695;4.47214;0.0545691;623;389.516;332.073;0;291;1;1;0.104794;-1.01517;-0.983333;0.124176;-1.01084;-0.988102;1;-1.04133;-0.473026;0.308318;1;-0.232912;3.8569;-1.82368;0.00719273;fp_not_a_fp;-1;0.205465;
303927;3381.927237;394;332;29.4375;6.32456;0.0593991;280;393.617;331.838;0;292;1;1;0.0920771;-1.0217;-0.980756;0.111385;-1.0153;-0.985719;1;-1.06701;-0.449467;0.297498;1;-1.70368;3.10258;-2.14557;0.0101831;fp_not_a_fp;-1;0.205423;
303928;3381.938364;398;336;29.4687;4.47214;0.0516274;170;397.729;333.756;0;293;1;1;0.0792126;-1.03139;-0.972493;0.0985522;-1.02184;-0.980964;1;-1.08899;-0.493434;0.349801;1;-2.13866;0.255797;0.438201;0.00719293;fp_not_a_fp;-1;0.205434;
303929;3381.949491;402;336;29.4828;4.47214;0.0489913;390;401.816;338.074;0;294;1;1;0.066314;-1.03098;-0.97197;0.0855994;-1.02481;-0.977137;1;-1.10703;-0.443927;0.332797;1;-2.169;2.72535;0.494228;0.00718947;fp_not_a_fp;-1;0.205408;
303930;3381.960619;408;340;29.4895;7.2111;0.123895;122;405.877;337.878;0;295;1;1;0.0471121;-1.04154;-0.964502;0.071179;-1.0314;-0.97243;1;-1.19338;-0.487971;0.368916;1;-3.41594;-0.335748;1.36144;0.0115901;fp_not_a_fp;-1;0.205456;
303931;3381.971746;408;340;29.5223;2.82843;0.0694377;170;412.204;342.132;0;296;1;1;0.0470597;-1.04039;-0.963429;0.0599246;-1.03607;-0.968098;1;-1.07744;-0.43065;0.349085;1;-0.234299;0.422896;1.15898;0.00454095;fp_not_a_fp;-1;0.205413;
303932;3381.982873;412;342;29.8016;5.65685;0.0286806;42;411.743;341.935;0;297;1;1;0.0339448;-1.036;-0.950798;0.0486077;-1.03723;-0.962674;1;-1.04244;-0.301727;0.441156;1;1.04602;4.30736;2.05246;0.00899677;fp_not_a_fp;-1;0.205433;
303933;3381.994001;418;344;29.7047;5.65685;0.0722783;95;415.623;343.849;0;298;1;1;0.0149583;-1.0448;-0.950262;0.0357688;-1.04068;-0.957247;1;-1.11264;-0.310873;0.42908;1;-0.125676;2.98955;2.16321;0.00902613;fp_not_a_fp;-1;0.205421;
303934;3382.005128;418;346;29.7214;4.47214;0.0612831;27;421.89;345.853;0;299;1;1;0.0149993;-1.04951;-0.946174;0.0277405;-1.04267;-0.952665;1;-0.999263;-0.328987;0.416228;1;4.36145;3.57207;1.06304;0.00713177;fp_not_a_fp;-1;0.205439;
303935;3382.016255;418;346;29.7214;4.47214;0.0612831;27;421.409;347.846;1;0;1;1;0.00416561;-1.05295;-0.941483;0.017017;-1.04581;-0.947179;1;-0.94914;-0.333885;0.411592;1;2.88287;2.17413;1.40443;-1;fp_not_a_fp;-1;0.205417;
303936;3382.027383;424;352;29.997;7.2111;0.0753831;100;424.682;349.721;0;1;1;1;-0.00395199;-1.05573;-0.926831;0.00754282;-1.05075;-0.941187;1;-0.900407;-0.325254;0.52513;1;3.19127;-0.528617;1.88652;0.011394;fp_not_a_fp;-1;0.205413;
303937;3382.038511;426;352;29.9446;2.82843;0.10396;9;427.13;354.232;0;2;1;1;-0.01029;-1.05762;-0.928427;0.00123074;-1.05395;-0.935728;1;-0.838073;-0.301859;0.486777;1;6.16884;0.202509;1.29614;0.00447692;fp_not_a_fp;-1;0.205434;
303938;3382.049638;430;356;30.4709;0;0.219023;3;428.849;354.051;0;3;1;1;-0.0224595;-1.04976;-0.905401;-0.00813396;-1.05401;-0.925535;1;-0.844916;-0.163622;0.67279;1;3.46772;3.71537;5.76419;0;fp_not_a_fp;-1;0.205451;
303939;3382.060766;430;358;30.41;6.32456;0.0761304;39;433.01;358.309;0;4;1;1;-0.0224562;-1.05704;-0.903737;-0.0147894;-1.05504;-0.916098;1;-0.739937;-0.169028;0.68291;1;4.70002;3.70396;6.09571;0.00985744;fp_not_a_fp;-1;0.20541;
303940;3382.071892;432;360;30.1372;4.47214;0.0203483;15;432.604;360.363;0;5;1;1;-0.0289015;-1.07187;-0.908387;-0.0210268;-1.05907;-0.911487;1;-0.676056;-0.31975;0.546687;1;5.04046;0.123672;0.48435;0.00703338;fp_not_a_fp;-1;0.205423;
303941;3382.083019;434;362;31.5899;2.82843;0.0708909;8;434.333;362.284;0;6;1;1;-0.0335274;-1.0276;-0.863243;-0.0268361;-1.05157;-0.895191;1;-0.616452;0.166228;0.938161;1;4.97914;10.5169;10.1416;0.00424374;fp_not_a_fp;-1;0.205396;
303942;3382.094147;436;366;31.2723;4;0.0428755;8;436.309;364.38;0;7;1;1;-0.0398363;-1.04814;-0.865225;-0.0311803;-1.05117;-0.885147;1;-0.585505;0.110424;0.957562;1;5.82816;6.15736;6.39817;0.00606249;fp_not_a_fp;-1;0.205398;
303943;3382.105274;436;368;31.1972;4.47214;0.0464605;10;438.166;368.58;0;8;1;1;-0.0398852;-1.05571;-0.863921;-0.0355376;-1.05083;-0.875193;1;-0.498595;-0.013495;0.858382;1;5.42239;3.49462;3.94246;0.00679439;fp_not_a_fp;-1;0.205461;
303944;3382.116401;436;368;31.1972;4.47214;0.0464605;10;437.826;370.591;1;0;1;1;-0.0450905;-1.05565;-0.85414;-0.0395848;-1.04678;-0.861632;1;-0.45875;-0.0622296;0.820028;1;4.88235;5.78605;6.14136;-1;fp_not_a_fp;-1;0.205452;
303945;3382.127529;440;374;31.2917;4.47214;0.0737064;16;439.534;373.223;0;1;1;1;-0.0517412;-1.06769;-0.85113;-0.0441383;-1.0568;-0.858603;1;-0.460007;-0.212522;0.734091;1;3.51493;-8.50953;-4.58503;0.00677388;fp_not_a_fp;-1;0.205437;
303946;3382.138657;440;374;31.2917;4.47214;0.0737064;16;441.708;376.752;1;0;1;1;-0.0566354;-1.07058;-0.843256;-0.048338;-1.06241;-0.853111;1;-0.457951;-0.280612;0.69519;1;2.86588;-8.78556;-5.89483;-1;fp_not_a_fp;-1;0.205434;
303947;3382.149784;442;382;31.7258;6.32456;0.070876;38;443.421;379.55;0;1;1;1;-0.0568239;-1.07297;-0.826136;-0.0525727;-1.06672;-0.843665;1;-0.400849;-0.30033;0.7867;1;2.19613;-6.44436;-1.61043;0.00944862;fp_not_a_fp;-1;0.205421;
303948;3382.160911;442;382;31.7258;6.32456;0.070876;38;443.552;385.222;1;0;1;1;-0.0611423;-1.0767;-0.817494;-0.0565857;-1.07199;-0.834503;1;-0.375625;-0.312984;0.823235;1;1.86766;-5.63371;0.0721661;-1;fp_not_a_fp;-1;0.205459;
303949;3382.172039;446;390;32.2506;0;0.220904;2;445.036;388.636;0;1;1;1;-0.0674742;-1.07511;-0.799537;-0.0605189;-1.07384;-0.821605;1;-0.389867;-0.260009;0.939152;1;1.57593;-1.06691;4.60715;0;fp_not_a_fp;-1;0.205413;
303950;3382.183166;446;390;32.448;4.47214;0.0279666;38;447.611;393.75;0;2;1;1;-0.0670636;-1.06857;-0.794673;-0.063126;-1.07334;-0.809459;1;-0.341319;-0.129967;0.92303;1;2.6205;3.38458;5.11887;0.00653248;fp_not_a_fp;-1;0.205448;
303951;3382.194293;446;390;32.448;4.47214;0.0279666;38;447.426;393.359;1;0;1;1;-0.0706943;-1.0698;-0.784101;-0.0665936;-1.07255;-0.798951;1;-0.319339;-0.0738066;0.919821;1;1.83139;5.08939;2.99073;-1;fp_not_a_fp;-1;0.205438;
303952;3382.205421;450;396;32.694;2.82843;0.131744;26;448.806;396.554;0;1;1;1;-0.0780217;-1.07504;-0.778947;-0.0708134;-1.07213;-0.789314;1;-0.35351;-0.101268;0.860243;1;0.496976;4.75677;0.831407;0.00410042;fp_not_a_fp;-1;0.205426;
303953;3382.216548;450;398;32.5;4.47214;0.0506459;15;451.539;399.046;0;2;1;1;-0.0784424;-1.08631;-0.780347;-0.0735555;-1.07493;-0.784516;1;-0.327364;-0.228797;0.709854;1;1.40439;0.701354;-5.1517;0.00652203;fp_not_a_fp;-1;0.205447;
303954;3382.227675;454;402;32.7046;0;0.206943;2;451.349;400.783;0;3;1;1;-0.0894557;-1.08921;-0.768954;-0.0791535;-1.08009;-0.778087;1;-0.401051;-0.285623;0.687759;1;-1.34196;-3.49718;-5.2859;0;fp_not_a_fp;-1;0.205449;
303955;3382.238803;454;402;33.178;4.47214;0.0345184;41;455.698;404.926;0;4;1;1;-0.0881791;-1.07367;-0.75798;-0.0835247;-1.08106;-0.771556;1;-0.365716;-0.0945127;0.716681;1;-1.04199;-0.465611;-4.56405;0.00638875;fp_not_a_fp;-1;0.205421;
303956;3382.249930;458;406;33.1329;0;0.195966;3;455.618;404.584;0;5;1;1;-0.0996544;-1.0847;-0.752585;-0.0889329;-1.08347;-0.764966;1;-0.436012;-0.129998;0.699071;1;-1.85375;-0.645963;-3.62126;0;fp_not_a_fp;-1;0.205443;
303957;3382.261057;462;406;33.5066;4.47214;0.1154;43;459.916;408.641;0;6;1;1;-0.109859;-1.07268;-0.744143;-0.096787;-1.08007;-0.755915;1;-0.526427;0.00975998;0.699403;1;-4.47265;5.35939;-0.23489;0.0063261;fp_not_a_fp;-1;0.205466;
303958;3382.272185;462;406;33.5669;2.82843;0.0135014;15;464.41;408.318;0;7;1;1;-0.109662;-1.07075;-0.742806;-0.101839;-1.07545;-0.749378;1;-0.494385;0.0883586;0.625652;1;-2.0972;8.40195;-1.39536;0.00399379;fp_not_a_fp;-1;0.205452;
303959;3382.283312;466;410;34.0192;4.47214;0.10778;16;464.226;407.813;0;8;1;1;-0.119263;-1.06584;-0.726671;-0.10961;-1.0735;-0.741551;1;-0.528145;0.165845;0.700325;1;-3.64952;5.84949;-0.367392;0.00623078;fp_not_a_fp;-1;0.205422;
303960;3382.294439;468;410;33.9823;4.47214;0.0966401;58;468.492;411.992;0;9;1;1;-0.124972;-1.06704;-0.727436;-0.115939;-1.06908;-0.735263;1;-0.540168;0.163033;0.633087;1;-2.34022;6.58358;-1.48242;0.00623755;fp_not_a_fp;-1;0.205437;
303961;3382.305567;472;410;34.2862;4.47214;0.0845207;19;470.493;411.724;0;10;1;1;-0.134923;-1.05765;-0.72094;-0.122205;-1.06532;-0.729463;1;-0.590299;0.248679;0.599006;1;-1.435;5.36766;-2.25553;0.00618226;fp_not_a_fp;-1;0.205412;
303962;3382.316694;476;414;34.4736;6.32456;0.137003;31;474.725;411.407;0;11;1;1;-0.145103;-1.0611;-0.710844;-0.131065;-1.06291;-0.721472;1;-0.652421;0.212764;0.624255;1;-3.55062;2.79493;-0.0313582;0.00869551;fp_not_a_fp;-1;0.205456;
303963;3382.327821;476;414;34.5218;2.82843;0.0299578;54;479.068;415.696;0;12;1;1;-0.1449;-1.05962;-0.709851;-0.137474;-1.06135;-0.717267;1;-0.592554;0.187766;0.566442;1;-1.44703;0.492361;-3.00799;0.00388332;fp_not_a_fp;-1;0.205435;
303964;3382.338949;480;416;34.4929;5.65685;0.088217;26;478.736;415.521;0;13;1;1;-0.155972;-1.06514;-0.707336;-0.145224;-1.06088;-0.712242;1;-0.619137;0.0901859;0.499133;1;-1.7741;-1.63668;-3.00945;0.00777316;fp_not_a_fp;-1;0.205438;
303965;3382.350076;484;418;35.0113;7.2111;0.0962924;32;482.805;417.548;0;14;1;1;-0.16445;-1.05394;-0.693798;-0.152606;-1.05995;-0.705457;1;-0.648342;0.166808;0.56284;1;-1.30405;-1.83929;-0.812453;0.00976213;fp_not_a_fp;-1;0.205442;
303966;3382.361203;486;420;35.1687;2.82843;0.0709675;51;487.039;419.678;0;15;1;1;-0.169063;-1.05373;-0.687664;-0.158596;-1.05811;-0.699662;1;-0.63059;0.179578;0.587685;1;0.490524;-0.745436;-0.821521;0.00381189;fp_not_a_fp;-1;0.20544;
303967;3382.372331;490;422;35.3825;7.2111;0.077142;76;488.968;421.744;0;16;1;1;-0.178716;-1.05188;-0.680476;-0.16705;-1.05617;-0.692318;1;-0.653467;0.183157;0.605385;1;-1.3685;-0.103391;0.875047;0.00965971;fp_not_a_fp;-1;0.205427;
303968;3382.383458;492;426;35.4074;5.65685;0.064852;39;493.166;423.851;0;17;1;1;-0.183862;-1.06007;-0.674006;-0.174023;-1.0549;-0.683986;1;-0.638559;0.0674349;0.609648;1;-0.436336;-0.511176;2.48298;0.00757239;fp_not_a_fp;-1;0.205419;
303969;3382.394585;496;428;35.8628;2.82843;0.0900706;44;495.061;428.215;0;18;1;1;-0.192059;-1.05106;-0.662455;-0.180925;-1.05418;-0.67615;1;-0.644911;0.114233;0.66606;1;0.0771086;-1.18126;2.31909;0.00373811;fp_not_a_fp;-1;0.205417;
303970;3382.405713;498;430;35.9087;7.2111;0.0702079;43;499.19;430.367;0;19;1;1;-0.197052;-1.05414;-0.658644;-0.187922;-1.05429;-0.668895;1;-0.622514;0.0837528;0.648102;1;0.181469;-2.15293;1.35745;0.00951816;fp_not_a_fp;-1;0.205477;
303971;3382.416840;502;434;36.0342;5.65685;0.0435788;25;501.079;432.379;0;20;1;1;-0.206807;-1.05927;-0.65044;-0.194945;-1.05613;-0.661386;1;-0.645675;0.00163695;0.652057;1;0.175037;-4.0783;1.04867;0.00744067;fp_not_a_fp;-1;0.205448;
303972;3382.427967;504;436;36.2619;4.47214;0.0467311;85;505.173;436.644;0;21;1;1;-0.210696;-1.05699;-0.64342;-0.201654;-1.05537;-0.653739;1;-0.617473;-0.00641515;0.650996;1;0.473706;-1.65919;0.929046;0.00584543;fp_not_a_fp;-1;0.205437;
303973;3382.439095;508;440;36.3342;6.32456;0.0558807;34;507.077;438.653;0;22;1;1;-0.220631;-1.06362;-0.636278;-0.208797;-1.05851;-0.647195;1;-0.64094;-0.0848884;0.649387;1;0.0892391;-4.47361;-0.374568;0.00825027;fp_not_a_fp;-1;0.205406;
303974;3382.450222;510;444;36.4666;5.65685;0.0329417;30;511.164;442.87;0;23;1;1;-0.224949;-1.06843;-0.62815;-0.215771;-1.06208;-0.639572;1;-0.618375;-0.16157;0.659054;1;0.0930197;-5.5117;0.246068;0.00735244;fp_not_a_fp;-1;0.205446;
303975;3382.461349;514;446;36.729;5.65685;0.0307198;82;513.059;447.152;0;24;1;1;-0.233625;-1.06515;-0.620741;-0.222475;-1.06355;-0.632147;1;-0.629634;-0.135041;0.663917;1;0.360432;-3.07067;0.266461;0.00729993;fp_not_a_fp;-1;0.205402;
303976;3382.472477;518;452;36.7815;8.24621;0.10722;21;517.165;449.108;0;25;1;1;-0.243481;-1.07653;-0.611193;-0.230672;-1.06843;-0.62409;1;-0.666942;-0.237344;0.690691;1;-1.11136;-5.1881;0.891815;0.0106262;fp_not_a_fp;-1;0.205437;
303977;3382.483604;520;456;37.1769;4.47214;0.0590774;21;521.351;455.538;0;26;1;1;-0.245912;-1.07358;-0.598986;-0.236992;-1.07092;-0.614767;1;-0.625158;-0.215543;0.753591;1;0.354664;-2.93529;2.34122;0.00570152;fp_not_a_fp;-1;0.205443;
303978;3382.494731;524;458;37.3276;5.65685;0.0366077;91;523.258;459.82;0;27;1;1;-0.255037;-1.07353;-0.593694;-0.244514;-1.0722;-0.606153;1;-0.63276;-0.178451;0.74413;1;-0.323088;-0.379076;1.91147;0.00718284;fp_not_a_fp;-1;0.20545;
303979;3382.505859;528;460;37.4547;8.94427;0.0892021;37;527.361;461.672;0;28;1;1;-0.264256;-1.07415;-0.588814;-0.252171;-1.07445;-0.598171;1;-0.660859;-0.147523;0.701235;1;-0.701398;-0.280306;0.838514;0.0113186;fp_not_a_fp;-1;0.205436;
303980;3382.516986;530;468;37.7724;5.65685;0.0935492;19;531.499;463.406;0;29;1;1;-0.266897;-1.08182;-0.572651;-0.258026;-1.07577;-0.588536;1;-0.618453;-0.203804;0.779351;1;1.08954;0.753511;1.99213;0.00709825;fp_not_a_fp;-1;0.205441;
303981;3382.528113;534;470;38.0312;5.65685;0.0452894;57;533.358;471.977;0;30;1;1;-0.275012;-1.07866;-0.565932;-0.265301;-1.07704;-0.580272;1;-0.615062;-0.164844;0.789247;1;0.226908;1.13903;0.801198;0.00704996;fp_not_a_fp;-1;0.205442;
303982;3382.539241;536;472;37.9468;5.65685;0.0511156;22;537.44;473.934;0;31;1;1;-0.280581;-1.08524;-0.564384;-0.271686;-1.07997;-0.572945;1;-0.599042;-0.203128;0.710403;1;0.757597;-0.554454;-0.757558;0.00706564;fp_not_a_fp;-1;0.205426;
303983;3382.550368;536;472;37.9468;5.65685;0.0511156;22;539.238;475.651;1;0;1;1;-0.28719;-1.08753;-0.556538;-0.27742;-1.08331;-0.564876;1;-0.591775;-0.219305;0.677153;1;1.55213;-1.61275;-0.540909;-1;fp_not_a_fp;-1;0.205381;
303984;3382.561495;536;472;37.9468;5.65685;0.0511156;22;542.406;479.242;2;0;1;1;-0.293669;-1.09007;-0.549047;-0.284113;-1.08537;-0.558975;1;-0.587568;-0.227093;0.662908;1;0.693896;-0.523194;-2.61609;-1;fp_not_a_fp;-1;0.205447;
303985;3382.572622;536;472;37.9468;5.65685;0.0511156;22;545.576;482.75;3;0;1;1;-0.300155;-1.09262;-0.541843;-0.290399;-1.08886;-0.552953;1;-0.585229;-0.23064;0.655047;1;0.670243;-1.47823;-3.01502;-1;fp_not_a_fp;-1;0.20542;
303986;3382.583750;536;472;37.9468;5.65685;0.0511156;22;548.746;486.261;4;0;1;1;-0.306616;-1.09528;-0.534751;-0.296908;-1.09137;-0.545544;1;-0.583675;-0.233107;0.64954;1;0.345257;-0.67354;-1.36744;-1;fp_not_a_fp;-1;0.205457;
303987;3382.594877;536;472;37.9468;5.65685;0.0511156;22;551.949;489.815;5;0;1;1;-0.31308;-1.09791;-0.527618;-0.30338;-1.09397;-0.538314;1;-0.582683;-0.23456;0.646179;1;0.204282;-0.342734;-0.695919;-1;fp_not_a_fp;-1;0.205443;
303988;3382.606004;536;472;37.9468;5.65685;0.0511156;22;555.179;493.4;6;0;1;1;-0.319542;-1.10054;-0.520481;-0.309848;-1.09659;-0.531173;1;-0.582022;-0.235361;0.644178;1;0.124589;-0.185746;-0.420799;-1;fp_not_a_fp;-1;0.205457;
303989;3382.617132;536;472;37.9468;5.65685;0.0511156;22;558.436;497.013;7;0;1;1;-0.326001;-1.10316;-0.51335;-0.31631;-1.09922;-0.52405;1;-0.581548;-0.235778;0.642927;1;0.0827149;-0.115417;-0.2723;-1;fp_not_a_fp;-1;0.205407;
303990;3382.628259;536;472;37.9468;5.65685;0.0511156;22;561.719;500.655;8;0;1;1;-0.332458;-1.10579;-0.506223;-0.32277;-1.10185;-0.516918;1;-0.581187;-0.235989;0.642099;1;0.0559006;-0.064755;-0.167176;-1;fp_not_a_fp;-1;0.20543;
303991;3382.639386;536;472;37.9468;5.65685;0.0511156;22;565.028;504.327;9;0;1;1;-0.338912;-1.10842;-0.499099;-0.329228;-1.10448;-0.509788;1;-0.580895;-0.236081;0.641523;1;0.0401853;-0.0341579;-0.104596;-1;fp_not_a_fp;-1;0.205449;
303992;3382.650514;536;472;37.9468;5.65685;0.0511156;22;568.366;508.03;10;0;1;1;-0.345364;-1.11104;-0.491977;-0.335684;-1.1071;-0.502662;1;-0.580633;-0.236097;0.641087;1;0.0312176;-0.0165445;-0.0694467;-1;fp_not_a_fp;-1;0.205446;
303993;3382.661641;536;472;37.9468;5.65685;0.0511156;22;571.731;511.764;11;0;1;1;-0.351813;-1.11366;-0.484859;-0.342137;-1.10973;-0.495539;1;-0.580396;-0.236072;0.640739;1;0.0258686;-0.00659968;-0.0491621;-1;fp_not_a_fp;-1;0.205409;
303994;3382.672768;536;472;37.9468;5.65685;0.0511156;22;575.124;515.528;12;0;1;1;-0.358261;-1.11629;-0.477742;-0.348588;-1.11235;-0.488419;1;-0.580174;-0.236021;0.640444;1;0.0227536;-0.00072566;-0.0372018;-1;fp_not_a_fp;-1;0.205444;
303995;3382.683896;536;472;37.9468;5.65685;0.0511156;22;578.546;519.325;13;0;1;1;-0.364706;-1.11891;-0.470629;-0.355036;-1.11498;-0.481301;1;-0.579953;-0.235956;0.64017;1;0.0211486;0.00280232;-0.0303911;-1;fp_not_a_fp;-1;0.20546;
303996;3382.695024;536;472;37.9468;5.65685;0.0511156;22;581.997;523.153;14;0;1;1;-0.371148;-1.12153;-0.463517;-0.361482;-1.1176;-0.474186;1;-0.579739;-0.235884;0.639916;1;0.0200883;0.0047946;-0.0263099;-1;fp_not_a_fp;-1;0.205445;
303997;3382.706151;536;472;37.9468;5.65685;0.0511156;22;585.477;527.014;15;0;1;1;-0.377589;-1.12415;-0.456409;-0.367926;-1.12022;-0.467074;1;-0.579529;-0.235808;0.639674;1;0.0194897;0.00592787;-0.0239141;-1;fp_not_a_fp;-1;0.205438;
303998;3382.717279;536;472;37.9468;5.65685;0.0511156;22;588.986;530.908;16;0;1;1;-0.384027;-1.12677;-0.449303;-0.374367;-1.12284;-0.459964;1;-0.579314;-0.235728;0.639431;1;0.0193404;0.00658652;-0.022755;-1;fp_not_a_fp;-1;0.205411;
303999;3382.728407;536;472;37.9468;5.65685;0.0511156;22;592.526;534.835;17;0;1;1;-0.390462;-1.12939;-0.442199;-0.380807;-1.12546;-0.452857;1;-0.579103;-0.235647;0.639196;1;0.0191038;0.00694353;-0.0218797;-1;fp_not_a_fp;-1;0.205389;
304000;3382.739534;-1;-1;-1;-1;-1;-1;596.096;538.796;18;0;0;1;-0.390462;-1.12939;-0.442199;-0.380807;-1.12546;-0.452857;1;-0.579103;-0.235647;0.639196;1;0.0191038;0.00694353;-0.0218797;-1;fp_not_a_fp;-1;0.205489;
304001;3382.750662;-1;-1;-1;-1;-1;-1;596.096;538.796;19;0;0;1;-0.390462;-1.12939;-0.442199;-0.380807;-1.12546;-0.452857;1;-0.579103;-0.235647;0.639196;1;0.0191038;0.00694353;-0.0218797;-1;fp_not_a_fp;-1;0.205441;
