rs_id;elapsed;imLx_insect;imLy_insect;disparity_insect;size_insect;score_insect;motion_sum_insect;imLx_pred_insect;imLy_pred_insect;n_frames_lost_insect;n_frames_tracking_insect;foundL_insect;pos_valid_insect;posX_insect;posY_insect;posZ_insect;sposX_insect;sposY_insect;sposZ_insect;vel_valid_insect;svelX_insect;svelY_insect;svelZ_insect;acc_valid_insect;saccX_insect;saccY_insect;saccZ_insect;radius_insect;fp;hunt_id;light_level;
277469;3087.517970;224;286;71.4227;4;0;19;-1;-1;0;1;1;1;0.272246;-0.373908;-0.440367;0.272246;-0.373908;-0.440367;0;0;0;0;0;0;0;0;0.00266233;fp_not_a_fp;-1;0.205669;
277470;3087.529097;228;284;71.3667;4.47214;0.0899436;13;224;286;0;2;1;1;0.26715;-0.371958;-0.442221;0.269698;-0.372933;-0.441294;1;-0.0584093;0.0223455;-0.0212571;0;0;0;0;0.00297891;fp_not_a_fp;-1;0.205579;
277471;3087.540225;232;282;71.4549;4.47214;0.0899436;24;228.509;283.745;0;3;1;1;0.261518;-0.369259;-0.443182;0.266971;-0.371708;-0.441924;1;-0.139659;0.0596715;-0.0383419;0;-7.30121;3.35418;-1.53527;0.00297523;fp_not_a_fp;-1;0.205644;
277472;3087.551353;236;280;70.9174;2.82843;0.107699;25;233.165;281.418;0;4;1;1;0.258157;-0.369801;-0.44806;0.264768;-0.371231;-0.443458;1;-0.193945;0.0612752;-0.0964229;0;-6.08996;1.74915;-3.37749;0.00189595;fp_not_a_fp;-1;0.205622;
277473;3087.562480;240;280;70.5371;2.82843;0.108799;25;237.782;279.109;0;5;1;1;0.254157;-0.371762;-0.450497;0.260246;-0.370695;-0.44599;1;-0.237492;0.0316452;-0.136063;0;-5.36448;0.278488;-3.43915;0.00190619;fp_not_a_fp;-1;0.205613;
277474;3087.573608;244;278;70.8454;2.82843;0.105441;20;242.303;279.099;0;6;1;1;0.247703;-0.367884;-0.450056;0.255384;-0.369676;-0.447949;1;-0.299174;0.0598033;-0.130041;0;-5.40908;0.841453;-2.44407;0.00189789;fp_not_a_fp;-1;0.205567;
277475;3087.584735;248;276;70.7557;2.82843;0.100801;10;246.745;276.952;0;7;1;1;0.242662;-0.366088;-0.452148;0.25067;-0.368884;-0.45019;1;-0.344293;0.0843998;-0.134948;1;-4.5975;0.555538;-2.17051;0.0019003;fp_not_a_fp;-1;0.205632;
277476;3087.595862;252;274;70.5785;2.82843;0.0950229;9;251.316;274.694;0;8;1;1;0.237903;-0.36474;-0.454809;0.245606;-0.367618;-0.451878;1;-0.37358;0.0992612;-0.150263;1;-4.03582;0.853405;-1.20967;0.00190507;fp_not_a_fp;-1;0.205554;
277477;3087.606990;256;274;70.4528;2;0.110856;16;255.516;272.543;0;9;1;1;0.232929;-0.365358;-0.455642;0.240299;-0.366017;-0.453164;1;-0.395038;0.0856588;-0.146976;1;-3.53953;1.21353;-0.245196;0.00134949;fp_not_a_fp;-1;0.205611;
277478;3087.618118;260;272;70.4707;2;0.103089;18;259.655;272.666;0;10;1;1;0.227493;-0.362993;-0.457054;0.235247;-0.364795;-0.454914;1;-0.41583;0.0962121;-0.143059;1;-2.62094;0.818049;-0.292477;0.00134915;fp_not_a_fp;-1;0.205622;
277479;3087.629245;262;270;70.3876;2.82843;0.104003;28;263.756;270.634;0;11;1;1;0.22508;-0.361164;-0.459113;0.230851;-0.363564;-0.456655;1;-0.399045;0.109271;-0.146785;1;-1.2301;0.558817;-0.265946;0.00191025;fp_not_a_fp;-1;0.205614;
277480;3087.640373;266;268;70.3158;2.82843;0.0140986;29;265.537;268.543;0;12;1;1;0.219921;-0.359256;-0.461112;0.226356;-0.362193;-0.45823;1;-0.400342;0.1226;-0.152521;1;-0.601245;0.524361;-0.0507203;0.00191218;fp_not_a_fp;-1;0.205619;
277481;3087.651500;270;266;70.2243;4.47214;0.0629464;41;269.501;266.438;0;13;1;1;0.214812;-0.357445;-0.463246;0.221827;-0.360215;-0.460132;1;-0.408379;0.133232;-0.159902;1;-0.299725;1.06883;-0.290398;0.00302737;fp_not_a_fp;-1;0.205624;
277482;3087.662627;274;266;70.0162;4;0.060171;30;273.544;264.31;0;14;1;1;0.210019;-0.358475;-0.464646;0.217458;-0.359085;-0.462029;1;-0.414553;0.108828;-0.158595;1;0.0286927;0.283405;-0.349054;0.00271582;fp_not_a_fp;-1;0.205549;
277483;3087.673756;276;264;69.8978;2.82843;0.0216468;34;277.607;264.507;0;15;1;1;0.207674;-0.356808;-0.466962;0.213107;-0.357996;-0.463992;1;-0.391104;0.103963;-0.164373;1;0.178362;-0.119274;-0.395132;0.00192362;fp_not_a_fp;-1;0.205613;
277484;3087.684883;280;262;69.6822;4.47214;0.0592635;26;279.425;262.528;0;16;1;1;0.202879;-0.355614;-0.469951;0.208846;-0.357085;-0.466201;1;-0.386495;0.102374;-0.180063;1;0.311046;-0.454432;-0.618786;0.00305092;fp_not_a_fp;-1;0.205628;
277485;3087.696010;282;262;69.5286;2;0.0741905;27;283.409;260.475;0;17;1;1;0.200592;-0.356384;-0.471001;0.205291;-0.35682;-0.46814;1;-0.361503;0.0798413;-0.175611;1;1.05311;-1.19956;-0.352929;0.00136743;fp_not_a_fp;-1;0.205635;
277486;3087.707138;286;260;69.5216;2.82843;0.0191598;34;285.188;260.679;0;18;1;1;0.195162;-0.354117;-0.472597;0.201577;-0.355731;-0.470128;1;-0.367304;0.0863268;-0.169663;1;1.06151;-0.50554;-0.248668;0.00193403;fp_not_a_fp;-1;0.205604;
277487;3087.718266;288;258;69.6327;2.82843;0.0221432;29;289.197;258.648;0;19;1;1;0.19214;-0.35127;-0.473378;0.197693;-0.354346;-0.471732;1;-0.357494;0.110634;-0.154519;1;0.755128;0.149867;0.221378;0.00193094;fp_not_a_fp;-1;0.205609;
277488;3087.729393;292;258;69.439;2.82843;0.0292406;24;291.055;256.551;0;20;1;1;0.187199;-0.352216;-0.47472;0.193774;-0.353497;-0.472924;1;-0.364477;0.0957176;-0.14394;1;0.494698;-0.149558;0.811587;0.00193633;fp_not_a_fp;-1;0.205609;
277489;3087.740521;296;256;69.5002;4.47214;0.0534369;20;295.103;256.73;0;21;1;1;0.181583;-0.349603;-0.475851;0.189021;-0.351801;-0.474137;1;-0.385252;0.107299;-0.134173;1;-0.533529;0.616858;0.930971;0.00305891;fp_not_a_fp;-1;0.205601;
277490;3087.751648;298;256;69.3636;2;0.0815802;25;299.273;254.679;0;22;1;1;0.179199;-0.350275;-0.4768;0.18503;-0.350841;-0.475187;1;-0.372021;0.0906938;-0.123895;1;-0.105944;0.0980934;1.02827;0.00137068;fp_not_a_fp;-1;0.205569;
277491;3087.762775;302;254;69.3124;2;0.0726653;19;301.142;254.86;0;23;1;1;0.173865;-0.348224;-0.478705;0.180462;-0.35008;-0.476519;1;-0.38025;0.0957719;-0.125688;1;-0.511222;-0.33394;0.647748;0.0013717;fp_not_a_fp;-1;0.205602;
277492;3087.773904;304;252;69.3149;2.82843;0.0234089;24;305.225;252.827;0;24;1;1;0.171135;-0.345919;-0.48023;0.176445;-0.348505;-0.477897;1;-0.366435;0.11208;-0.127872;1;-0.0439878;0.367571;0.360997;0.0019398;fp_not_a_fp;-1;0.205617;
277493;3087.785031;306;252;68.7445;2;0.0634502;29;307.073;250.677;0;25;1;1;0.169789;-0.348772;-0.484226;0.173497;-0.348298;-0.47999;1;-0.329417;0.0718152;-0.158267;1;1.25445;-0.797254;-0.541329;0.00138303;fp_not_a_fp;-1;0.205616;
277494;3087.796158;310;250;69.0254;2.82843;0.0149608;27;308.814;250.825;0;26;1;1;0.163609;-0.345034;-0.483815;0.1696;-0.346987;-0.481744;1;-0.342944;0.0888643;-0.145938;1;0.653258;-0.0411418;-0.495237;0.00194793;fp_not_a_fp;-1;0.2056;
277495;3087.807286;312;248;69.1694;2.82843;0.0194241;26;312.907;248.744;0;27;1;1;0.160539;-0.342018;-0.484353;0.166268;-0.345436;-0.483156;1;-0.339976;0.119146;-0.128394;1;0.904818;0.525051;-0.0608235;0.00194388;fp_not_a_fp;-1;0.205604;
277496;3087.818413;316;246;68.7518;2.82843;0.0173605;28;314.8;246.615;0;28;1;1;0.156003;-0.341767;-0.488861;0.162485;-0.344398;-0.485314;1;-0.347383;0.119341;-0.156438;1;0.428044;0.163066;-0.641841;0.00195569;fp_not_a_fp;-1;0.205579;
277497;3087.829541;318;244;68.8627;2.82843;0.0144229;29;318.918;244.494;0;29;1;1;0.153011;-0.338909;-0.489626;0.158291;-0.341932;-0.486664;1;-0.340437;0.136964;-0.156843;1;-0.247598;1.46366;0.0319668;0.00195254;fp_not_a_fp;-1;0.205587;
277498;3087.840669;322;244;68.6225;2.82843;0.0243003;28;320.862;242.344;0;30;1;1;0.148005;-0.340062;-0.491362;0.154389;-0.340689;-0.488551;1;-0.351523;0.113562;-0.156908;1;-0.192737;0.55488;-0.246503;0.00195937;fp_not_a_fp;-1;0.205572;
277499;3087.851796;324;242;68.5989;2.82843;0.0150434;30;324.966;242.532;0;31;1;1;0.145304;-0.337862;-0.493089;0.150581;-0.33965;-0.490735;1;-0.342227;0.114623;-0.156719;1;-0.0505592;-0.101562;-0.636388;0.00196005;fp_not_a_fp;-1;0.205598;
277500;3087.862923;328;242;68.5269;4;0.0726868;25;326.888;240.542;0;32;1;1;0.139907;-0.338183;-0.49363;0.146557;-0.338754;-0.491927;1;-0.356598;0.0967536;-0.142852;1;-0.207012;-0.507442;0.305247;0.00277484;fp_not_a_fp;-1;0.205572;
277501;3087.874052;330;240;68.6651;2.82843;0.0148488;30;330.992;240.764;0;33;1;1;0.136876;-0.335188;-0.494193;0.142523;-0.337824;-0.493069;1;-0.35179;0.111361;-0.12535;1;-0.255073;-0.575218;0.707523;0.00195815;fp_not_a_fp;-1;0.205634;
277502;3087.885179;332;238;68.674;2.82843;0.013643;26;332.916;238.757;0;34;1;1;0.13411;-0.33283;-0.495685;0.139049;-0.336016;-0.49415;1;-0.336643;0.13022;-0.119235;1;0.334296;0.374222;0.846375;0.0019579;fp_not_a_fp;-1;0.205594;
277503;3087.896306;336;238;68.5571;2.82843;0.0205898;29;334.734;236.626;0;35;1;1;0.128792;-0.333365;-0.496554;0.134921;-0.334892;-0.495016;1;-0.348408;0.115279;-0.111453;1;-0.13888;0.014681;1.01698;0.00196125;fp_not_a_fp;-1;0.205616;
277504;3087.907433;338;236;68.5527;2.82843;0.0168355;27;338.846;236.781;0;36;1;1;0.126046;-0.331068;-0.498145;0.131456;-0.333113;-0.496144;1;-0.340299;0.12073;-0.112258;1;0.366184;0.538663;0.687316;0.00196137;fp_not_a_fp;-1;0.205604;
277505;3087.918561;340;236;68.1471;2;0.0630266;29;340.754;234.714;0;37;1;1;0.124006;-0.333021;-0.501121;0.128239;-0.332571;-0.497876;1;-0.316924;0.0851904;-0.132388;1;0.783296;-0.587921;-0.158082;0.00139515;fp_not_a_fp;-1;0.205595;
277506;3087.929689;344;234;68.4668;2.82843;0.0185405;33;342.601;234.889;0;38;1;1;0.117893;-0.329128;-0.500353;0.124184;-0.331645;-0.499043;1;-0.336917;0.104265;-0.11502;1;-0.00619212;-0.583077;0.0947489;0.00196383;fp_not_a_fp;-1;0.205584;
277507;3087.940816;346;234;68.3034;2;0.0585241;35;346.763;232.842;0;39;1;1;0.115391;-0.329899;-0.501562;0.120834;-0.330779;-0.500295;1;-0.330884;0.0900168;-0.10702;1;0.393672;-0.567499;0.0996328;0.00139195;fp_not_a_fp;-1;0.20562;
277508;3087.951944;348;232;68.3079;2.82843;0.014429;39;348.69;232.974;0;40;1;1;0.11262;-0.32755;-0.503093;0.117478;-0.329899;-0.501532;1;-0.317948;0.0995653;-0.10762;1;0.502104;-0.475472;0.104264;0.00196839;fp_not_a_fp;-1;0.205584;
277509;3087.963071;350;232;68.0152;2;0.0534254;31;350.574;230.905;0;41;1;1;0.110309;-0.328943;-0.50527;0.114053;-0.32888;-0.50257;1;-0.298538;0.0748452;-0.11909;1;0.413081;-0.232442;0.298763;0.00139786;fp_not_a_fp;-1;0.205617;
277510;3087.974199;352;230;68.1725;2.82843;0.0173572;28;352.441;231.019;0;42;1;1;0.107286;-0.325852;-0.505672;0.111402;-0.328061;-0.503899;1;-0.287094;0.0905079;-0.113247;1;1.11936;-0.309107;0.0398384;0.00197231;fp_not_a_fp;-1;0.205607;
277511;3087.985327;354;230;67.8072;2;0.0429763;30;354.307;228.935;0;43;1;1;0.10506;-0.327591;-0.508407;0.108819;-0.327484;-0.505611;1;-0.271262;0.0655071;-0.127745;1;1.33948;-0.550642;-0.465614;0.00140214;fp_not_a_fp;-1;0.205601;
277512;3087.996454;358;228;67.9863;2.82843;0.0372589;20;356.196;229.042;0;44;1;1;0.0992097;-0.324374;-0.508652;0.105466;-0.32669;-0.507;1;-0.297178;0.0837009;-0.120245;1;0.4666;-0.35639;-0.28363;0.00197771;fp_not_a_fp;-1;0.205581;
277513;3088.007581;360;228;68.191;2;0.0391747;25;360.418;226.95;0;45;1;1;0.0961234;-0.323383;-0.507136;0.10192;-0.3253;-0.507467;1;-0.30536;0.0918971;-0.0844363;1;-0.153326;0.383153;0.778615;0.00139425;fp_not_a_fp;-1;0.205636;
277514;3088.018709;362;226;68.1864;2.82843;0.0314809;22;362.465;227.043;0;46;1;1;0.0933616;-0.321074;-0.508738;0.0984385;-0.324106;-0.508234;1;-0.301449;0.110027;-0.0772293;1;-0.322538;0.438565;0.809228;0.0019719;fp_not_a_fp;-1;0.205598;
277515;3088.029837;364;226;68.2083;4;0.0733663;22;364.421;224.95;0;47;1;1;0.0905439;-0.320954;-0.508586;0.0948096;-0.322446;-0.508278;1;-0.293682;0.104863;-0.0626538;1;-0.503711;0.884189;1.46242;0.00278779;fp_not_a_fp;-1;0.205602;
277516;3088.040964;366;224;68.0708;2.82843;0.0210091;34;366.352;225.044;0;48;1;1;0.0879537;-0.319268;-0.511184;0.0919956;-0.32117;-0.508911;1;-0.282704;0.108686;-0.0784152;1;0.325206;0.561305;0.939779;0.00197525;fp_not_a_fp;-1;0.205588;
277517;3088.052092;368;224;68.0217;2.82843;0.020816;28;368.24;222.953;0;49;1;1;0.0852218;-0.319481;-0.511564;0.0892702;-0.320194;-0.510018;1;-0.273421;0.0939544;-0.0792863;1;0.717583;0.0462167;0.115686;0.00197668;fp_not_a_fp;-1;0.205629;
277518;3088.063219;370;222;67.8484;2.82843;0.0167881;29;370.163;223.049;0;50;1;1;0.0826574;-0.317955;-0.514446;0.0865941;-0.319415;-0.511445;1;-0.264105;0.0933812;-0.102566;1;0.838993;-0.373967;-0.569248;0.00198172;fp_not_a_fp;-1;0.205588;
277519;3088.074347;372;222;68.0653;2.82843;0.0167826;35;372.103;220.959;0;51;1;1;0.0796004;-0.316925;-0.512818;0.0838583;-0.318407;-0.512503;1;-0.26161;0.0930395;-0.0804457;1;0.720552;-0.265612;-0.399732;0.00197541;fp_not_a_fp;-1;0.205627;
277520;3088.085475;374;222;67.7555;2;0.0505317;31;374.074;221.049;0;52;1;1;0.077158;-0.318357;-0.515174;0.0811594;-0.31818;-0.513501;1;-0.255205;0.0646154;-0.0880496;1;0.617798;-0.990056;-0.216431;0.00140321;fp_not_a_fp;-1;0.205609;
277521;3088.096602;376;220;67.8907;2.82843;0.0189203;35;376.039;221.245;0;53;1;1;0.074224;-0.315382;-0.515722;0.0784099;-0.317155;-0.51454;1;-0.253639;0.0787305;-0.0862457;1;0.444417;-0.341986;-0.156332;0.00198049;fp_not_a_fp;-1;0.205619;
277522;3088.107729;378;220;67.854;2.82843;0.0111397;36;378.027;219.134;0;54;1;1;0.0714619;-0.315536;-0.516013;0.075611;-0.31655;-0.514932;1;-0.252302;0.0727564;-0.077833;1;0.265177;-0.463329;0.555704;0.00198156;fp_not_a_fp;-1;0.205567;
277523;3088.118857;380;220;67.7468;2.82843;0.0101372;37;380.015;219.23;0;55;1;1;0.0687683;-0.316018;-0.516841;0.072903;-0.316323;-0.515938;1;-0.250442;0.0554794;-0.0739181;1;0.250896;-0.84379;0.146665;0.0019847;fp_not_a_fp;-1;0.205549;
277524;3088.129985;382;220;67.8243;2;0.0508865;29;382.004;219.369;0;56;1;1;0.0658862;-0.31564;-0.516262;0.070085;-0.315644;-0.51621;1;-0.250766;0.0455954;-0.0562335;1;0.0997134;-0.427297;0.714817;0.00140179;fp_not_a_fp;-1;0.205614;
277525;3088.141112;386;218;67.7878;2.82843;0.0282179;37;384.003;219.506;0;57;1;1;0.060332;-0.313449;-0.518128;0.066612;-0.315161;-0.516811;1;-0.282584;0.0608171;-0.0631433;1;-0.650317;-0.402427;0.51904;0.0019835;fp_not_a_fp;-1;0.205615;
277526;3088.152240;388;218;67.6256;2.82843;0.0146859;31;388.285;217.372;0;58;1;1;0.057665;-0.314183;-0.519382;0.0631628;-0.314823;-0.517653;1;-0.290258;0.050931;-0.0723154;1;-0.852775;-0.490297;0.123978;0.00198826;fp_not_a_fp;-1;0.205618;
277527;3088.163367;390;218;67.5241;2.82843;0.0148038;29;390.359;217.398;0;59;1;1;0.0549357;-0.314639;-0.520174;0.0597047;-0.314478;-0.518486;1;-0.287692;0.0351277;-0.0759664;1;-0.836905;-0.457218;-0.0460005;0.00199124;fp_not_a_fp;-1;0.205597;
277528;3088.174495;394;218;67.5331;2;0.0535237;29;392.341;217.485;0;60;1;1;0.0492972;-0.314563;-0.520128;0.0555574;-0.314208;-0.519453;1;-0.31457;0.0249856;-0.0672548;1;-1.4335;-0.463017;-0.2476;0.00140784;fp_not_a_fp;-1;0.205593;
277529;3088.185623;396;216;67.4517;2.82843;0.0290703;35;396.575;217.587;0;61;1;1;0.0465582;-0.312586;-0.52234;0.052114;-0.313993;-0.520506;1;-0.316949;0.0402652;-0.0804299;1;-0.772075;-0.461752;-0.388338;0.00199338;fp_not_a_fp;-1;0.205636;
277530;3088.196750;398;216;67.2854;2.82843;0.0197928;31;398.563;215.429;0;62;1;1;0.0438473;-0.313342;-0.523642;0.0486595;-0.313782;-0.521571;1;-0.30858;0.0327848;-0.0905441;1;-0.411635;-0.407727;-0.409526;0.00199831;fp_not_a_fp;-1;0.205593;
277531;3088.207877;402;216;67.2341;2;0.0523228;30;400.48;215.437;0;63;1;1;0.0382245;-0.313547;-0.524065;0.0444817;-0.313509;-0.522544;1;-0.330215;0.0231602;-0.0880212;1;-0.955364;-0.268908;-0.270813;0.0014141;fp_not_a_fp;-1;0.205605;
277532;3088.219006;404;214;66.8526;2.82843;0.0287055;24;404.668;215.512;0;64;1;1;0.0356191;-0.312959;-0.528655;0.0410622;-0.313108;-0.524676;1;-0.326899;0.0229668;-0.128358;1;-0.276997;-0.0453877;-1.37272;0.00201125;fp_not_a_fp;-1;0.205617;
277533;3088.230133;406;214;66.8558;2.82843;0.0210541;16;406.612;213.325;0;65;1;1;0.0327733;-0.312927;-0.528641;0.037616;-0.313193;-0.526251;1;-0.316454;0.0203263;-0.128498;1;0.0111094;-0.447974;-1.07986;0.00201115;fp_not_a_fp;-1;0.205634;
277534;3088.241260;408;214;66.6299;2;0.0402528;16;408.515;213.363;0;66;1;1;0.0300307;-0.31397;-0.530445;0.0341619;-0.313351;-0.527952;1;-0.303213;0.00467689;-0.132846;1;0.120575;-0.631518;-0.95032;0.00142692;fp_not_a_fp;-1;0.205598;
277535;3088.252388;412;212;66.4773;2.82843;0.0343967;14;410.398;213.462;0;67;1;1;0.0243998;-0.312283;-0.533282;0.0307057;-0.313035;-0.530256;1;-0.323607;0.016954;-0.150215;1;0.148499;-0.139468;-1.3972;0.0020226;fp_not_a_fp;-1;0.205605;
277536;3088.263515;414;212;66.4852;2.82843;0.0208868;21;414.545;211.29;0;68;1;1;0.0215369;-0.312229;-0.53323;0.0271851;-0.312852;-0.5314;1;-0.323575;0.0204883;-0.13764;1;0.0747149;-0.0557148;-0.208508;0.00202236;fp_not_a_fp;-1;0.205581;
277537;3088.274642;416;212;66.0064;2;0.0406204;19;416.539;211.338;0;69;1;1;0.0188124;-0.314476;-0.53711;0.0236949;-0.31324;-0.533517;1;-0.313521;-0.00642512;-0.159356;1;0.0659434;-0.601066;-0.693288;0.0014404;fp_not_a_fp;-1;0.205649;
277538;3088.285771;420;212;66.1493;2;0.0453001;18;418.447;211.447;0;70;1;1;0.0130228;-0.313762;-0.535973;0.0194429;-0.313187;-0.534899;1;-0.335736;-0.00854305;-0.134973;1;-0.730638;-0.297037;-0.0477894;0.00143728;fp_not_a_fp;-1;0.205591;
277539;3088.296898;422;210;65.8803;2.82843;0.0333739;16;422.644;211.559;0;71;1;1;0.0102107;-0.312631;-0.539784;0.0158957;-0.313274;-0.536524;1;-0.334327;0.004636;-0.151368;1;-0.240824;-0.276756;-0.0259515;0.00204093;fp_not_a_fp;-1;0.205629;
277540;3088.308025;426;210;65.6921;2.82843;0.0317367;12;424.599;209.414;0;72;1;1;0.00445098;-0.313492;-0.541354;0.0116242;-0.31359;-0.538555;1;-0.357125;-0.000374606;-0.156831;1;-0.753733;-0.468738;-0.431213;0.00204678;fp_not_a_fp;-1;0.205616;
277541;3088.319154;428;210;65.5082;2.82843;0.0258513;11;428.779;209.427;0;73;1;1;0.00156085;-0.314354;-0.542885;0.00731128;-0.31356;-0.539999;1;-0.354122;-0.0122836;-0.156639;1;-0.912155;-0.131604;0.0610186;0.00205252;fp_not_a_fp;-1;0.20559;
277542;3088.330281;432;210;65.3025;0;0.12465;11;430.749;209.507;0;74;1;1;-0.00425777;-0.315309;-0.544619;0.00299114;-0.313946;-0.542161;1;-0.374412;-0.0265856;-0.156453;1;-0.868952;-0.405358;-0.482592;0;fp_not_a_fp;-1;0.205601;
277543;3088.341408;434;208;64.758;2.82843;0.0458061;13;434.882;209.603;0;75;1;1;-0.00720845;-0.315506;-0.550848;-0.00136365;-0.314665;-0.544927;1;-0.368864;-0.0313605;-0.207828;1;-0.775962;-0.808731;-1.2685;0.0020763;fp_not_a_fp;-1;0.205607;
277544;3088.352535;436;210;64.6401;2;0.0461831;7;436.801;207.448;0;76;1;1;-0.0101846;-0.318505;-0.550224;-0.00502255;-0.315918;-0.547144;1;-0.353638;-0.0637122;-0.195396;1;0.0783304;-1.42302;-0.866446;0.00147084;fp_not_a_fp;-1;0.205621;
277545;3088.363663;440;210;64.7509;0;0.113466;4;438.636;209.73;0;77;1;1;-0.0160403;-0.317924;-0.549306;-0.00942285;-0.316811;-0.548749;1;-0.369357;-0.0622965;-0.154808;1;-0.342273;-1.12367;0.0410563;0;fp_not_a_fp;-1;0.205622;
277546;3088.374791;442;208;64.6277;2.82843;0.0644744;6;442.77;209.883;0;78;1;1;-0.0189917;-0.316071;-0.552007;-0.0131063;-0.317001;-0.550596;1;-0.362571;-0.0325259;-0.149253;1;0.266054;-0.133479;0.161668;0.00208049;fp_not_a_fp;-1;0.205619;
277547;3088.385918;446;208;64.4103;0;0.0986777;3;444.691;207.681;0;79;1;1;-0.02496;-0.317102;-0.553895;-0.0175442;-0.317401;-0.551358;1;-0.381935;-0.0278969;-0.149557;1;-0.293653;0.0778015;1.30912;0;fp_not_a_fp;-1;0.205602;
277548;3088.397046;448;208;64.3623;2;0.0221784;6;448.844;207.668;0;80;1;1;-0.0279329;-0.317321;-0.554319;-0.0219813;-0.317105;-0.552382;1;-0.375297;-0.0249291;-0.135474;1;-0.486605;0.871333;1.34618;0.00147719;fp_not_a_fp;-1;0.205554;
277549;3088.408173;450;208;64.1318;2;0.0215839;7;450.801;207.673;0;81;1;1;-0.0309982;-0.318443;-0.556323;-0.0257207;-0.317234;-0.554136;1;-0.359822;-0.0333905;-0.135348;1;0.214214;0.649424;0.437186;0.0014825;fp_not_a_fp;-1;0.205623;
277550;3088.419300;454;208;64.1712;0;0.0822817;7;452.638;207.718;0;82;1;1;-0.0369054;-0.318212;-0.556006;-0.0301992;-0.31777;-0.555136;1;-0.375246;-0.0299779;-0.114394;1;-0.284783;0.0572419;0.78317;0;fp_not_a_fp;-1;0.205579;
277551;3088.430429;456;208;63.7044;2;0.0489358;7;456.776;207.803;0;83;1;1;-0.0401607;-0.320526;-0.560093;-0.0339993;-0.318626;-0.556686;1;-0.371069;-0.0512669;-0.137987;1;0.244112;-0.525028;0.25996;0.00149245;fp_not_a_fp;-1;0.205637;
277552;3088.441556;460;208;63.5509;0;0.0532777;5;458.68;207.865;0;84;1;1;-0.0462416;-0.321264;-0.561469;-0.0385765;-0.319611;-0.558473;1;-0.391717;-0.0619808;-0.145914;1;-0.368927;-0.832407;-0.234498;0;fp_not_a_fp;-1;0.205608;
277553;3088.452683;462;208;63.5016;0;0.0480238;4;462.833;207.907;0;85;1;1;-0.0492719;-0.321495;-0.561917;-0.0431449;-0.320374;-0.559872;1;-0.385022;-0.0611548;-0.135715;1;-0.5662;-0.623743;-0.00818911;0;fp_not_a_fp;-1;0.205602;
277554;3088.463811;466;206;63.2233;2;0.0999349;5;464.79;207.936;0;86;1;1;-0.055482;-0.320378;-0.566094;-0.0477891;-0.320916;-0.562393;1;-0.404325;-0.0402135;-0.162059;1;-0.653296;-0.229962;-1.0708;0.0015038;fp_not_a_fp;-1;0.205611;
277555;3088.474939;468;208;62.8373;0;0.0378599;5;468.906;205.676;0;87;1;1;-0.0588708;-0.324839;-0.567895;-0.0524666;-0.321994;-0.564344;1;-0.399576;-0.0775617;-0.172918;1;-0.640431;-0.590809;-0.784756;0;fp_not_a_fp;-1;0.205595;
277556;3088.486066;470;206;62.6653;2.82843;0.135003;7;470.825;207.89;0;88;1;1;-0.0620446;-0.323195;-0.57116;-0.0564174;-0.322477;-0.566767;1;-0.383029;-0.0642546;-0.192775;1;0.195245;-0.0511268;-1.05279;0.00214564;fp_not_a_fp;-1;0.205598;
277557;3088.497194;474;206;62.5007;2.82843;0.126917;4;472.651;205.714;0;89;1;1;-0.0682927;-0.324009;-0.572689;-0.0611726;-0.323105;-0.569459;1;-0.39895;-0.0598973;-0.193922;1;-0.312844;0.028203;-1.30769;0.00215129;fp_not_a_fp;-1;0.205596;
277558;3088.508322;476;206;62.4922;2.82843;0.0964564;7;476.767;205.676;0;90;1;1;-0.0713447;-0.324035;-0.572779;-0.0651382;-0.32402;-0.571131;1;-0.389627;-0.0507508;-0.170694;1;0.330252;-0.236757;-0.194014;0.00215158;fp_not_a_fp;-1;0.205623;
277559;3088.519449;480;206;62.2766;2;0.0548522;4;478.69;205.733;0;91;1;1;-0.0776981;-0.32512;-0.574787;-0.0698451;-0.32409;-0.572854;1;-0.408908;-0.0529328;-0.162336;1;-0.209649;0.553332;0.237758;0.00152666;fp_not_a_fp;-1;0.205578;
277560;3088.530577;482;206;61.6916;2.82843;0.0904394;5;482.84;205.759;0;92;1;1;-0.081517;-0.328184;-0.580249;-0.0747132;-0.325337;-0.575126;1;-0.408492;-0.0822039;-0.200787;1;-0.572069;-0.403232;-0.179936;0.00217951;fp_not_a_fp;-1;0.205592;
277561;3088.541704;482;206;61.6916;2.82843;0.0904394;5;484.77;205.834;1;0;1;1;-0.0860912;-0.329122;-0.582491;-0.0791628;-0.326615;-0.577577;1;-0.408649;-0.0945708;-0.216766;1;-0.217931;-0.778971;-0.513195;-1;fp_not_a_fp;-1;0.205603;
277562;3088.552831;490;206;61.5081;0;0.241244;3;487.484;205.696;0;1;1;1;-0.0941259;-0.329089;-0.582031;-0.0848581;-0.327879;-0.57989;1;-0.448691;-0.0872353;-0.190448;1;-1.32699;-0.819661;-0.443753;0;fp_not_a_fp;-1;0.205606;
277563;3088.563960;490;206;61.5081;0;0.241244;3;493.054;205.914;1;0;1;1;-0.0991933;-0.330109;-0.584175;-0.0902319;-0.329126;-0.582237;1;-0.46609;-0.0847669;-0.179849;1;-1.28467;-0.71518;-0.393426;-1;fp_not_a_fp;-1;0.205638;
277564;3088.575087;496;206;61.4225;0;0.217128;6;496.22;205.849;0;1;1;1;-0.103544;-0.329491;-0.582879;-0.0957387;-0.329453;-0.582894;1;-0.463702;-0.065855;-0.137683;1;-1.24038;0.3673;1.41772;0;fp_not_a_fp;-1;0.205572;
277565;3088.586214;498;206;60.2879;2;0.0471572;6;499.211;205.964;0;2;1;1;-0.108647;-0.335673;-0.593862;-0.101378;-0.33109;-0.585737;1;-0.462061;-0.120502;-0.228587;1;-1.19998;-0.582625;-0.265626;0.00157702;fp_not_a_fp;-1;0.205591;
277566;3088.597343;502;206;60.0784;0;0.078693;5;500.997;205.983;0;3;1;1;-0.115355;-0.336805;-0.595958;-0.106685;-0.333019;-0.589219;1;-0.47934;-0.140692;-0.261025;1;-0.688543;-1.201;-1.58563;0;fp_not_a_fp;-1;0.205544;
277567;3088.608470;504;206;59.5129;0;0.0645529;2;505.014;205.991;0;4;1;1;-0.119647;-0.339986;-0.601634;-0.111798;-0.335489;-0.593584;1;-0.474529;-0.167555;-0.306199;1;-0.18958;-1.85999;-2.83868;0;fp_not_a_fp;-1;0.205604;
277568;3088.619597;508;206;60.3973;0;0.0661884;3;506.848;205.996;0;5;1;1;-0.124191;-0.33497;-0.59285;-0.11696;-0.336858;-0.596076;1;-0.46411;-0.0997811;-0.185119;1;-0.0091079;-0.762137;-1.06559;0;fp_not_a_fp;-1;0.205599;
277569;3088.630726;510;206;59.7582;0;0.0391885;2;510.986;205.998;0;6;1;1;-0.128701;-0.338533;-0.599203;-0.121974;-0.337573;-0.597412;1;-0.452299;-0.099885;-0.184286;1;0.219344;0.463306;0.995475;0;fp_not_a_fp;-1;0.205641;
277570;3088.641853;510;206;59.7582;0;0.0391885;2;512.875;205.999;1;0;1;1;-0.133713;-0.339614;-0.601189;-0.126563;-0.338276;-0.598719;1;-0.447178;-0.0995809;-0.183202;1;0.722571;0.923707;1.74855;-1;fp_not_a_fp;-1;0.205572;
277571;3088.652980;510;206;59.7582;0;0.0391885;2;515.685;205.997;2;0;1;1;-0.138637;-0.340664;-0.603117;-0.131311;-0.338445;-0.59909;1;-0.444468;-0.0987828;-0.181482;1;0.675385;1.54517;2.80212;-1;fp_not_a_fp;-1;0.205599;
277572;3088.664109;510;206;59.7582;0;0.0391885;2;518.473;205.997;3;0;1;1;-0.143534;-0.341666;-0.604961;-0.136147;-0.340119;-0.602118;1;-0.442782;-0.0973404;-0.178754;1;0.479145;0.0548348;0.142998;-1;fp_not_a_fp;-1;0.205605;
277573;3088.675236;522;204;59.4908;0;0.237745;2;521.22;205.996;0;1;1;1;-0.148434;-0.337287;-0.603759;-0.14108;-0.339808;-0.603256;1;-0.441774;-0.0341331;-0.141049;1;0.236472;1.47727;0.971425;0;fp_not_a_fp;-1;0.205613;
277574;3088.686363;524;204;58.494;0;0.0579856;4;524.868;203.718;0;2;1;1;-0.154214;-0.343015;-0.61406;-0.146205;-0.340658;-0.606474;1;-0.451263;-0.0693134;-0.225556;1;-0.0917706;0.680046;-0.951542;0;fp_not_a_fp;-1;0.205584;
277575;3088.697492;526;204;57.4833;0;0.0971152;2;526.738;203.642;0;3;1;1;-0.160233;-0.349026;-0.624871;-0.151604;-0.342748;-0.611913;1;-0.46662;-0.143915;-0.355624;1;-0.497665;-1.01381;-3.91218;0;fp_not_a_fp;-1;0.205596;
277576;3088.708619;526;204;57.4833;0;0.0971152;2;528.542;203.66;1;0;1;1;-0.165449;-0.350688;-0.629064;-0.157083;-0.345004;-0.617938;1;-0.473232;-0.175436;-0.41208;1;-0.684094;-1.7544;-5.24188;-1;fp_not_a_fp;-1;0.205596;
277577;3088.719747;526;204;57.4833;0;0.0971152;2;530.989;203.325;2;0;1;1;-0.170749;-0.352745;-0.633966;-0.162661;-0.348869;-0.62549;1;-0.47636;-0.18967;-0.439042;1;-0.777016;-3.49431;-6.69477;-1;fp_not_a_fp;-1;0.205576;
277578;3088.730875;526;204;57.4833;0;0.0971152;2;533.357;203.02;3;0;1;1;-0.17609;-0.355069;-0.639258;-0.16813;-0.351882;-0.63179;1;-0.478108;-0.197987;-0.454834;1;-0.603099;-2.89076;-5.15091;-1;fp_not_a_fp;-1;0.205619;
277579;3088.742002;536;204;57.4277;0;0.226708;2;535.68;202.725;0;1;1;1;-0.176944;-0.349264;-0.625542;-0.172308;-0.351941;-0.631958;1;-0.427632;-0.109629;-0.246125;1;0.875992;0.770377;2.46032;0;fp_not_a_fp;-1;0.205609;
277580;3088.753129;536;204;57.4277;0;0.226708;2;538.41;203.874;1;0;1;1;-0.181641;-0.350434;-0.628125;-0.176356;-0.351878;-0.631723;1;-0.406072;-0.0725482;-0.158086;1;1.50894;2.31166;5.70669;-1;fp_not_a_fp;-1;0.205619;
277581;3088.764258;536;204;57.4277;0;0.226708;2;540.83;203.829;2;0;1;1;-0.18606;-0.351098;-0.629529;-0.180184;-0.351466;-0.630614;1;-0.396014;-0.0555736;-0.117633;1;1.80516;3.0128;7.22123;-1;fp_not_a_fp;-1;0.205595;
277582;3088.775385;542;202;56.5136;0;0.236657;2;543.253;203.821;0;1;1;1;-0.189875;-0.35206;-0.637579;-0.18363;-0.350714;-0.630194;1;-0.385078;-0.0525028;-0.178183;1;2.09014;3.26864;6.21558;0;fp_not_a_fp;-1;0.205603;
277583;3088.786513;544;202;56.355;0;0.170885;3;544.225;201.756;0;2;1;1;-0.193783;-0.353031;-0.639387;-0.18784;-0.351656;-0.633655;1;-0.376243;-0.0556624;-0.201207;1;1.15453;1.21244;1.00907;0;fp_not_a_fp;-1;0.205594;
277584;3088.797640;546;202;56.3401;0;0.254328;2;546.099;201.674;0;3;1;1;-0.19721;-0.353104;-0.63957;-0.191732;-0.352323;-0.636517;1;-0.363876;-0.050706;-0.187155;1;0.947988;0.490697;-0.653198;0;fp_not_a_fp;-1;0.205599;
277585;3088.808768;546;202;56.3401;0;0.254328;2;548.028;201.684;1;0;1;1;-0.201194;-0.353637;-0.64169;-0.195516;-0.352958;-0.639557;1;-0.358023;-0.0483008;-0.181773;1;0.853523;0.163395;-1.44107;-1;fp_not_a_fp;-1;0.205628;
277586;3088.819896;548;200;55.5169;2;0.206642;3;550.011;201.369;0;1;1;1;-0.203534;-0.355477;-0.650979;-0.19893;-0.353812;-0.642907;1;-0.336758;-0.062236;-0.26284;1;1.08558;-0.218678;-1.902;0.00171255;fp_not_a_fp;-1;0.205583;
277587;3088.831023;550;200;55.2468;2;0.21189;3;549.674;199.523;0;2;1;1;-0.207971;-0.357194;-0.654176;-0.202477;-0.354853;-0.646604;1;-0.335878;-0.0797454;-0.299469;1;0.906875;-0.541083;-2.20768;0.00172092;fp_not_a_fp;-1;0.205604;
277588;3088.842151;552;200;55.105;2;0.174805;4;551.581;199.516;0;3;1;1;-0.211957;-0.358092;-0.655873;-0.206164;-0.3561;-0.65068;1;-0.338356;-0.0871041;-0.29586;1;0.573348;-0.817755;-2.44231;0.00172535;fp_not_a_fp;-1;0.205596;
277589;3088.853279;552;200;55.105;2;0.174805;4;553.589;199.575;1;0;1;1;-0.215681;-0.359111;-0.659311;-0.209786;-0.357469;-0.655085;1;-0.338911;-0.0907076;-0.296041;1;0.429394;-0.952748;-2.56727;-1;fp_not_a_fp;-1;0.205606;
277590;3088.864406;552;200;55.105;2;0.174805;4;555.167;199.175;2;0;1;1;-0.21942;-0.360177;-0.662759;-0.213757;-0.358644;-0.65803;1;-0.338774;-0.0928538;-0.297876;1;-0.0452826;-0.687884;-0.787163;-1;fp_not_a_fp;-1;0.205564;
277591;3088.875534;552;200;55.105;2;0.174805;4;556.758;198.808;3;0;1;1;-0.223187;-0.361252;-0.666117;-0.217561;-0.359658;-0.661015;1;-0.338683;-0.0942092;-0.299132;1;-0.0630254;-0.324943;0.0075717;-1;fp_not_a_fp;-1;0.20561;
277592;3088.886662;552;200;55.105;2;0.174805;4;558.34;198.45;4;0;1;1;-0.226954;-0.362318;-0.669441;-0.221311;-0.360715;-0.664407;1;-0.338628;-0.0949813;-0.299589;1;-0.00609504;-0.176974;-0.0837546;-1;fp_not_a_fp;-1;0.20557;
277593;3088.897789;552;200;55.105;2;0.174805;4;559.904;198.092;5;0;1;1;-0.230717;-0.363385;-0.672775;-0.22507;-0.361783;-0.667773;1;-0.338545;-0.0954077;-0.29978;1;0.00822632;-0.105595;-0.0840144;-1;fp_not_a_fp;-1;0.205645;
277594;3088.908917;566;198;54.5119;0;0.266627;2;561.454;197.736;0;1;1;1;-0.238654;-0.358947;-0.665055;-0.229878;-0.361475;-0.668347;1;-0.386307;-0.0325452;-0.173141;1;-1.06787;1.35486;2.80223;0;fp_not_a_fp;-1;0.205582;
277595;3088.920045;566;198;54.5119;0;0.266627;2;568.204;197.679;1;0;1;1;-0.243013;-0.359225;-0.666806;-0.234835;-0.360969;-0.668519;1;-0.406729;-0.00560171;-0.11879;1;-1.5287;1.99065;4.05155;-1;fp_not_a_fp;-1;0.205597;
277596;3088.931172;566;198;54.5119;0;0.266627;2;570.686;197.375;2;0;1;1;-0.247626;-0.359164;-0.667876;-0.240003;-0.36018;-0.668128;1;-0.416174;0.00694279;-0.0934387;1;-1.74216;2.28983;4.63137;-1;fp_not_a_fp;-1;0.205592;
277597;3088.942300;566;198;54.5119;0;0.266627;2;573.296;197.079;3;0;1;1;-0.252358;-0.358945;-0.668628;-0.245413;-0.35907;-0.667091;1;-0.421229;0.0137457;-0.0796671;1;-1.85758;2.45224;4.94507;-1;fp_not_a_fp;-1;0.205607;
277598;3088.953428;566;198;54.5119;0;0.266627;2;575.976;196.787;4;0;1;1;-0.257153;-0.358641;-0.669208;-0.250037;-0.358994;-0.668129;1;-0.424554;0.0182897;-0.070462;1;-0.859288;1.1421;2.30686;-1;fp_not_a_fp;-1;0.205574;
277599;3088.964555;566;198;54.5119;0;0.266627;2;578.626;196.495;5;0;1;1;-0.261923;-0.358368;-0.669848;-0.254765;-0.35878;-0.66889;1;-0.426456;0.0209728;-0.0650117;1;-0.443218;0.597041;1.20822;-1;fp_not_a_fp;-1;0.205586;
277600;3088.975683;566;198;54.5119;0;0.266627;2;581.27;196.202;6;0;1;1;-0.266689;-0.358098;-0.670496;-0.259531;-0.358513;-0.669545;1;-0.427472;0.0225003;-0.0618911;1;-0.253827;0.349521;0.70876;-1;fp_not_a_fp;-1;0.205607;
277601;3088.986811;566;198;54.5119;0;0.266627;2;583.912;195.91;7;0;1;1;-0.271454;-0.357826;-0.67114;-0.264305;-0.358233;-0.670173;1;-0.427992;0.0233748;-0.0600882;1;-0.15193;0.216334;0.439875;-1;fp_not_a_fp;-1;0.205606;
277602;3088.997938;566;198;54.5119;0;0.266627;2;586.551;195.619;8;0;1;1;-0.276219;-0.357553;-0.67178;-0.269071;-0.357961;-0.670816;1;-0.428234;0.0238853;-0.0590201;1;-0.0826718;0.125714;0.257061;-1;fp_not_a_fp;-1;0.20561;
277603;3089.009067;566;198;54.5119;0;0.266627;2;589.187;195.328;9;0;1;1;-0.280982;-0.35728;-0.67242;-0.273836;-0.357689;-0.671459;1;-0.428307;0.0241806;-0.0583845;1;-0.0415817;0.0720683;0.148888;-1;fp_not_a_fp;-1;0.205646;
277604;3089.020194;566;198;54.5119;0;0.266627;2;591.819;195.037;10;0;1;1;-0.285744;-0.357007;-0.67306;-0.2786;-0.357416;-0.6721;1;-0.428288;0.0243494;-0.058006;1;-0.0183218;0.0415432;0.0872866;-1;fp_not_a_fp;-1;0.205553;
277605;3089.031322;566;198;54.5119;0;0.266627;2;594.448;194.747;11;0;1;1;-0.290504;-0.356734;-0.673699;-0.283362;-0.357143;-0.67274;1;-0.428212;0.0244442;-0.0577772;1;-0.00495989;0.0240276;0.0519213;-1;fp_not_a_fp;-1;0.205637;
277606;3089.042450;566;198;54.5119;0;0.266627;2;597.073;194.457;12;0;1;1;-0.295262;-0.35646;-0.674338;-0.288123;-0.35687;-0.673379;1;-0.4281;0.0244959;-0.0576333;1;0.00300974;0.013718;0.0311576;-1;fp_not_a_fp;-1;0.205597;
277607;3089.053577;566;198;54.5119;0;0.266627;2;599.695;194.168;13;0;1;1;-0.300019;-0.356187;-0.674976;-0.292882;-0.356597;-0.674018;1;-0.427975;0.0245224;-0.0575424;1;0.00747305;0.00767908;0.0189204;-1;fp_not_a_fp;-1;0.205586;
277608;3089.064704;566;198;54.5119;0;0.266627;2;602.313;193.879;14;0;1;1;-0.304773;-0.355914;-0.675614;-0.29764;-0.356324;-0.674657;1;-0.427838;0.0245347;-0.0574799;1;0.0101111;0.00416382;0.0118211;-1;fp_not_a_fp;-1;0.205591;
277609;3089.075833;566;198;54.5119;0;0.266627;2;604.928;193.59;15;0;1;1;-0.309527;-0.355641;-0.676252;-0.302395;-0.356051;-0.675295;1;-0.427688;0.0245383;-0.0574345;1;0.0117754;0.00211264;0.00770068;-1;fp_not_a_fp;-1;0.205608;
277610;3089.086960;566;198;54.5119;0;0.266627;2;607.539;193.302;16;0;1;1;-0.314278;-0.355369;-0.67689;-0.307149;-0.355778;-0.675933;1;-0.427538;0.024537;-0.0573991;1;0.0126226;0.000924968;0.00526298;-1;fp_not_a_fp;-1;0.205571;
277611;3089.098088;566;198;54.5119;0;0.266627;2;610.147;193.014;17;0;1;1;-0.319028;-0.355096;-0.677527;-0.311901;-0.355505;-0.676571;1;-0.427388;0.024533;-0.0573704;1;0.0131703;0.00023784;0.00386418;-1;fp_not_a_fp;-1;0.205597;
277612;3089.109216;-1;-1;-1;-1;-1;-1;612.751;192.727;18;0;0;1;-0.319028;-0.355096;-0.677527;-0.311901;-0.355505;-0.676571;1;-0.427388;0.024533;-0.0573704;1;0.0131703;0.00023784;0.00386418;-1;fp_not_a_fp;-1;0.205569;
277613;3089.120343;-1;-1;-1;-1;-1;-1;612.751;192.727;19;0;0;1;-0.319028;-0.355096;-0.677527;-0.311901;-0.355505;-0.676571;1;-0.427388;0.024533;-0.0573704;1;0.0131703;0.00023784;0.00386418;-1;fp_not_a_fp;-1;0.205613;
